Username,ID,ExperimentName,Session,Trial,Date,TimeDif,"Condition Number","Stimuli File","Order File","Condition Description","Condition Notes",Stimuli*Cue,Stimuli*Answer,Stimuli*Shuffle,"Stimuli*Stimuli Notes",Stimuli*Value,Procedure*Item,"Procedure*Trial Type","Procedure*Max Time","Procedure*Min Time",Procedure*Text,"Procedure*Procedure Notes",Procedure*Shuffle,Response*RT,Response*Response,Response*Accuracy,Response*RTfirst,Response*RTlast,Response*strictAcc,Response*lenientAcc,Response*focus,Response*JOL,Response*Focus
sdasfd,yf1wlwsui5,Trevor_EX2,1,1,2020-09-15T08:15:24-07:00,182.35971498489,3,Pure_Unrelated.csv,Control_VersionA.csv,"Control A","Control A",,,,,,0,Instruct,-,5,"In this section, you will be presented with a series of word pairs.",Initial_Instruct,Instruct1,182181,,,-1,-1,,,,,0.058
sdasfd,yf1wlwsui5,Trevor_EX2,1,2,2020-09-15T08:21:24-07:00,360.35837101936,3,Pure_Unrelated.csv,Control_VersionA.csv,"Control A","Control A",,,,,,0,Instruct,-,5,"As you study, you will be asked to rate your ability to remember the second item in the pair if you were only shown the first at test. You will make these ratings using a 0 to 100 Scale.",,Instruct13,360096,,,-1,-1,,,,,0.027
sdasfd,yf1wlwsui5,Trevor_EX2,1,3,2020-09-15T08:23:38-07:00,133.64024305344,3,Pure_Unrelated.csv,Control_VersionA.csv,"Control A","Control A",,,,,,0,Instruct,-,10,"For example, if you are given the pair CAT - DOG, a rating of 0 indicates that you would not remember DOG at test, while a rating of 100 indicates full certainty that you would remember the word DOG at test.",,Instruct14,133354,,,-1,-1,,,,,0.036
sdasfd,yf1wlwsui5,Trevor_EX2,1,4,2020-09-15T08:23:54-07:00,16.246367931366,3,Pure_Unrelated.csv,Control_VersionA.csv,"Control A","Control A",,,,,,0,Instruct,-,10,"When making your ratings, it is criticial that you use the full range of the scale. You will be disqualified for only giving ratings of 0 or 100! After making your rating, press Enter to advance to the next pair.",,Instruct15,15984,,,-1,-1,,,,,0.686
sdasfd,yf1wlwsui5,Trevor_EX2,1,5,2020-09-15T08:23:55-07:00,0.64493012428284,3,Pure_Unrelated.csv,Control_VersionA.csv,"Control A","Control A",,,,,,0,Instruct,User,-,"You will now begin the study. Press Enter when you are ready to begin.",,Instruct16,458,,,-1,-1,,,,,1
sdasfd,yf1wlwsui5,Trevor_EX2,1,6,2020-09-15T08:23:56-07:00,0.78569102287292,3,Pure_Unrelated.csv,Control_VersionA.csv,"Control A","Control A",SPACE,JAM,BUFFER1,Buffer,5,5,JOL,User,-,"How likely are you to correctly recall the second item in the pair?|Type your response on a scale from 0-100 and then press Enter.",Study/JOL,BUFFER,575,,,-1,-1,,,,,1
sdasfd,yf1wlwsui5,Trevor_EX2,1,7,2020-09-15T08:23:56-07:00,0.36748790740967,3,Pure_Unrelated.csv,Control_VersionA.csv,"Control A","Control A",PEANUT,BUTTER,BUFFER1,Buffer,3,3,JOL,User,-,"How likely are you to correctly recall the second item in the pair?|Type your response on a scale from 0-100 and then press Enter.",Study/JOL,BUFFER,160,,,-1,-1,,,,,1
sdasfd,yf1wlwsui5,Trevor_EX2,1,8,2020-09-15T08:23:56-07:00,0.34513688087463,3,Pure_Unrelated.csv,Control_VersionA.csv,"Control A","Control A",BASEBALL,CATCHER,BUFFER1,Buffer,2,6,JOL,User,-,"How likely are you to correctly recall the second item in the pair?|Type your response on a scale from 0-100 and then press Enter.",Study/JOL,BUFFER,137,,,-1,-1,,,,,1
sdasfd,yf1wlwsui5,Trevor_EX2,1,9,2020-09-15T08:23:57-07:00,0.31070303916931,3,Pure_Unrelated.csv,Control_VersionA.csv,"Control A","Control A",SCARE,HIDE,BUFFER1,Buffer,4,4,JOL,User,-,"How likely are you to correctly recall the second item in the pair?|Type your response on a scale from 0-100 and then press Enter.",Study/JOL,BUFFER,106,,,-1,-1,,,,,1
sdasfd,yf1wlwsui5,Trevor_EX2,1,10,2020-09-15T08:23:57-07:00,0.28299617767334,3,Pure_Unrelated.csv,Control_VersionA.csv,"Control A","Control A",TREES,GREEN,BUFFER1,Buffer,1,2,JOL,User,-,"How likely are you to correctly recall the second item in the pair?|Type your response on a scale from 0-100 and then press Enter.",Study/JOL,BUFFER,78,,,-1,-1,,,,,1
sdasfd,yf1wlwsui5,Trevor_EX2,1,11,2020-09-15T08:23:57-07:00,0.28537178039551,3,Pure_Unrelated.csv,Control_VersionA.csv,"Control A","Control A",MAZE,ELECTION,Study1,U,9,44,JOL,User,-,"How likely are you to correctly recall the second item in the pair?|Type your response on a scale from 0-100 and then press Enter.",Study/JOL,"Study Phase",62,,,-1,-1,,,,,1
sdasfd,yf1wlwsui5,Trevor_EX2,1,12,2020-09-15T08:23:57-07:00,0.26460599899292,3,Pure_Unrelated.csv,Control_VersionA.csv,"Control A","Control A",WARN,SEA,Study1,U,80,21,JOL,User,-,"How likely are you to correctly recall the second item in the pair?|Type your response on a scale from 0-100 and then press Enter.",Study/JOL,"Study Phase",53,,,-1,-1,,,,,1
sdasfd,yf1wlwsui5,Trevor_EX2,1,13,2020-09-15T08:23:58-07:00,0.27028799057007,3,Pure_Unrelated.csv,Control_VersionA.csv,"Control A","Control A",FUZZY,BANG,Study1,U,18,46,JOL,User,-,"How likely are you to correctly recall the second item in the pair?|Type your response on a scale from 0-100 and then press Enter.",Study/JOL,"Study Phase",73,,,-1,-1,,,,,1
sdasfd,yf1wlwsui5,Trevor_EX2,1,14,2020-09-15T08:23:58-07:00,0.28883409500122,3,Pure_Unrelated.csv,Control_VersionA.csv,"Control A","Control A",RESIST,GLUE,Study1,U,69,34,JOL,User,-,"How likely are you to correctly recall the second item in the pair?|Type your response on a scale from 0-100 and then press Enter.",Study/JOL,"Study Phase",91,,,-1,-1,,,,,1
sdasfd,yf1wlwsui5,Trevor_EX2,1,15,2020-09-15T08:23:58-07:00,0.26361894607544,3,Pure_Unrelated.csv,Control_VersionA.csv,"Control A","Control A",MAIN,SCAR,Study1,U,25,40,JOL,User,-,"How likely are you to correctly recall the second item in the pair?|Type your response on a scale from 0-100 and then press Enter.",Study/JOL,"Study Phase",57,,,-1,-1,,,,,1
sdasfd,yf1wlwsui5,Trevor_EX2,1,16,2020-09-15T08:23:58-07:00,0.26358604431152,3,Pure_Unrelated.csv,Control_VersionA.csv,"Control A","Control A",CRAYON,RATE,Study1,U,79,16,JOL,User,-,"How likely are you to correctly recall the second item in the pair?|Type your response on a scale from 0-100 and then press Enter.",Study/JOL,"Study Phase",65,,,-1,-1,,,,,1
sdasfd,yf1wlwsui5,Trevor_EX2,1,17,2020-09-15T08:23:59-07:00,0.26439213752747,3,Pure_Unrelated.csv,Control_VersionA.csv,"Control A","Control A",RIPE,VERIFY,Study1,U,83,38,JOL,User,-,"How likely are you to correctly recall the second item in the pair?|Type your response on a scale from 0-100 and then press Enter.",Study/JOL,"Study Phase",66,,,-1,-1,,,,,1
sdasfd,yf1wlwsui5,Trevor_EX2,1,18,2020-09-15T08:23:59-07:00,0.28373098373413,3,Pure_Unrelated.csv,Control_VersionA.csv,"Control A","Control A",ROSE,NEGLECT,Study1,U,82,15,JOL,User,-,"How likely are you to correctly recall the second item in the pair?|Type your response on a scale from 0-100 and then press Enter.",Study/JOL,"Study Phase",98,,,-1,-1,,,,,1
sdasfd,yf1wlwsui5,Trevor_EX2,1,19,2020-09-15T08:23:59-07:00,0.25949597358704,3,Pure_Unrelated.csv,Control_VersionA.csv,"Control A","Control A",INFLATE,DISGUST,Study1,U,76,24,JOL,User,-,"How likely are you to correctly recall the second item in the pair?|Type your response on a scale from 0-100 and then press Enter.",Study/JOL,"Study Phase",54,,,-1,-1,,,,,1
sdasfd,yf1wlwsui5,Trevor_EX2,1,20,2020-09-15T08:24:00-07:00,0.27321696281433,3,Pure_Unrelated.csv,Control_VersionA.csv,"Control A","Control A",CAKE,CLOTHES,Study1,U,16,43,JOL,User,-,"How likely are you to correctly recall the second item in the pair?|Type your response on a scale from 0-100 and then press Enter.",Study/JOL,"Study Phase",69,,,-1,-1,,,,,1
sdasfd,yf1wlwsui5,Trevor_EX2,1,21,2020-09-15T08:24:00-07:00,0.27152705192566,3,Pure_Unrelated.csv,Control_VersionA.csv,"Control A","Control A",VEHICLE,CHARM,Study1,U,10,26,JOL,User,-,"How likely are you to correctly recall the second item in the pair?|Type your response on a scale from 0-100 and then press Enter.",Study/JOL,"Study Phase",74,,,-1,-1,,,,,1
sdasfd,yf1wlwsui5,Trevor_EX2,1,22,2020-09-15T08:24:00-07:00,0.27264094352722,3,Pure_Unrelated.csv,Control_VersionA.csv,"Control A","Control A",KEYS,JOKE,Study1,U,15,41,JOL,User,-,"How likely are you to correctly recall the second item in the pair?|Type your response on a scale from 0-100 and then press Enter.",Study/JOL,"Study Phase",73,,,-1,-1,,,,,1
sdasfd,yf1wlwsui5,Trevor_EX2,1,23,2020-09-15T08:24:00-07:00,0.26313185691833,3,Pure_Unrelated.csv,Control_VersionA.csv,"Control A","Control A",BROAD,INFECT,Study1,U,75,25,JOL,User,-,"How likely are you to correctly recall the second item in the pair?|Type your response on a scale from 0-100 and then press Enter.",Study/JOL,"Study Phase",63,,,-1,-1,,,,,1
sdasfd,yf1wlwsui5,Trevor_EX2,1,24,2020-09-15T08:24:01-07:00,0.26410913467407,3,Pure_Unrelated.csv,Control_VersionA.csv,"Control A","Control A",NAME,HATE,Study1,U,17,35,JOL,User,-,"How likely are you to correctly recall the second item in the pair?|Type your response on a scale from 0-100 and then press Enter.",Study/JOL,"Study Phase",60,,,-1,-1,,,,,1
sdasfd,yf1wlwsui5,Trevor_EX2,1,25,2020-09-15T08:24:01-07:00,0.24987387657166,3,Pure_Unrelated.csv,Control_VersionA.csv,"Control A","Control A",LEASE,TOIL,Study1,U,20,13,JOL,User,-,"How likely are you to correctly recall the second item in the pair?|Type your response on a scale from 0-100 and then press Enter.",Study/JOL,"Study Phase",40,,,-1,-1,,,,,1
sdasfd,yf1wlwsui5,Trevor_EX2,1,26,2020-09-15T08:24:01-07:00,0.25400614738464,3,Pure_Unrelated.csv,Control_VersionA.csv,"Control A","Control A",MOAT,CLEAR,Study1,U,19,42,JOL,User,-,"How likely are you to correctly recall the second item in the pair?|Type your response on a scale from 0-100 and then press Enter.",Study/JOL,"Study Phase",58,,,-1,-1,,,,,1
sdasfd,yf1wlwsui5,Trevor_EX2,1,27,2020-09-15T08:24:01-07:00,0.25830292701721,3,Pure_Unrelated.csv,Control_VersionA.csv,"Control A","Control A",CRACKLE,ABLE,Study1,U,12,12,JOL,User,-,"How likely are you to correctly recall the second item in the pair?|Type your response on a scale from 0-100 and then press Enter.",Study/JOL,"Study Phase",46,,,-1,-1,,,,,1
sdasfd,yf1wlwsui5,Trevor_EX2,1,28,2020-09-15T08:24:02-07:00,0.28397393226624,3,Pure_Unrelated.csv,Control_VersionA.csv,"Control A","Control A",SHELL,SHAKE,Study1,U,13,10,JOL,User,-,"How likely are you to correctly recall the second item in the pair?|Type your response on a scale from 0-100 and then press Enter.",Study/JOL,"Study Phase",76,,,-1,-1,,,,,1
sdasfd,yf1wlwsui5,Trevor_EX2,1,29,2020-09-15T08:24:02-07:00,0.25029110908508,3,Pure_Unrelated.csv,Control_VersionA.csv,"Control A","Control A",DIZZY,SWEATER,Study1,U,77,31,JOL,User,-,"How likely are you to correctly recall the second item in the pair?|Type your response on a scale from 0-100 and then press Enter.",Study/JOL,"Study Phase",33,,,-1,-1,,,,,1
sdasfd,yf1wlwsui5,Trevor_EX2,1,30,2020-09-15T08:24:02-07:00,0.26595211029053,3,Pure_Unrelated.csv,Control_VersionA.csv,"Control A","Control A",LOAN,SIGN,Study1,U,21,32,JOL,User,-,"How likely are you to correctly recall the second item in the pair?|Type your response on a scale from 0-100 and then press Enter.",Study/JOL,"Study Phase",36,,,-1,-1,,,,,1
sdasfd,yf1wlwsui5,Trevor_EX2,1,31,2020-09-15T08:24:02-07:00,0.24566078186035,3,Pure_Unrelated.csv,Control_VersionA.csv,"Control A","Control A",STRETCH,CLOTH,Study1,U,7,36,JOL,User,-,"How likely are you to correctly recall the second item in the pair?|Type your response on a scale from 0-100 and then press Enter.",Study/JOL,"Study Phase",36,,,-1,-1,,,,,1
sdasfd,yf1wlwsui5,Trevor_EX2,1,32,2020-09-15T08:24:03-07:00,0.25733113288879,3,Pure_Unrelated.csv,Control_VersionA.csv,"Control A","Control A",DEGREE,CHAIR,Study1,U,71,22,JOL,User,-,"How likely are you to correctly recall the second item in the pair?|Type your response on a scale from 0-100 and then press Enter.",Study/JOL,"Study Phase",38,,,-1,-1,,,,,1
sdasfd,yf1wlwsui5,Trevor_EX2,1,33,2020-09-15T08:24:03-07:00,0.25611901283264,3,Pure_Unrelated.csv,Control_VersionA.csv,"Control A","Control A",BAT,SHAKY,Study1,U,66,45,JOL,User,-,"How likely are you to correctly recall the second item in the pair?|Type your response on a scale from 0-100 and then press Enter.",Study/JOL,"Study Phase",48,,,-1,-1,,,,,1
sdasfd,yf1wlwsui5,Trevor_EX2,1,34,2020-09-15T08:24:03-07:00,0.27089691162109,3,Pure_Unrelated.csv,Control_VersionA.csv,"Control A","Control A",FUTURE,SINCERE,Study1,U,70,23,JOL,User,-,"How likely are you to correctly recall the second item in the pair?|Type your response on a scale from 0-100 and then press Enter.",Study/JOL,"Study Phase",72,,,-1,-1,,,,,1
sdasfd,yf1wlwsui5,Trevor_EX2,1,35,2020-09-15T08:24:03-07:00,0.24688601493835,3,Pure_Unrelated.csv,Control_VersionA.csv,"Control A","Control A",LISTEN,FICTION,Study1,U,14,8,JOL,User,-,"How likely are you to correctly recall the second item in the pair?|Type your response on a scale from 0-100 and then press Enter.",Study/JOL,"Study Phase",52,,,-1,-1,,,,,1
sdasfd,yf1wlwsui5,Trevor_EX2,1,36,2020-09-15T08:24:04-07:00,0.26553702354431,3,Pure_Unrelated.csv,Control_VersionA.csv,"Control A","Control A",MEAT,OBTAIN,Study1,U,11,27,JOL,User,-,"How likely are you to correctly recall the second item in the pair?|Type your response on a scale from 0-100 and then press Enter.",Study/JOL,"Study Phase",68,,,-1,-1,,,,,1
sdasfd,yf1wlwsui5,Trevor_EX2,1,37,2020-09-15T08:24:04-07:00,0.27941489219666,3,Pure_Unrelated.csv,Control_VersionA.csv,"Control A","Control A",DIFFICULT,POOR,Study1,U,81,28,JOL,User,-,"How likely are you to correctly recall the second item in the pair?|Type your response on a scale from 0-100 and then press Enter.",Study/JOL,"Study Phase",100,,,-1,-1,,,,,1
sdasfd,yf1wlwsui5,Trevor_EX2,1,38,2020-09-15T08:24:04-07:00,0.2632851600647,3,Pure_Unrelated.csv,Control_VersionA.csv,"Control A","Control A",TEMPERATURE,MORNING,Study1,U,23,9,JOL,User,-,"How likely are you to correctly recall the second item in the pair?|Type your response on a scale from 0-100 and then press Enter.",Study/JOL,"Study Phase",51,,,-1,-1,,,,,1
sdasfd,yf1wlwsui5,Trevor_EX2,1,39,2020-09-15T08:24:05-07:00,0.24899291992188,3,Pure_Unrelated.csv,Control_VersionA.csv,"Control A","Control A",DONKEY,LUSH,Study1,U,84,14,JOL,User,-,"How likely are you to correctly recall the second item in the pair?|Type your response on a scale from 0-100 and then press Enter.",Study/JOL,"Study Phase",33,,,-1,-1,,,,,1
sdasfd,yf1wlwsui5,Trevor_EX2,1,40,2020-09-15T08:24:05-07:00,0.40783405303955,3,Pure_Unrelated.csv,Control_VersionA.csv,"Control A","Control A",THICK,CONTEST,Study1,U,73,33,JOL,User,-,"How likely are you to correctly recall the second item in the pair?|Type your response on a scale from 0-100 and then press Enter.",Study/JOL,"Study Phase",215,,,-1,-1,,,,,1
sdasfd,yf1wlwsui5,Trevor_EX2,1,41,2020-09-15T08:24:05-07:00,0.31181406974792,3,Pure_Unrelated.csv,Control_VersionA.csv,"Control A","Control A",TAX,OWL,Study1,U,72,29,JOL,User,-,"How likely are you to correctly recall the second item in the pair?|Type your response on a scale from 0-100 and then press Enter.",Study/JOL,"Study Phase",108,,,-1,-1,,,,,1
sdasfd,yf1wlwsui5,Trevor_EX2,1,42,2020-09-15T08:24:06-07:00,0.42400288581848,3,Pure_Unrelated.csv,Control_VersionA.csv,"Control A","Control A",GRIND,STAND,Study1,U,85,19,JOL,User,-,"How likely are you to correctly recall the second item in the pair?|Type your response on a scale from 0-100 and then press Enter.",Study/JOL,"Study Phase",217,,,-1,-1,,,,,1
sdasfd,yf1wlwsui5,Trevor_EX2,1,43,2020-09-15T08:24:06-07:00,0.25629591941833,3,Pure_Unrelated.csv,Control_VersionA.csv,"Control A","Control A",BOTH,OUNCE,Study1,U,22,17,JOL,User,-,"How likely are you to correctly recall the second item in the pair?|Type your response on a scale from 0-100 and then press Enter.",Study/JOL,"Study Phase",45,,,-1,-1,,,,,1
sdasfd,yf1wlwsui5,Trevor_EX2,1,44,2020-09-15T08:24:06-07:00,0.52776908874512,3,Pure_Unrelated.csv,Control_VersionA.csv,"Control A","Control A",NUMBER,HARD,Study1,U,78,18,JOL,User,-,"How likely are you to correctly recall the second item in the pair?|Type your response on a scale from 0-100 and then press Enter.",Study/JOL,"Study Phase",323,,,-1,-1,,,,,1
sdasfd,yf1wlwsui5,Trevor_EX2,1,45,2020-09-15T08:24:07-07:00,0.24704599380493,3,Pure_Unrelated.csv,Control_VersionA.csv,"Control A","Control A",PET,MOON,Study1,U,74,7,JOL,User,-,"How likely are you to correctly recall the second item in the pair?|Type your response on a scale from 0-100 and then press Enter.",Study/JOL,"Study Phase",39,,,-1,-1,,,,,1
sdasfd,yf1wlwsui5,Trevor_EX2,1,46,2020-09-15T08:24:07-07:00,0.51021909713745,3,Pure_Unrelated.csv,Control_VersionA.csv,"Control A","Control A",JUSTICE,MAROON,Study1,U,6,11,JOL,User,-,"How likely are you to correctly recall the second item in the pair?|Type your response on a scale from 0-100 and then press Enter.",Study/JOL,"Study Phase",305,,,-1,-1,,,,,1
sdasfd,yf1wlwsui5,Trevor_EX2,1,47,2020-09-15T08:24:08-07:00,0.36519885063171,3,Pure_Unrelated.csv,Control_VersionA.csv,"Control A","Control A",PARCEL,THROAT,Study1,U,67,30,JOL,User,-,"How likely are you to correctly recall the second item in the pair?|Type your response on a scale from 0-100 and then press Enter.",Study/JOL,"Study Phase",158,,,-1,-1,,,,,1
sdasfd,yf1wlwsui5,Trevor_EX2,1,48,2020-09-15T08:24:08-07:00,0.22914099693298,3,Pure_Unrelated.csv,Control_VersionA.csv,"Control A","Control A",STRESS,YAM,Study1,U,68,37,JOL,User,-,"How likely are you to correctly recall the second item in the pair?|Type your response on a scale from 0-100 and then press Enter.",Study/JOL,"Study Phase",24,,,-1,-1,,,,,1
sdasfd,yf1wlwsui5,Trevor_EX2,1,49,2020-09-15T08:24:08-07:00,0.28849601745605,3,Pure_Unrelated.csv,Control_VersionA.csv,"Control A","Control A",MIRROR,CHILDREN,Study1,U,24,20,JOL,User,-,"How likely are you to correctly recall the second item in the pair?|Type your response on a scale from 0-100 and then press Enter.",Study/JOL,"Study Phase",86,,,-1,-1,,,,,1
sdasfd,yf1wlwsui5,Trevor_EX2,1,50,2020-09-15T08:24:08-07:00,0.28993010520935,3,Pure_Unrelated.csv,Control_VersionA.csv,"Control A","Control A",GIVE,STEAK,Study1,U,8,39,JOL,User,-,"How likely are you to correctly recall the second item in the pair?|Type your response on a scale from 0-100 and then press Enter.",Study/JOL,"Study Phase",107,,,-1,-1,,,,,1
sdasfd,yf1wlwsui5,Trevor_EX2,1,51,2020-09-15T08:24:09-07:00,0.30224585533142,3,Pure_Unrelated.csv,Control_VersionA.csv,"Control A","Control A",SHERRIF,POLICE,BUFFER2,Buffer,87,51,JOL,User,-,"How likely are you to correctly recall the second item in the pair?|Type your response on a scale from 0-100 and then press Enter.",Study/JOL,BUFFER2,103,,,-1,-1,,,,,1
sdasfd,yf1wlwsui5,Trevor_EX2,1,52,2020-09-15T08:24:09-07:00,0.29551315307617,3,Pure_Unrelated.csv,Control_VersionA.csv,"Control A","Control A",GEESE,GOOSE,BUFFER2,Buffer,86,50,JOL,User,-,"How likely are you to correctly recall the second item in the pair?|Type your response on a scale from 0-100 and then press Enter.",Study/JOL,BUFFER2,96,,,-1,-1,,,,,1
sdasfd,yf1wlwsui5,Trevor_EX2,1,53,2020-09-15T08:24:09-07:00,0.48835206031799,3,Pure_Unrelated.csv,Control_VersionA.csv,"Control A","Control A",THING,STUFF,BUFFER2,Buffer,90,48,JOL,User,-,"How likely are you to correctly recall the second item in the pair?|Type your response on a scale from 0-100 and then press Enter.",Study/JOL,BUFFER2,283,,,-1,-1,,,,,1
sdasfd,yf1wlwsui5,Trevor_EX2,1,54,2020-09-15T08:24:10-07:00,0.51951599121094,3,Pure_Unrelated.csv,Control_VersionA.csv,"Control A","Control A",MOON,SPACE,BUFFER2,Buffer,89,47,JOL,User,-,"How likely are you to correctly recall the second item in the pair?|Type your response on a scale from 0-100 and then press Enter.",Study/JOL,BUFFER2,315,,,-1,-1,,,,,1
sdasfd,yf1wlwsui5,Trevor_EX2,1,55,2020-09-15T08:24:11-07:00,0.57759690284729,3,Pure_Unrelated.csv,Control_VersionA.csv,"Control A","Control A",MALT,CHOCOLATE,BUFFER2,Buffer,88,49,JOL,User,-,"How likely are you to correctly recall the second item in the pair?|Type your response on a scale from 0-100 and then press Enter.",Study/JOL,BUFFER2,362,,,-1,-1,,,,,1
sdasfd,yf1wlwsui5,Trevor_EX2,1,56,2020-09-15T08:24:11-07:00,0.81709790229797,3,Pure_Unrelated.csv,Control_VersionA.csv,"Control A","Control A",,,,,,0,Instruct,User,-,"You have completed this section. Please press Enter.",Filler_Instruction,Instruct2,613,,,-1,-1,,,,,1
