Username,ID,ExperimentName,Session,Trial,Date,TimeDif,"Condition Number","Stimuli File","Order File","Condition Description","Condition Notes",Stimuli*Cue,Stimuli*Answer,Stimuli*Shuffle,"Stimuli*Stimuli Notes",Stimuli*Value,Procedure*Item,"Procedure*Trial Type","Procedure*Max Time","Procedure*Min Time",Procedure*Text,"Procedure*Procedure Notes",Procedure*Shuffle,Response*RT,Response*Response,Response*Accuracy,Response*RTfirst,Response*RTlast,Response*strictAcc,Response*lenientAcc,Response*focus,Response*JOL,Response*Focus
w10046938_mec,vmh1mty1dz,Trevor_EX2,1,1,2020-10-13T16:23:23-07:00,7.1811969280243,2,Pure_Unrelated.csv,SF_VersionB.csv,"Sans F B","Sans F B",,,,,,0,Instruct,-,5,"In this section, you will be presented with a series of word pairs.",Initial_Instruct,Instruct1,6854,,,-1,-1,,,,,1
w10046938_mec,vmh1mty1dz,Trevor_EX2,1,2,2020-10-13T16:23:37-07:00,13.892660140991,2,Pure_Unrelated.csv,SF_VersionB.csv,"Sans F B","Sans F B",,,,,,0,Instruct,-,5,"As you study, you will be asked to rate your ability to remember the second item in the pair if you were only shown the first at test. You will make these ratings using a 0 to 100 Scale.",,Instruct13,13522,,,-1,-1,,,,,1
w10046938_mec,vmh1mty1dz,Trevor_EX2,1,3,2020-10-13T16:25:56-07:00,139.54761695862,2,Pure_Unrelated.csv,SF_VersionB.csv,"Sans F B","Sans F B",,,,,,0,Instruct,-,10,"For example, if you are given the pair CAT - DOG, a rating of 0 indicates that you would not remember DOG at test, while a rating of 100 indicates full certainty that you would remember the word DOG at test.",,Instruct14,138954,,,-1,-1,,,,,0.36
w10046938_mec,vmh1mty1dz,Trevor_EX2,1,4,2020-10-13T16:26:10-07:00,13.504453897476,2,Pure_Unrelated.csv,SF_VersionB.csv,"Sans F B","Sans F B",,,,,,0,Instruct,-,10,"When making your ratings, it is criticial that you use the full range of the scale. You will be disqualified for only giving ratings of 0 or 100! After making your rating, press Enter to advance to the next pair.",,Instruct15,12503,,,-1,-1,,,,,1
w10046938_mec,vmh1mty1dz,Trevor_EX2,1,5,2020-10-13T16:26:14-07:00,3.9453711509705,2,Pure_Unrelated.csv,SF_VersionB.csv,"Sans F B","Sans F B",,,,,,0,Instruct,User,-,"You will now begin the study. Press Enter when you are ready to begin.",,Instruct16,3220,,,-1,-1,,,,,1
w10046938_mec,vmh1mty1dz,Trevor_EX2,1,6,2020-10-13T16:26:21-07:00,7.202507019043,2,Pure_Unrelated.csv,SF_VersionB.csv,"Sans F B","Sans F B",CAMP,ADVENTURE,BUFFER3,Buffer,95,54,JOL,User,-,"How likely are you to correctly recall the second item in the pair?|Type your response on a scale from 0-100 and then press Enter.",Study/JOL,BUFFER,6355,,,2600,5529,,,,99,1
w10046938_mec,vmh1mty1dz,Trevor_EX2,1,7,2020-10-13T16:26:30-07:00,8.699266910553,2,Pure_Unrelated.csv,SF_VersionB.csv,"Sans F B","Sans F B",NOODLE,STRING,BUFFER3,Buffer,92,55,JOL_SF,User,-,"How likely are you to correctly recall the second item in the pair?|Type your response on a scale from 0-100 and then press Enter.",Study/JOL,BUFFER,7889,,,7423,7531,,,,20,1
w10046938_mec,vmh1mty1dz,Trevor_EX2,1,8,2020-10-13T16:26:33-07:00,2.9833199977875,2,Pure_Unrelated.csv,SF_VersionB.csv,"Sans F B","Sans F B",CARROT,POTATO,BUFFER3,Buffer,91,52,JOL,User,-,"How likely are you to correctly recall the second item in the pair?|Type your response on a scale from 0-100 and then press Enter.",Study/JOL,BUFFER,2286,,,1672,2002,,,,50,1
w10046938_mec,vmh1mty1dz,Trevor_EX2,1,9,2020-10-13T16:26:36-07:00,3.486270904541,2,Pure_Unrelated.csv,SF_VersionB.csv,"Sans F B","Sans F B",ICE,FROZEN,BUFFER3,Buffer,94,56,JOL_SF,User,-,"How likely are you to correctly recall the second item in the pair?|Type your response on a scale from 0-100 and then press Enter.",Study/JOL,BUFFER,2951,,,2425,2665,,,,100,1
w10046938_mec,vmh1mty1dz,Trevor_EX2,1,10,2020-10-13T16:26:39-07:00,2.8014161586761,2,Pure_Unrelated.csv,SF_VersionB.csv,"Sans F B","Sans F B",SHRIMP,FISH,BUFFER3,Buffer,93,53,JOL,User,-,"How likely are you to correctly recall the second item in the pair?|Type your response on a scale from 0-100 and then press Enter.",Study/JOL,BUFFER,2070,,,1561,1774,,,,50,1
w10046938_mec,vmh1mty1dz,Trevor_EX2,1,11,2020-10-13T16:26:43-07:00,4.3072628974915,2,Pure_Unrelated.csv,SF_VersionB.csv,"Sans F B","Sans F B",NULL,COUGH,Study2,U,156,73,JOL,User,-,"How likely are you to correctly recall the second item in the pair?|Type your response on a scale from 0-100 and then press Enter.",Study/JOL,"Study Phase",3652,,,2035,3288,,,,10,1
w10046938_mec,vmh1mty1dz,Trevor_EX2,1,12,2020-10-13T16:26:50-07:00,6.7969329357147,2,Pure_Unrelated.csv,SF_VersionB.csv,"Sans F B","Sans F B",ROAD,SCENT,Study2,U,166,96,JOL_SF,User,-,"How likely are you to correctly recall the second item in the pair?|Type your response on a scale from 0-100 and then press Enter.",Study/JOL,"Study Phase",6003,,,5562,5703,,,,10,1
w10046938_mec,vmh1mty1dz,Trevor_EX2,1,13,2020-10-13T16:26:53-07:00,3.0892941951752,2,Pure_Unrelated.csv,SF_VersionB.csv,"Sans F B","Sans F B",READY,CORN,Study2,U,158,84,JOL_SF,User,-,"How likely are you to correctly recall the second item in the pair?|Type your response on a scale from 0-100 and then press Enter.",Study/JOL,"Study Phase",2622,,,1968,2385,,,,15,1
w10046938_mec,vmh1mty1dz,Trevor_EX2,1,14,2020-10-13T16:28:16-07:00,82.489949941635,2,Pure_Unrelated.csv,SF_VersionB.csv,"Sans F B","Sans F B",WASTE,SEDATE,Study2,U,165,86,JOL_SF,User,-,"How likely are you to correctly recall the second item in the pair?|Type your response on a scale from 0-100 and then press Enter.",Study/JOL,"Study Phase",2584,,,1669,2209,,,,15,1
w10046938_mec,vmh1mty1dz,Trevor_EX2,1,15,2020-10-13T16:28:26-07:00,10.725069999695,2,Pure_Unrelated.csv,SF_VersionB.csv,"Sans F B","Sans F B",ACCIDENT,STRONG,Study2,U,110,80,JOL_SF,User,-,"How likely are you to correctly recall the second item in the pair?|Type your response on a scale from 0-100 and then press Enter.",Study/JOL,"Study Phase",9575,,,8194,9175,,,,20,1
w10046938_mec,vmh1mty1dz,Trevor_EX2,1,16,2020-10-13T16:28:37-07:00,10.712260007858,2,Pure_Unrelated.csv,SF_VersionB.csv,"Sans F B","Sans F B",WOULD,CASH,Study2,U,113,57,JOL,User,-,"How likely are you to correctly recall the second item in the pair?|Type your response on a scale from 0-100 and then press Enter.",Study/JOL,"Study Phase",9930,,,9484,9620,,,,20,1
w10046938_mec,vmh1mty1dz,Trevor_EX2,1,17,2020-10-13T16:29:07-07:00,29.987478017807,2,Pure_Unrelated.csv,SF_VersionB.csv,"Sans F B","Sans F B",BRONZE,ARTERY,Study2,U,104,68,JOL,User,-,"How likely are you to correctly recall the second item in the pair?|Type your response on a scale from 0-100 and then press Enter.",Study/JOL,"Study Phase",29161,,,27964,28891,,,,12,1
w10046938_mec,vmh1mty1dz,Trevor_EX2,1,18,2020-10-13T16:29:11-07:00,3.686488866806,2,Pure_Unrelated.csv,SF_VersionB.csv,"Sans F B","Sans F B",LION,ART,Study2,U,109,69,JOL,User,-,"How likely are you to correctly recall the second item in the pair?|Type your response on a scale from 0-100 and then press Enter.",Study/JOL,"Study Phase",2954,,,2513,2646,,,,50,1
w10046938_mec,vmh1mty1dz,Trevor_EX2,1,19,2020-10-13T16:29:18-07:00,7.3717830181122,2,Pure_Unrelated.csv,SF_VersionB.csv,"Sans F B","Sans F B",TUCK,ALLOW,Study2,U,108,87,JOL_SF,User,-,"How likely are you to correctly recall the second item in the pair?|Type your response on a scale from 0-100 and then press Enter.",Study/JOL,"Study Phase",6588,,,6128,6128,,,,0,1
w10046938_mec,vmh1mty1dz,Trevor_EX2,1,20,2020-10-13T16:29:21-07:00,2.7491910457611,2,Pure_Unrelated.csv,SF_VersionB.csv,"Sans F B","Sans F B",ZOO,THUMB,Study2,U,168,75,JOL,User,-,"How likely are you to correctly recall the second item in the pair?|Type your response on a scale from 0-100 and then press Enter.",Study/JOL,"Study Phase",2102,,,1619,1810,,,,20,1
w10046938_mec,vmh1mty1dz,Trevor_EX2,1,21,2020-10-13T16:29:24-07:00,2.794182062149,2,Pure_Unrelated.csv,SF_VersionB.csv,"Sans F B","Sans F B",WOMAN,LIFT,Study2,U,99,65,JOL,User,-,"How likely are you to correctly recall the second item in the pair?|Type your response on a scale from 0-100 and then press Enter.",Study/JOL,"Study Phase",2005,,,1658,1829,,,,32,1
w10046938_mec,vmh1mty1dz,Trevor_EX2,1,22,2020-10-13T16:29:28-07:00,4.0514760017395,2,Pure_Unrelated.csv,SF_VersionB.csv,"Sans F B","Sans F B",LAKE,OPINION,Study2,U,160,85,JOL_SF,User,-,"How likely are you to correctly recall the second item in the pair?|Type your response on a scale from 0-100 and then press Enter.",Study/JOL,"Study Phase",3257,,,2796,2937,,,,10,1
w10046938_mec,vmh1mty1dz,Trevor_EX2,1,23,2020-10-13T16:29:30-07:00,2.548660993576,2,Pure_Unrelated.csv,SF_VersionB.csv,"Sans F B","Sans F B",HUNGRY,PARK,Study2,U,98,74,JOL,User,-,"How likely are you to correctly recall the second item in the pair?|Type your response on a scale from 0-100 and then press Enter.",Study/JOL,"Study Phase",1790,,,1335,1525,,,,50,1
w10046938_mec,vmh1mty1dz,Trevor_EX2,1,24,2020-10-13T16:29:33-07:00,2.9489388465881,2,Pure_Unrelated.csv,SF_VersionB.csv,"Sans F B","Sans F B",DETECT,FREE,Study2,U,162,76,JOL,User,-,"How likely are you to correctly recall the second item in the pair?|Type your response on a scale from 0-100 and then press Enter.",Study/JOL,"Study Phase",2323,,,1882,2026,,,,99,1
w10046938_mec,vmh1mty1dz,Trevor_EX2,1,25,2020-10-13T16:29:36-07:00,2.7419741153717,2,Pure_Unrelated.csv,SF_VersionB.csv,"Sans F B","Sans F B",VASE,KING,Study2,U,115,94,JOL_SF,User,-,"How likely are you to correctly recall the second item in the pair?|Type your response on a scale from 0-100 and then press Enter.",Study/JOL,"Study Phase",1926,,,1489,1638,,,,10,1
w10046938_mec,vmh1mty1dz,Trevor_EX2,1,26,2020-10-13T16:29:39-07:00,3.4486289024353,2,Pure_Unrelated.csv,SF_VersionB.csv,"Sans F B","Sans F B",Business,Death,Study2,U,102,81,JOL_SF,User,-,"How likely are you to correctly recall the second item in the pair?|Type your response on a scale from 0-100 and then press Enter.",Study/JOL,"Study Phase",2735,,,2095,2364,,,,100,1
w10046938_mec,vmh1mty1dz,Trevor_EX2,1,27,2020-10-13T16:29:42-07:00,2.9989559650421,2,Pure_Unrelated.csv,SF_VersionB.csv,"Sans F B","Sans F B",STOMACH,TOWN,Study2,U,159,61,JOL,User,-,"How likely are you to correctly recall the second item in the pair?|Type your response on a scale from 0-100 and then press Enter.",Study/JOL,"Study Phase",2241,,,1839,1944,,,,20,1
w10046938_mec,vmh1mty1dz,Trevor_EX2,1,28,2020-10-13T16:29:46-07:00,3.5744721889496,2,Pure_Unrelated.csv,SF_VersionB.csv,"Sans F B","Sans F B",JELLY,NAUGHTY,Study2,U,172,72,JOL,User,-,"How likely are you to correctly recall the second item in the pair?|Type your response on a scale from 0-100 and then press Enter.",Study/JOL,"Study Phase",3005,,,1342,2581,,,,10,1
w10046938_mec,vmh1mty1dz,Trevor_EX2,1,29,2020-10-13T16:29:49-07:00,3.1086459159851,2,Pure_Unrelated.csv,SF_VersionB.csv,"Sans F B","Sans F B",FLOAT,HARMONY,Study2,U,161,95,JOL_SF,User,-,"How likely are you to correctly recall the second item in the pair?|Type your response on a scale from 0-100 and then press Enter.",Study/JOL,"Study Phase",2432,,,-1,-1,,,,,1
w10046938_mec,vmh1mty1dz,Trevor_EX2,1,30,2020-10-13T16:29:57-07:00,7.3837759494781,2,Pure_Unrelated.csv,SF_VersionB.csv,"Sans F B","Sans F B",SWING,FOG,Study2,U,175,79,JOL_SF,User,-,"How likely are you to correctly recall the second item in the pair?|Type your response on a scale from 0-100 and then press Enter.",Study/JOL,"Study Phase",6776,,,6294,6413,,,,20,1
w10046938_mec,vmh1mty1dz,Trevor_EX2,1,31,2020-10-13T16:29:59-07:00,2.5527091026306,2,Pure_Unrelated.csv,SF_VersionB.csv,"Sans F B","Sans F B",BELT,SOON,Study2,U,100,67,JOL,User,-,"How likely are you to correctly recall the second item in the pair?|Type your response on a scale from 0-100 and then press Enter.",Study/JOL,"Study Phase",1998,,,1548,1621,,,,20,1
w10046938_mec,vmh1mty1dz,Trevor_EX2,1,32,2020-10-13T16:30:02-07:00,3.102481842041,2,Pure_Unrelated.csv,SF_VersionB.csv,"Sans F B","Sans F B",SMOOTH,OMIT,Study2,U,157,91,JOL_SF,User,-,"How likely are you to correctly recall the second item in the pair?|Type your response on a scale from 0-100 and then press Enter.",Study/JOL,"Study Phase",2544,,,2072,2185,,,,10,1
w10046938_mec,vmh1mty1dz,Trevor_EX2,1,33,2020-10-13T16:30:07-07:00,4.3270061016083,2,Pure_Unrelated.csv,SF_VersionB.csv,"Sans F B","Sans F B",SYSTEM,LICK,Study2,U,167,92,JOL_SF,User,-,"How likely are you to correctly recall the second item in the pair?|Type your response on a scale from 0-100 and then press Enter.",Study/JOL,"Study Phase",3729,,,3163,3382,,,,10,1
w10046938_mec,vmh1mty1dz,Trevor_EX2,1,34,2020-10-13T16:30:10-07:00,3.6515309810638,2,Pure_Unrelated.csv,SF_VersionB.csv,"Sans F B","Sans F B",GUARD,WHEEL,Study2,U,170,82,JOL_SF,User,-,"How likely are you to correctly recall the second item in the pair?|Type your response on a scale from 0-100 and then press Enter.",Study/JOL,"Study Phase",2974,,,2320,2485,,,,10,1
w10046938_mec,vmh1mty1dz,Trevor_EX2,1,35,2020-10-13T16:30:16-07:00,5.3159050941467,2,Pure_Unrelated.csv,SF_VersionB.csv,"Sans F B","Sans F B",FLOOR,DISCOVER,Study2,U,101,66,JOL,User,-,"How likely are you to correctly recall the second item in the pair?|Type your response on a scale from 0-100 and then press Enter.",Study/JOL,"Study Phase",4601,,,3894,4194,,,,30,1
w10046938_mec,vmh1mty1dz,Trevor_EX2,1,36,2020-10-13T16:31:26-07:00,70.412292003632,2,Pure_Unrelated.csv,SF_VersionB.csv,"Sans F B","Sans F B",MUTE,WAVE,Study2,U,173,93,JOL_SF,User,-,"How likely are you to correctly recall the second item in the pair?|Type your response on a scale from 0-100 and then press Enter.",Study/JOL,"Study Phase",69623,,,69150,69287,,,,20,0.474
w10046938_mec,vmh1mty1dz,Trevor_EX2,1,37,2020-10-13T16:31:35-07:00,8.6812608242035,2,Pure_Unrelated.csv,SF_VersionB.csv,"Sans F B","Sans F B",DESIRE,NOISE,Study2,U,169,71,JOL,User,-,"How likely are you to correctly recall the second item in the pair?|Type your response on a scale from 0-100 and then press Enter.",Study/JOL,"Study Phase",7906,,,6648,7548,,,,100,1
w10046938_mec,vmh1mty1dz,Trevor_EX2,1,38,2020-10-13T16:31:38-07:00,3.4702870845795,2,Pure_Unrelated.csv,SF_VersionB.csv,"Sans F B","Sans F B",CLUTTER,PUSHER,Study2,U,96,59,JOL,User,-,"How likely are you to correctly recall the second item in the pair?|Type your response on a scale from 0-100 and then press Enter.",Study/JOL,"Study Phase",2839,,,2410,2537,,,,50,1
w10046938_mec,vmh1mty1dz,Trevor_EX2,1,39,2020-10-13T16:31:41-07:00,2.7636239528656,2,Pure_Unrelated.csv,SF_VersionB.csv,"Sans F B","Sans F B",ADD,VALLEY,Study2,U,112,63,JOL,User,-,"How likely are you to correctly recall the second item in the pair?|Type your response on a scale from 0-100 and then press Enter.",Study/JOL,"Study Phase",2159,,,1460,1708,,,,10,1
w10046938_mec,vmh1mty1dz,Trevor_EX2,1,40,2020-10-13T16:31:53-07:00,12.141638994217,2,Pure_Unrelated.csv,SF_VersionB.csv,"Sans F B","Sans F B",PUT,ROLL,Study2,U,163,90,JOL_SF,User,-,"How likely are you to correctly recall the second item in the pair?|Type your response on a scale from 0-100 and then press Enter.",Study/JOL,"Study Phase",11480,,,9683,10083,,,,79,1
w10046938_mec,vmh1mty1dz,Trevor_EX2,1,41,2020-10-13T16:31:56-07:00,3.1128749847412,2,Pure_Unrelated.csv,SF_VersionB.csv,"Sans F B","Sans F B",PUFF,NUMBER,Study2,U,171,64,JOL,User,-,"How likely are you to correctly recall the second item in the pair?|Type your response on a scale from 0-100 and then press Enter.",Study/JOL,"Study Phase",2445,,,1591,1939,,,,69,1
w10046938_mec,vmh1mty1dz,Trevor_EX2,1,42,2020-10-13T16:32:14-07:00,17.990702152252,2,Pure_Unrelated.csv,SF_VersionB.csv,"Sans F B","Sans F B",SLIM,KNOW,Study2,U,164,88,JOL_SF,User,-,"How likely are you to correctly recall the second item in the pair?|Type your response on a scale from 0-100 and then press Enter.",Study/JOL,"Study Phase",17377,,,16690,16959,,,,20,0.796
w10046938_mec,vmh1mty1dz,Trevor_EX2,1,43,2020-10-13T16:32:17-07:00,3.3259088993073,2,Pure_Unrelated.csv,SF_VersionB.csv,"Sans F B","Sans F B",CLUTTER,PUSHER,Study2,U,96,59,JOL,User,-,"How likely are you to correctly recall the second item in the pair?|Type your response on a scale from 0-100 and then press Enter.",Study/JOL,"Study Phase",2331,,,1800,1940,,,,50,1
w10046938_mec,vmh1mty1dz,Trevor_EX2,1,44,2020-10-13T16:32:21-07:00,3.3164789676666,2,Pure_Unrelated.csv,SF_VersionB.csv,"Sans F B","Sans F B",HAND,FIX,Study2,U,105,77,JOL_SF,User,-,"How likely are you to correctly recall the second item in the pair?|Type your response on a scale from 0-100 and then press Enter.",Study/JOL,"Study Phase",2706,,,2371,2536,,,,99,1
w10046938_mec,vmh1mty1dz,Trevor_EX2,1,45,2020-10-13T16:32:23-07:00,2.258141040802,2,Pure_Unrelated.csv,SF_VersionB.csv,"Sans F B","Sans F B",SPELL,BONE,Study2,U,174,89,JOL_SF,User,-,"How likely are you to correctly recall the second item in the pair?|Type your response on a scale from 0-100 and then press Enter.",Study/JOL,"Study Phase",1633,,,1153,1356,,,,67,1
w10046938_mec,vmh1mty1dz,Trevor_EX2,1,46,2020-10-13T16:32:24-07:00,1.40589594841,2,Pure_Unrelated.csv,SF_VersionB.csv,"Sans F B","Sans F B",SIGHT,DEBATE,Study2,U,103,78,JOL_SF,User,-,"How likely are you to correctly recall the second item in the pair?|Type your response on a scale from 0-100 and then press Enter.",Study/JOL,"Study Phase",772,,,423,513,,,,65,1
w10046938_mec,vmh1mty1dz,Trevor_EX2,1,47,2020-10-13T16:32:26-07:00,1.4784190654755,2,Pure_Unrelated.csv,SF_VersionB.csv,"Sans F B","Sans F B",CAR,HAPPY,Study2,U,107,83,JOL_SF,User,-,"How likely are you to correctly recall the second item in the pair?|Type your response on a scale from 0-100 and then press Enter.",Study/JOL,"Study Phase",752,,,283,338,,,,63,1
w10046938_mec,vmh1mty1dz,Trevor_EX2,1,48,2020-10-13T16:32:27-07:00,1.4402990341187,2,Pure_Unrelated.csv,SF_VersionB.csv,"Sans F B","Sans F B",SICK,HIDE,Study2,U,114,62,JOL,User,-,"How likely are you to correctly recall the second item in the pair?|Type your response on a scale from 0-100 and then press Enter.",Study/JOL,"Study Phase",722,,,252,362,,,,24,1
w10046938_mec,vmh1mty1dz,Trevor_EX2,1,49,2020-10-13T16:32:29-07:00,1.8716170787811,2,Pure_Unrelated.csv,SF_VersionB.csv,"Sans F B","Sans F B",RIDDLE,SUGAR,Study2,U,111,70,JOL,User,-,"How likely are you to correctly recall the second item in the pair?|Type your response on a scale from 0-100 and then press Enter.",Study/JOL,"Study Phase",1168,,,144,144,,,,6,1
w10046938_mec,vmh1mty1dz,Trevor_EX2,1,50,2020-10-13T16:32:31-07:00,1.4904289245605,2,Pure_Unrelated.csv,SF_VersionB.csv,"Sans F B","Sans F B",POSITION,MACHINE,Study2,U,106,60,JOL,User,-,"How likely are you to correctly recall the second item in the pair?|Type your response on a scale from 0-100 and then press Enter.",Study/JOL,"Study Phase",821,,,245,288,,,,63,1
w10046938_mec,vmh1mty1dz,Trevor_EX2,1,51,2020-10-13T16:32:33-07:00,2.5863800048828,2,Pure_Unrelated.csv,SF_VersionB.csv,"Sans F B","Sans F B",MONTH,YEAR,BUFFER4,Buffer,177,100,JOL_SF,User,-,"How likely are you to correctly recall the second item in the pair?|Type your response on a scale from 0-100 and then press Enter.",Study/JOL,BUFFER2,1987,,,337,374,,,,56,1
w10046938_mec,vmh1mty1dz,Trevor_EX2,1,52,2020-10-13T16:32:37-07:00,3.5610730648041,2,Pure_Unrelated.csv,SF_VersionB.csv,"Sans F B","Sans F B",SPRING,MARCH,BUFFER4,Buffer,179,99,JOL_SF,User,-,"How likely are you to correctly recall the second item in the pair?|Type your response on a scale from 0-100 and then press Enter.",Study/JOL,BUFFER2,2944,,,394,2398,,,,100,1
w10046938_mec,vmh1mty1dz,Trevor_EX2,1,53,2020-10-13T16:32:39-07:00,2.3188948631287,2,Pure_Unrelated.csv,SF_VersionB.csv,"Sans F B","Sans F B",TOOL,SHED,BUFFER4,Buffer,178,101,JOL_SF,User,-,"How likely are you to correctly recall the second item in the pair?|Type your response on a scale from 0-100 and then press Enter.",Study/JOL,BUFFER2,1614,,,619,721,,,,34,1
w10046938_mec,vmh1mty1dz,Trevor_EX2,1,54,2020-10-13T16:32:42-07:00,2.6572949886322,2,Pure_Unrelated.csv,SF_VersionB.csv,"Sans F B","Sans F B",DAYS,WEEKS,BUFFER4,Buffer,176,97,JOL,User,-,"How likely are you to correctly recall the second item in the pair?|Type your response on a scale from 0-100 and then press Enter.",Study/JOL,BUFFER2,2082,,,1493,1744,,,,100,1
w10046938_mec,vmh1mty1dz,Trevor_EX2,1,55,2020-10-13T16:32:44-07:00,1.7579679489136,2,Pure_Unrelated.csv,SF_VersionB.csv,"Sans F B","Sans F B",OCTOBER,SPOOKY,BUFFER4,Buffer,180,98,JOL,User,-,"How likely are you to correctly recall the second item in the pair?|Type your response on a scale from 0-100 and then press Enter.",Study/JOL,BUFFER2,1229,,,692,982,,,,100,1
w10046938_mec,vmh1mty1dz,Trevor_EX2,1,56,2020-10-13T16:32:45-07:00,1.5019512176514,2,Pure_Unrelated.csv,SF_VersionB.csv,"Sans F B","Sans F B",,,,,,0,Instruct,User,-,"You have completed this section. Please press Enter.",Filler_Instruction,Instruct2,936,,,-1,-1,,,,,1
w10046938_mec,vmh1mty1dz,Trevor_EX2,1,57,2020-10-13T16:34:46-07:00,120.8557779789,2,Pure_Unrelated.csv,SF_VersionB.csv,"Sans F B","Sans F B",,,,,,0,FreeRecall,120,120,"Please list the 50 US states in alphabetical order. The task will automatically advance to the next screen after two minutes.",,Filler1,120011,"Alabama Alaska Arizona Arkansas California Colorado Connecticut Delaware Florida Georgia Hawaii Idaho Illinois Indiana Iowa Kansas Kentucky Louisiana Maine Maryland Massachusetts Michigan Minnesota Mississippi Missouri Montana Nebraska Nevada New Ha Oregon Washington",0,4819,119931,0,0,,,1
w10046938_mec,vmh1mty1dz,Trevor_EX2,1,58,2020-10-13T16:35:20-07:00,34.122366905212,2,Pure_Unrelated.csv,SF_VersionB.csv,"Sans F B","Sans F B",,,,,,0,Instruct,-,10,"You will now be presented with the first word from each of the previously studied item pairs. Please type the missing word. If you do not know the word, you may guess or press Enter to skip forward to the next pair.",,Instruct3,33406,,,-1,-1,,,,,1
w10046938_mec,vmh1mty1dz,Trevor_EX2,1,59,2020-10-13T16:35:29-07:00,9.0060589313507,2,Pure_Unrelated.csv,SF_VersionB.csv,"Sans F B","Sans F B",FLOOR,DISCOVER,Study2,U,101,66,Test,User,-,,Recall,Recall1,8249,,0,5586,6343,0,0,,,1
w10046938_mec,vmh1mty1dz,Trevor_EX2,1,60,2020-10-13T16:35:32-07:00,3.2568490505219,2,Pure_Unrelated.csv,SF_VersionB.csv,"Sans F B","Sans F B",BELT,SOON,Study2,U,100,67,Test,User,-,,Recall,Recall1,2701,Soon,100,1611,2158,1,1,,,1
w10046938_mec,vmh1mty1dz,Trevor_EX2,1,61,2020-10-13T16:35:35-07:00,2.3912811279297,2,Pure_Unrelated.csv,SF_VersionB.csv,"Sans F B","Sans F B",LION,ART,Study2,U,109,69,Test,User,-,,Recall,Recall1,1800,art,100,1193,1648,1,1,,,1
w10046938_mec,vmh1mty1dz,Trevor_EX2,1,62,2020-10-13T16:35:37-07:00,1.9137628078461,2,Pure_Unrelated.csv,SF_VersionB.csv,"Sans F B","Sans F B",ROAD,SCENT,Study2,U,166,96,Test,User,-,,Recall,Recall1,1293,,0,-1,-1,0,0,,,1
w10046938_mec,vmh1mty1dz,Trevor_EX2,1,63,2020-10-13T16:35:38-07:00,1.6939430236816,2,Pure_Unrelated.csv,SF_VersionB.csv,"Sans F B","Sans F B",WOMAN,LIFT,Study2,U,99,65,Test,User,-,,Recall,Recall1,914,,0,-1,-1,0,0,,,1
w10046938_mec,vmh1mty1dz,Trevor_EX2,1,64,2020-10-13T16:35:40-07:00,1.5962250232697,2,Pure_Unrelated.csv,SF_VersionB.csv,"Sans F B","Sans F B",HUNGRY,PARK,Study2,U,98,74,Test,User,-,,Recall,Recall1,928,,0,-1,-1,0,0,,,1
w10046938_mec,vmh1mty1dz,Trevor_EX2,1,65,2020-10-13T16:35:42-07:00,2.1099460124969,2,Pure_Unrelated.csv,SF_VersionB.csv,"Sans F B","Sans F B",SPELL,BONE,Study2,U,174,89,Test,User,-,,Recall,Recall1,1587,,0,-1,-1,0,0,,,1
w10046938_mec,vmh1mty1dz,Trevor_EX2,1,66,2020-10-13T16:35:45-07:00,2.5616009235382,2,Pure_Unrelated.csv,SF_VersionB.csv,"Sans F B","Sans F B",PUFF,NUMBER,Study2,U,171,64,Test,User,-,,Recall,Recall1,1938,,0,-1,-1,0,0,,,1
w10046938_mec,vmh1mty1dz,Trevor_EX2,1,67,2020-10-13T16:35:46-07:00,1.3687880039215,2,Pure_Unrelated.csv,SF_VersionB.csv,"Sans F B","Sans F B",POSITION,MACHINE,Study2,U,106,60,Test,User,-,,Recall,Recall1,763,,0,-1,-1,0,0,,,1
w10046938_mec,vmh1mty1dz,Trevor_EX2,1,68,2020-10-13T16:35:52-07:00,6.5196821689606,2,Pure_Unrelated.csv,SF_VersionB.csv,"Sans F B","Sans F B",NULL,COUGH,Study2,U,156,73,Test,User,-,,Recall,Recall1,5908,,0,-1,-1,0,0,,,0.133
w10046938_mec,vmh1mty1dz,Trevor_EX2,1,69,2020-10-13T16:35:54-07:00,1.4741048812866,2,Pure_Unrelated.csv,SF_VersionB.csv,"Sans F B","Sans F B",SLIM,KNOW,Study2,U,164,88,Test,User,-,,Recall,Recall1,849,,0,-1,-1,0,0,,,1
w10046938_mec,vmh1mty1dz,Trevor_EX2,1,70,2020-10-13T16:35:55-07:00,1.5109231472015,2,Pure_Unrelated.csv,SF_VersionB.csv,"Sans F B","Sans F B",RIDDLE,SUGAR,Study2,U,111,70,Test,User,-,,Recall,Recall1,807,,0,-1,-1,0,0,,,1
w10046938_mec,vmh1mty1dz,Trevor_EX2,1,71,2020-10-13T16:35:57-07:00,1.2257318496704,2,Pure_Unrelated.csv,SF_VersionB.csv,"Sans F B","Sans F B",WASTE,SEDATE,Study2,U,165,86,Test,User,-,,Recall,Recall1,661,,0,-1,-1,0,0,,,1
w10046938_mec,vmh1mty1dz,Trevor_EX2,1,72,2020-10-13T16:35:58-07:00,1.6200320720673,2,Pure_Unrelated.csv,SF_VersionB.csv,"Sans F B","Sans F B",SWING,FOG,Study2,U,175,79,Test,User,-,,Recall,Recall1,986,,0,-1,-1,0,0,,,1
w10046938_mec,vmh1mty1dz,Trevor_EX2,1,73,2020-10-13T16:36:00-07:00,1.2848980426788,2,Pure_Unrelated.csv,SF_VersionB.csv,"Sans F B","Sans F B",SICK,HIDE,Study2,U,114,62,Test,User,-,,Recall,Recall1,703,,0,-1,-1,0,0,,,1
w10046938_mec,vmh1mty1dz,Trevor_EX2,1,74,2020-10-13T16:36:01-07:00,1.2843840122223,2,Pure_Unrelated.csv,SF_VersionB.csv,"Sans F B","Sans F B",ACCIDENT,STRONG,Study2,U,110,80,Test,User,-,,Recall,Recall1,713,,0,-1,-1,0,0,,,1
w10046938_mec,vmh1mty1dz,Trevor_EX2,1,75,2020-10-13T16:36:02-07:00,1.3949480056763,2,Pure_Unrelated.csv,SF_VersionB.csv,"Sans F B","Sans F B",ZOO,THUMB,Study2,U,168,75,Test,User,-,,Recall,Recall1,785,,0,-1,-1,0,0,,,1
w10046938_mec,vmh1mty1dz,Trevor_EX2,1,76,2020-10-13T16:36:03-07:00,1.1952829360962,2,Pure_Unrelated.csv,SF_VersionB.csv,"Sans F B","Sans F B",SYSTEM,LICK,Study2,U,167,92,Test,User,-,,Recall,Recall1,640,,0,-1,-1,0,0,,,1
w10046938_mec,vmh1mty1dz,Trevor_EX2,1,77,2020-10-13T16:36:05-07:00,1.3001689910889,2,Pure_Unrelated.csv,SF_VersionB.csv,"Sans F B","Sans F B",GUARD,WHEEL,Study2,U,170,82,Test,User,-,,Recall,Recall1,554,,0,-1,-1,0,0,,,1
w10046938_mec,vmh1mty1dz,Trevor_EX2,1,78,2020-10-13T16:36:06-07:00,1.2025399208069,2,Pure_Unrelated.csv,SF_VersionB.csv,"Sans F B","Sans F B",SMOOTH,OMIT,Study2,U,157,91,Test,User,-,,Recall,Recall1,613,,0,-1,-1,0,0,,,1
w10046938_mec,vmh1mty1dz,Trevor_EX2,1,79,2020-10-13T16:36:07-07:00,1.1621360778809,2,Pure_Unrelated.csv,SF_VersionB.csv,"Sans F B","Sans F B",Business,Death,Study2,U,102,81,Test,User,-,,Recall,Recall1,541,,0,-1,-1,0,0,,,1
w10046938_mec,vmh1mty1dz,Trevor_EX2,1,80,2020-10-13T16:36:12-07:00,5.0003039836884,2,Pure_Unrelated.csv,SF_VersionB.csv,"Sans F B","Sans F B",LAKE,OPINION,Study2,U,160,85,Test,User,-,,Recall,Recall1,4402,opinion,100,2570,3998,1,1,,,1
w10046938_mec,vmh1mty1dz,Trevor_EX2,1,81,2020-10-13T16:36:19-07:00,6.5107231140137,2,Pure_Unrelated.csv,SF_VersionB.csv,"Sans F B","Sans F B",BRONZE,ARTERY,Study2,U,104,68,Test,User,-,,Recall,Recall1,5955,,0,-1,-1,0,0,,,1
w10046938_mec,vmh1mty1dz,Trevor_EX2,1,82,2020-10-13T16:36:20-07:00,1.2605268955231,2,Pure_Unrelated.csv,SF_VersionB.csv,"Sans F B","Sans F B",WOULD,CASH,Study2,U,113,57,Test,User,-,,Recall,Recall1,561,,0,-1,-1,0,0,,,1
w10046938_mec,vmh1mty1dz,Trevor_EX2,1,83,2020-10-13T16:36:21-07:00,1.1249530315399,2,Pure_Unrelated.csv,SF_VersionB.csv,"Sans F B","Sans F B",ADD,VALLEY,Study2,U,112,63,Test,User,-,,Recall,Recall1,540,,0,-1,-1,0,0,,,1
w10046938_mec,vmh1mty1dz,Trevor_EX2,1,84,2020-10-13T16:36:22-07:00,1.1746499538422,2,Pure_Unrelated.csv,SF_VersionB.csv,"Sans F B","Sans F B",VASE,KING,Study2,U,115,94,Test,User,-,,Recall,Recall1,556,,0,-1,-1,0,0,,,1
w10046938_mec,vmh1mty1dz,Trevor_EX2,1,85,2020-10-13T16:36:23-07:00,1.2777600288391,2,Pure_Unrelated.csv,SF_VersionB.csv,"Sans F B","Sans F B",STOMACH,TOWN,Study2,U,159,61,Test,User,-,,Recall,Recall1,651,,0,-1,-1,0,0,,,1
w10046938_mec,vmh1mty1dz,Trevor_EX2,1,86,2020-10-13T16:36:25-07:00,1.2066628932953,2,Pure_Unrelated.csv,SF_VersionB.csv,"Sans F B","Sans F B",CLUTTER,PUSHER,Study2,U,96,59,Test,User,-,,Recall,Recall1,508,,0,-1,-1,0,0,,,1
w10046938_mec,vmh1mty1dz,Trevor_EX2,1,87,2020-10-13T16:36:26-07:00,1.3434171676636,2,Pure_Unrelated.csv,SF_VersionB.csv,"Sans F B","Sans F B",FLOAT,HARMONY,Study2,U,161,95,Test,User,-,,Recall,Recall1,675,,0,-1,-1,0,0,,,1
w10046938_mec,vmh1mty1dz,Trevor_EX2,1,88,2020-10-13T16:36:27-07:00,1.3052718639374,2,Pure_Unrelated.csv,SF_VersionB.csv,"Sans F B","Sans F B",READY,CORN,Study2,U,158,84,Test,User,-,,Recall,Recall1,666,,0,-1,-1,0,0,,,1
w10046938_mec,vmh1mty1dz,Trevor_EX2,1,89,2020-10-13T16:36:28-07:00,1.1398100852966,2,Pure_Unrelated.csv,SF_VersionB.csv,"Sans F B","Sans F B",DETECT,FREE,Study2,U,162,76,Test,User,-,,Recall,Recall1,577,,0,-1,-1,0,0,,,1
w10046938_mec,vmh1mty1dz,Trevor_EX2,1,90,2020-10-13T16:36:40-07:00,11.404677867889,2,Pure_Unrelated.csv,SF_VersionB.csv,"Sans F B","Sans F B",DESIRE,NOISE,Study2,U,169,71,Test,User,-,,Recall,Recall1,10653,noise,100,1743,6830,1,1,,,1
w10046938_mec,vmh1mty1dz,Trevor_EX2,1,91,2020-10-13T16:36:43-07:00,3.6051549911499,2,Pure_Unrelated.csv,SF_VersionB.csv,"Sans F B","Sans F B",TUCK,ALLOW,Study2,U,108,87,Test,User,-,,Recall,Recall1,2452,,0,-1,-1,0,0,,,1
w10046938_mec,vmh1mty1dz,Trevor_EX2,1,92,2020-10-13T16:36:56-07:00,12.537708044052,2,Pure_Unrelated.csv,SF_VersionB.csv,"Sans F B","Sans F B",CLUTTER,PUSHER,Study2,U,96,59,Test,User,-,,Recall,Recall1,11791,"pusher\",92.307692307692,2493,11501,0,1,,,1
w10046938_mec,vmh1mty1dz,Trevor_EX2,1,93,2020-10-13T16:36:58-07:00,2.2402830123901,2,Pure_Unrelated.csv,SF_VersionB.csv,"Sans F B","Sans F B",SIGHT,DEBATE,Study2,U,103,78,Test,User,-,,Recall,Recall1,1347,,0,-1,-1,0,0,,,1
w10046938_mec,vmh1mty1dz,Trevor_EX2,1,94,2020-10-13T16:36:59-07:00,1.0083811283112,2,Pure_Unrelated.csv,SF_VersionB.csv,"Sans F B","Sans F B",MUTE,WAVE,Study2,U,173,93,Test,User,-,,Recall,Recall1,1347,,0,-1,-1,0,0,,,1
w10046938_mec,vmh1mty1dz,Trevor_EX2,1,95,2020-10-13T16:37:01-07:00,1.5969939231873,2,Pure_Unrelated.csv,SF_VersionB.csv,"Sans F B","Sans F B",CAR,HAPPY,Study2,U,107,83,Test,User,-,,Recall,Recall1,928,,0,-1,-1,0,0,,,1
w10046938_mec,vmh1mty1dz,Trevor_EX2,1,96,2020-10-13T16:37:02-07:00,1.2633221149445,2,Pure_Unrelated.csv,SF_VersionB.csv,"Sans F B","Sans F B",PUT,ROLL,Study2,U,163,90,Test,User,-,,Recall,Recall1,580,,0,-1,-1,0,0,,,1
w10046938_mec,vmh1mty1dz,Trevor_EX2,1,97,2020-10-13T16:37:05-07:00,3.0305228233337,2,Pure_Unrelated.csv,SF_VersionB.csv,"Sans F B","Sans F B",HAND,FIX,Study2,U,105,77,Test,User,-,,Recall,Recall1,2419,fix,100,1806,2099,1,1,,,1
w10046938_mec,vmh1mty1dz,Trevor_EX2,1,98,2020-10-13T16:37:07-07:00,2.0024201869965,2,Pure_Unrelated.csv,SF_VersionB.csv,"Sans F B","Sans F B",JELLY,NAUGHTY,Study2,U,172,72,Test,User,-,,Recall,Recall1,1353,,0,-1,-1,0,0,,,1
w10046938_mec,vmh1mty1dz,Trevor_EX2,1,99,2020-10-13T16:37:49-07:00,41.508190870285,2,Pure_Unrelated.csv,SF_VersionB.csv,"Sans F B","Sans F B",,,,,,0,Instruct,-,10,"You will now be presented with a new set of word pairs. Please study each pair. Remember that your memory will be tested! When finished, press Enter to move to the next pair.",Initial_Instruct,Instruct4,40674,,,-1,-1,,,,,1
w10046938_mec,vmh1mty1dz,Trevor_EX2,1,100,2020-10-13T16:38:04-07:00,15.010339021683,2,Pure_Unrelated.csv,SF_VersionB.csv,"Sans F B","Sans F B",,,,,,0,Instruct,,10,"You will again be asked to rate your ability to remember these items using a 0 to 100 scale. Remember to use the full range of the scale!",,Instruct10,14064,,,-1,-1,,,,,1
w10046938_mec,vmh1mty1dz,Trevor_EX2,1,101,2020-10-13T16:38:14-07:00,10.2032558918,2,Pure_Unrelated.csv,SF_VersionB.csv,"Sans F B","Sans F B",,,,,,0,Instruct,User,-,"Press Enter when you are readty to begin",,Instruct11,9431,,,-1,-1,,,,,1
w10046938_mec,vmh1mty1dz,Trevor_EX2,1,102,2020-10-13T16:38:18-07:00,4.1971311569214,2,Pure_Unrelated.csv,SF_VersionB.csv,"Sans F B","Sans F B",TREES,GREEN,BUFFER1,Buffer,1,2,JOL,User,-,"How likely are you to correctly recall the second item in the pair?|Type your response on a scale from 0-100 and then press Enter.",Study/JOL,BUFFER3,3273,,,2621,3030,,,,100,1
w10046938_mec,vmh1mty1dz,Trevor_EX2,1,103,2020-10-13T16:38:21-07:00,3.2184228897095,2,Pure_Unrelated.csv,SF_VersionB.csv,"Sans F B","Sans F B",SPACE,JAM,BUFFER1,Buffer,5,6,JOL,User,-,"How likely are you to correctly recall the second item in the pair?|Type your response on a scale from 0-100 and then press Enter.",Study/JOL,BUFFER3,2568,,,2076,2299,,,,100,1
w10046938_mec,vmh1mty1dz,Trevor_EX2,1,104,2020-10-13T16:38:25-07:00,3.6859381198883,2,Pure_Unrelated.csv,SF_VersionB.csv,"Sans F B","Sans F B",SCARE,HIDE,BUFFER1,Buffer,4,5,JOL_SF,User,-,"How likely are you to correctly recall the second item in the pair?|Type your response on a scale from 0-100 and then press Enter.",Study/JOL,BUFFER3,3034,,,2593,2745,,,,99,1
w10046938_mec,vmh1mty1dz,Trevor_EX2,1,105,2020-10-13T16:38:29-07:00,4.27401304245,2,Pure_Unrelated.csv,SF_VersionB.csv,"Sans F B","Sans F B",BASEBALL,CATCHER,BUFFER1,Buffer,2,3,JOL,User,-,"How likely are you to correctly recall the second item in the pair?|Type your response on a scale from 0-100 and then press Enter.",Study/JOL,BUFFER3,3637,,,3075,3228,,,,90,1
w10046938_mec,vmh1mty1dz,Trevor_EX2,1,106,2020-10-13T16:38:33-07:00,3.5447149276733,2,Pure_Unrelated.csv,SF_VersionB.csv,"Sans F B","Sans F B",PEANUT,BUTTER,BUFFER1,Buffer,3,4,JOL_SF,User,-,"How likely are you to correctly recall the second item in the pair?|Type your response on a scale from 0-100 and then press Enter.",Study/JOL,BUFFER3,2641,,,1654,1855,,,,100,1
w10046938_mec,vmh1mty1dz,Trevor_EX2,1,107,2020-10-13T16:38:36-07:00,3.4502508640289,2,Pure_Unrelated.csv,SF_VersionB.csv,"Sans F B","Sans F B",LOAN,SIGN,Study1,U,21,12,JOL,User,-,"How likely are you to correctly recall the second item in the pair?|Type your response on a scale from 0-100 and then press Enter.",Study/JOL,"Study Phase2",2756,,,2205,2295,,,,50,1
w10046938_mec,vmh1mty1dz,Trevor_EX2,1,108,2020-10-13T16:38:38-07:00,2.217609167099,2,Pure_Unrelated.csv,SF_VersionB.csv,"Sans F B","Sans F B",MEAT,OBTAIN,Study1,U,11,8,JOL,User,-,"How likely are you to correctly recall the second item in the pair?|Type your response on a scale from 0-100 and then press Enter.",Study/JOL,"Study Phase2",1342,,,918,931,,,,32,1
w10046938_mec,vmh1mty1dz,Trevor_EX2,1,109,2020-10-13T16:38:40-07:00,1.9691209793091,2,Pure_Unrelated.csv,SF_VersionB.csv,"Sans F B","Sans F B",MIRROR,CHILDREN,Study1,U,24,11,JOL,User,-,"How likely are you to correctly recall the second item in the pair?|Type your response on a scale from 0-100 and then press Enter.",Study/JOL,"Study Phase2",1326,,,954,973,,,,34,1
w10046938_mec,vmh1mty1dz,Trevor_EX2,1,110,2020-10-13T16:38:42-07:00,1.9867720603943,2,Pure_Unrelated.csv,SF_VersionB.csv,"Sans F B","Sans F B",ROSE,NEGLECT,Study1,U,82,10,JOL,User,-,"How likely are you to correctly recall the second item in the pair?|Type your response on a scale from 0-100 and then press Enter.",Study/JOL,"Study Phase2",1318,,,768,774,,,,23,1
w10046938_mec,vmh1mty1dz,Trevor_EX2,1,111,2020-10-13T16:38:44-07:00,1.7701609134674,2,Pure_Unrelated.csv,SF_VersionB.csv,"Sans F B","Sans F B",RIPE,VERIFY,Study1,U,83,45,JOL_SF,User,-,"How likely are you to correctly recall the second item in the pair?|Type your response on a scale from 0-100 and then press Enter.",Study/JOL,"Study Phase2",1082,,,675,690,,,,43,1
w10046938_mec,vmh1mty1dz,Trevor_EX2,1,112,2020-10-13T16:38:46-07:00,2.2604370117188,2,Pure_Unrelated.csv,SF_VersionB.csv,"Sans F B","Sans F B",INFLATE,DISGUST,Study1,U,76,38,JOL_SF,User,-,"How likely are you to correctly recall the second item in the pair?|Type your response on a scale from 0-100 and then press Enter.",Study/JOL,"Study Phase2",1530,,,628,1103,,,,23,1
w10046938_mec,vmh1mty1dz,Trevor_EX2,1,113,2020-10-13T16:38:49-07:00,2.3150339126587,2,Pure_Unrelated.csv,SF_VersionB.csv,"Sans F B","Sans F B",LISTEN,FICTION,Study1,U,14,21,JOL,User,-,"How likely are you to correctly recall the second item in the pair?|Type your response on a scale from 0-100 and then press Enter.",Study/JOL,"Study Phase2",1604,,,1239,1248,,,,24,1
w10046938_mec,vmh1mty1dz,Trevor_EX2,1,114,2020-10-13T16:38:50-07:00,1.6897261142731,2,Pure_Unrelated.csv,SF_VersionB.csv,"Sans F B","Sans F B",GIVE,STEAK,Study1,U,8,36,JOL_SF,User,-,"How likely are you to correctly recall the second item in the pair?|Type your response on a scale from 0-100 and then press Enter.",Study/JOL,"Study Phase2",1025,,,703,718,,,,53,1
w10046938_mec,vmh1mty1dz,Trevor_EX2,1,115,2020-10-13T16:38:52-07:00,1.7617158889771,2,Pure_Unrelated.csv,SF_VersionB.csv,"Sans F B","Sans F B",WARN,SEA,Study1,U,80,7,JOL,User,-,"How likely are you to correctly recall the second item in the pair?|Type your response on a scale from 0-100 and then press Enter.",Study/JOL,"Study Phase2",1003,,,697,707,,,,42,1
w10046938_mec,vmh1mty1dz,Trevor_EX2,1,116,2020-10-13T16:38:54-07:00,1.9032590389252,2,Pure_Unrelated.csv,SF_VersionB.csv,"Sans F B","Sans F B",NAME,HATE,Study1,U,17,37,JOL_SF,User,-,"How likely are you to correctly recall the second item in the pair?|Type your response on a scale from 0-100 and then press Enter.",Study/JOL,"Study Phase2",1261,,,949,971,,,,53,1
w10046938_mec,vmh1mty1dz,Trevor_EX2,1,117,2020-10-13T16:38:57-07:00,2.5326170921326,2,Pure_Unrelated.csv,SF_VersionB.csv,"Sans F B","Sans F B",PET,MOON,Study1,U,74,31,JOL_SF,User,-,"How likely are you to correctly recall the second item in the pair?|Type your response on a scale from 0-100 and then press Enter.",Study/JOL,"Study Phase2",1665,,,767,1354,,,,32,1
w10046938_mec,vmh1mty1dz,Trevor_EX2,1,118,2020-10-13T16:38:59-07:00,1.8762269020081,2,Pure_Unrelated.csv,SF_VersionB.csv,"Sans F B","Sans F B",DIFFICULT,POOR,Study1,U,81,34,JOL_SF,User,-,"How likely are you to correctly recall the second item in the pair?|Type your response on a scale from 0-100 and then press Enter.",Study/JOL,"Study Phase2",1158,,,682,690,,,,43,1
w10046938_mec,vmh1mty1dz,Trevor_EX2,1,119,2020-10-13T16:39:00-07:00,1.4818050861359,2,Pure_Unrelated.csv,SF_VersionB.csv,"Sans F B","Sans F B",SHELL,SHAKE,Study1,U,13,46,JOL_SF,User,-,"How likely are you to correctly recall the second item in the pair?|Type your response on a scale from 0-100 and then press Enter.",Study/JOL,"Study Phase2",908,,,616,639,,,,32,1
w10046938_mec,vmh1mty1dz,Trevor_EX2,1,120,2020-10-13T16:39:02-07:00,1.8798849582672,2,Pure_Unrelated.csv,SF_VersionB.csv,"Sans F B","Sans F B",NUMBER,HARD,Study1,U,78,30,JOL_SF,User,-,"How likely are you to correctly recall the second item in the pair?|Type your response on a scale from 0-100 and then press Enter.",Study/JOL,"Study Phase2",1058,,,747,749,,,,4,1
w10046938_mec,vmh1mty1dz,Trevor_EX2,1,121,2020-10-13T16:39:04-07:00,1.9517970085144,2,Pure_Unrelated.csv,SF_VersionB.csv,"Sans F B","Sans F B",TAX,OWL,Study1,U,72,13,JOL,User,-,"How likely are you to correctly recall the second item in the pair?|Type your response on a scale from 0-100 and then press Enter.",Study/JOL,"Study Phase2",1130,,,684,697,,,,43,1
w10046938_mec,vmh1mty1dz,Trevor_EX2,1,122,2020-10-13T16:39:06-07:00,2.1946840286255,2,Pure_Unrelated.csv,SF_VersionB.csv,"Sans F B","Sans F B",DONKEY,LUSH,Study1,U,84,18,JOL,User,-,"How likely are you to correctly recall the second item in the pair?|Type your response on a scale from 0-100 and then press Enter.",Study/JOL,"Study Phase2",1052,,,559,568,,,,43,1
w10046938_mec,vmh1mty1dz,Trevor_EX2,1,123,2020-10-13T16:39:07-07:00,1.0021469593048,2,Pure_Unrelated.csv,SF_VersionB.csv,"Sans F B","Sans F B",BAT,SHAKY,Study1,U,66,22,JOL,User,-,,Study/JOL,"Study Phase2",1052,,,559,568,,,,43,1
w10046938_mec,vmh1mty1dz,Trevor_EX2,1,124,2020-10-13T16:39:09-07:00,1.9262418746948,2,Pure_Unrelated.csv,SF_VersionB.csv,"Sans F B","Sans F B",GRIND,STAND,Study1,U,85,43,JOL_SF,User,-,"How likely are you to correctly recall the second item in the pair?|Type your response on a scale from 0-100 and then press Enter.",Study/JOL,"Study Phase2",1073,,,621,638,,,,54,1
w10046938_mec,vmh1mty1dz,Trevor_EX2,1,125,2020-10-13T16:39:28-07:00,18.582952022552,2,Pure_Unrelated.csv,SF_VersionB.csv,"Sans F B","Sans F B",CRAYON,RATE,Study1,U,79,44,JOL_SF,User,-,"How likely are you to correctly recall the second item in the pair?|Type your response on a scale from 0-100 and then press Enter.",Study/JOL,"Study Phase2",17975,,,17695,17706,,,,65,1
w10046938_mec,vmh1mty1dz,Trevor_EX2,1,126,2020-10-13T16:39:29-07:00,1.83513712883,2,Pure_Unrelated.csv,SF_VersionB.csv,"Sans F B","Sans F B",TEMPERATURE,MORNING,Study1,U,23,40,JOL_SF,User,-,"How likely are you to correctly recall the second item in the pair?|Type your response on a scale from 0-100 and then press Enter.",Study/JOL,"Study Phase2",1099,,,667,677,,,,54,1
w10046938_mec,vmh1mty1dz,Trevor_EX2,1,127,2020-10-13T16:39:31-07:00,1.6295340061188,2,Pure_Unrelated.csv,SF_VersionB.csv,"Sans F B","Sans F B",STRESS,YAM,Study1,U,68,23,JOL,User,-,"How likely are you to correctly recall the second item in the pair?|Type your response on a scale from 0-100 and then press Enter.",Study/JOL,"Study Phase2",1013,,,543,595,,,,34,1
w10046938_mec,vmh1mty1dz,Trevor_EX2,1,128,2020-10-13T16:39:32-07:00,1.4060609340668,2,Pure_Unrelated.csv,SF_VersionB.csv,"Sans F B","Sans F B",STRETCH,CLOTH,Study1,U,7,27,JOL_SF,User,-,"How likely are you to correctly recall the second item in the pair?|Type your response on a scale from 0-100 and then press Enter.",Study/JOL,"Study Phase2",851,,,496,512,,,,54,1
w10046938_mec,vmh1mty1dz,Trevor_EX2,1,129,2020-10-13T16:39:43-07:00,10.924292087555,2,Pure_Unrelated.csv,SF_VersionB.csv,"Sans F B","Sans F B",BROAD,INFECT,Study1,U,75,32,JOL_SF,User,-,"How likely are you to correctly recall the second item in the pair?|Type your response on a scale from 0-100 and then press Enter.",Study/JOL,"Study Phase2",10326,,,8894,9362,,,,43,1
w10046938_mec,vmh1mty1dz,Trevor_EX2,1,130,2020-10-13T16:39:46-07:00,2.7697558403015,2,Pure_Unrelated.csv,SF_VersionB.csv,"Sans F B","Sans F B",MAZE,ELECTION,Study1,U,9,33,JOL_SF,User,-,"How likely are you to correctly recall the second item in the pair?|Type your response on a scale from 0-100 and then press Enter.",Study/JOL,"Study Phase2",2122,,,1424,1473,,,,43,1
w10046938_mec,vmh1mty1dz,Trevor_EX2,1,131,2020-10-13T16:39:49-07:00,3.0994679927826,2,Pure_Unrelated.csv,SF_VersionB.csv,"Sans F B","Sans F B",JUSTICE,MAROON,Study1,U,6,20,JOL,User,-,"How likely are you to correctly recall the second item in the pair?|Type your response on a scale from 0-100 and then press Enter.",Study/JOL,"Study Phase2",2495,,,1871,2029,,,,64,1
w10046938_mec,vmh1mty1dz,Trevor_EX2,1,132,2020-10-13T16:39:51-07:00,1.947300195694,2,Pure_Unrelated.csv,SF_VersionB.csv,"Sans F B","Sans F B",MOAT,CLEAR,Study1,U,19,14,JOL,User,-,"How likely are you to correctly recall the second item in the pair?|Type your response on a scale from 0-100 and then press Enter.",Study/JOL,"Study Phase2",1340,,,828,873,,,,45,1
w10046938_mec,vmh1mty1dz,Trevor_EX2,1,133,2020-10-13T16:39:56-07:00,4.4441339969635,2,Pure_Unrelated.csv,SF_VersionB.csv,"Sans F B","Sans F B",CAKE,CLOTHES,Study1,U,16,25,JOL,User,-,"How likely are you to correctly recall the second item in the pair?|Type your response on a scale from 0-100 and then press Enter.",Study/JOL,"Study Phase2",3705,,,3101,3119,,,,64,1
w10046938_mec,vmh1mty1dz,Trevor_EX2,1,134,2020-10-13T16:40:00-07:00,4.1093637943268,2,Pure_Unrelated.csv,SF_VersionB.csv,"Sans F B","Sans F B",DEGREE,CHAIR,Study1,U,71,15,JOL,User,-,"How likely are you to correctly recall the second item in the pair?|Type your response on a scale from 0-100 and then press Enter.",Study/JOL,"Study Phase2",3475,,,2972,2981,,,,63,1
w10046938_mec,vmh1mty1dz,Trevor_EX2,1,135,2020-10-13T16:40:01-07:00,1.3945569992065,2,Pure_Unrelated.csv,SF_VersionB.csv,"Sans F B","Sans F B",PARCEL,THROAT,Study1,U,67,35,JOL_SF,User,-,"How likely are you to correctly recall the second item in the pair?|Type your response on a scale from 0-100 and then press Enter.",Study/JOL,"Study Phase2",770,,,333,384,,,,65,1
w10046938_mec,vmh1mty1dz,Trevor_EX2,1,136,2020-10-13T16:40:03-07:00,1.4669442176819,2,Pure_Unrelated.csv,SF_VersionB.csv,"Sans F B","Sans F B",CRACKLE,ABLE,Study1,U,12,19,JOL,User,-,"How likely are you to correctly recall the second item in the pair?|Type your response on a scale from 0-100 and then press Enter.",Study/JOL,"Study Phase2",862,,,404,447,,,,35,1
w10046938_mec,vmh1mty1dz,Trevor_EX2,1,137,2020-10-13T16:40:08-07:00,5.7083938121796,2,Pure_Unrelated.csv,SF_VersionB.csv,"Sans F B","Sans F B",RESIST,GLUE,Study1,U,69,29,JOL_SF,User,-,"How likely are you to correctly recall the second item in the pair?|Type your response on a scale from 0-100 and then press Enter.",Study/JOL,"Study Phase2",5057,,,4469,4515,,,,45,1
w10046938_mec,vmh1mty1dz,Trevor_EX2,1,138,2020-10-13T16:40:10-07:00,1.8212561607361,2,Pure_Unrelated.csv,SF_VersionB.csv,"Sans F B","Sans F B",FUZZY,BANG,Study1,U,18,42,JOL_SF,User,-,"How likely are you to correctly recall the second item in the pair?|Type your response on a scale from 0-100 and then press Enter.",Study/JOL,"Study Phase2",1109,,,727,756,,,,54,1
w10046938_mec,vmh1mty1dz,Trevor_EX2,1,139,2020-10-13T16:40:12-07:00,1.4544458389282,2,Pure_Unrelated.csv,SF_VersionB.csv,"Sans F B","Sans F B",KEYS,JOKE,Study1,U,15,28,JOL_SF,User,-,"How likely are you to correctly recall the second item in the pair?|Type your response on a scale from 0-100 and then press Enter.",Study/JOL,"Study Phase2",742,,,357,416,,,,43,1
w10046938_mec,vmh1mty1dz,Trevor_EX2,1,140,2020-10-13T16:40:14-07:00,2.3353691101074,2,Pure_Unrelated.csv,SF_VersionB.csv,"Sans F B","Sans F B",FUTURE,SINCERE,Study1,U,70,16,JOL,User,-,"How likely are you to correctly recall the second item in the pair?|Type your response on a scale from 0-100 and then press Enter.",Study/JOL,"Study Phase2",1662,,,747,802,,,,54,1
w10046938_mec,vmh1mty1dz,Trevor_EX2,1,141,2020-10-13T16:40:16-07:00,1.7763979434967,2,Pure_Unrelated.csv,SF_VersionB.csv,"Sans F B","Sans F B",THICK,CONTEST,Study1,U,73,9,JOL,User,-,"How likely are you to correctly recall the second item in the pair?|Type your response on a scale from 0-100 and then press Enter.",Study/JOL,"Study Phase2",1034,,,665,681,,,,43,1
w10046938_mec,vmh1mty1dz,Trevor_EX2,1,142,2020-10-13T16:40:18-07:00,1.9134540557861,2,Pure_Unrelated.csv,SF_VersionB.csv,"Sans F B","Sans F B",VEHICLE,CHARM,Study1,U,10,26,JOL,User,-,"How likely are you to correctly recall the second item in the pair?|Type your response on a scale from 0-100 and then press Enter.",Study/JOL,"Study Phase2",1293,,,624,1002,,,,43,1
w10046938_mec,vmh1mty1dz,Trevor_EX2,1,143,2020-10-13T16:40:19-07:00,1.3606469631195,2,Pure_Unrelated.csv,SF_VersionB.csv,"Sans F B","Sans F B",LEASE,TOIL,Study1,U,20,17,JOL,User,-,"How likely are you to correctly recall the second item in the pair?|Type your response on a scale from 0-100 and then press Enter.",Study/JOL,"Study Phase2",752,,,389,400,,,,32,1
w10046938_mec,vmh1mty1dz,Trevor_EX2,1,144,2020-10-13T16:40:20-07:00,1.4442760944366,2,Pure_Unrelated.csv,SF_VersionB.csv,"Sans F B","Sans F B",DIZZY,SWEATER,Study1,U,77,39,JOL_SF,User,-,"How likely are you to correctly recall the second item in the pair?|Type your response on a scale from 0-100 and then press Enter.",Study/JOL,"Study Phase2",834,,,299,371,,,,43,1
w10046938_mec,vmh1mty1dz,Trevor_EX2,1,145,2020-10-13T16:40:22-07:00,1.6433439254761,2,Pure_Unrelated.csv,SF_VersionB.csv,"Sans F B","Sans F B",BOTH,OUNCE,Study1,U,22,24,JOL,User,-,"How likely are you to correctly recall the second item in the pair?|Type your response on a scale from 0-100 and then press Enter.",Study/JOL,"Study Phase2",1091,,,364,483,,,,23,1
w10046938_mec,vmh1mty1dz,Trevor_EX2,1,146,2020-10-13T16:40:27-07:00,5.4431960582733,2,Pure_Unrelated.csv,SF_VersionB.csv,"Sans F B","Sans F B",MAIN,SCAR,Study1,U,25,41,JOL_SF,User,-,"How likely are you to correctly recall the second item in the pair?|Type your response on a scale from 0-100 and then press Enter.",Study/JOL,"Study Phase2",4827,,,416,614,,,,24,1
w10046938_mec,vmh1mty1dz,Trevor_EX2,1,147,2020-10-13T16:40:31-07:00,3.6200129985809,2,Pure_Unrelated.csv,SF_VersionB.csv,"Sans F B","Sans F B",GEESE,GOOSE,BUFFER2,Buffer,86,51,JOL_SF,User,-,"How likely are you to correctly recall the second item in the pair?|Type your response on a scale from 0-100 and then press Enter.",Study/JOL,BUFFER4,2735,,,372,2100,,,,100,1
w10046938_mec,vmh1mty1dz,Trevor_EX2,1,148,2020-10-13T16:40:35-07:00,3.5240788459778,2,Pure_Unrelated.csv,SF_VersionB.csv,"Sans F B","Sans F B",MOON,SPACE,BUFFER2,Buffer,89,47,JOL,User,-,"How likely are you to correctly recall the second item in the pair?|Type your response on a scale from 0-100 and then press Enter.",Study/JOL,BUFFER4,2878,,,1791,2605,,,,100,1
w10046938_mec,vmh1mty1dz,Trevor_EX2,1,149,2020-10-13T16:40:38-07:00,3.3179790973663,2,Pure_Unrelated.csv,SF_VersionB.csv,"Sans F B","Sans F B",THING,STUFF,BUFFER2,Buffer,90,50,JOL_SF,User,-,"How likely are you to correctly recall the second item in the pair?|Type your response on a scale from 0-100 and then press Enter.",Study/JOL,BUFFER4,2660,,,780,2340,,,,99,1
w10046938_mec,vmh1mty1dz,Trevor_EX2,1,150,2020-10-13T16:40:40-07:00,2.4401230812073,2,Pure_Unrelated.csv,SF_VersionB.csv,"Sans F B","Sans F B",SHERRIF,POLICE,BUFFER2,Buffer,87,49,JOL_SF,User,-,"How likely are you to correctly recall the second item in the pair?|Type your response on a scale from 0-100 and then press Enter.",Study/JOL,BUFFER4,1783,,,1183,1540,,,,100,1
w10046938_mec,vmh1mty1dz,Trevor_EX2,1,151,2020-10-13T16:40:44-07:00,3.6767709255219,2,Pure_Unrelated.csv,SF_VersionB.csv,"Sans F B","Sans F B",MALT,CHOCOLATE,BUFFER2,Buffer,88,48,JOL,User,-,"How likely are you to correctly recall the second item in the pair?|Type your response on a scale from 0-100 and then press Enter.",Study/JOL,BUFFER4,2993,,,2183,2740,,,,75,1
w10046938_mec,vmh1mty1dz,Trevor_EX2,1,152,2020-10-13T16:40:46-07:00,1.9937469959259,2,Pure_Unrelated.csv,SF_VersionB.csv,"Sans F B","Sans F B",,,,,,0,Instruct,User,-,"You have completed this section. Please press Enter.",Filler_Instruction,Instruct5,900,,,-1,-1,,,,,1
w10046938_mec,vmh1mty1dz,Trevor_EX2,1,153,2020-10-13T16:42:47-07:00,121.01644897461,2,Pure_Unrelated.csv,SF_VersionB.csv,"Sans F B","Sans F B",,,,,,0,FreeRecall,120,120,"Please list the 50 US states in reverse alphabetical order (z - a). The task will automatically advance to the next screen after two minutes.",,Filler2,120025,"Wyoming Wisconsin West Virginia Washington Virginia Vermont Utah Texas Tennessee South Dakota South Carolina Rhode Island Pennsylvania Oregon Oklahoma Ohio North Dakota North Carolina New York New Mexico New Jersey New Hampshire Nevada Nebraska Montana Missou",0,29358,119960,0,0,,,1
w10046938_mec,vmh1mty1dz,Trevor_EX2,1,154,2020-10-13T16:43:05-07:00,18.284162044525,2,Pure_Unrelated.csv,SF_VersionB.csv,"Sans F B","Sans F B",,,,,,0,Instruct,-,10,"You will now be presented with the first word from each of the previously studied item pairs. Please type the missing word. If you do not know the word, you may guess or press Enter to skip forward to the next pair.",,Instruct6,17354,,,-1,-1,,,,,1
w10046938_mec,vmh1mty1dz,Trevor_EX2,1,155,2020-10-13T16:43:10-07:00,4.4811370372772,2,Pure_Unrelated.csv,SF_VersionB.csv,"Sans F B","Sans F B",DONKEY,LUSH,Study1,U,84,18,Test,User,-,,Recall,Recall2,3705,,0,2790,2790,0,0,,,1
w10046938_mec,vmh1mty1dz,Trevor_EX2,1,156,2020-10-13T16:43:11-07:00,1.5544378757477,2,Pure_Unrelated.csv,SF_VersionB.csv,"Sans F B","Sans F B",BAT,SHAKY,Study1,U,66,22,Test,User,-,,Recall,Recall2,796,,0,-1,-1,0,0,,,1
w10046938_mec,vmh1mty1dz,Trevor_EX2,1,157,2020-10-13T16:43:13-07:00,1.4389629364014,2,Pure_Unrelated.csv,SF_VersionB.csv,"Sans F B","Sans F B",GIVE,STEAK,Study1,U,8,36,Test,User,-,,Recall,Recall2,746,,0,-1,-1,0,0,,,1
w10046938_mec,vmh1mty1dz,Trevor_EX2,1,158,2020-10-13T16:43:16-07:00,2.9571440219879,2,Pure_Unrelated.csv,SF_VersionB.csv,"Sans F B","Sans F B",LOAN,SIGN,Study1,U,21,12,Test,User,-,,Recall,Recall2,2308,,0,-1,-1,0,0,,,1
w10046938_mec,vmh1mty1dz,Trevor_EX2,1,159,2020-10-13T16:43:17-07:00,1.3178040981293,2,Pure_Unrelated.csv,SF_VersionB.csv,"Sans F B","Sans F B",CRAYON,RATE,Study1,U,79,44,Test,User,-,,Recall,Recall2,757,,0,-1,-1,0,0,,,1
w10046938_mec,vmh1mty1dz,Trevor_EX2,1,160,2020-10-13T16:43:19-07:00,1.43212890625,2,Pure_Unrelated.csv,SF_VersionB.csv,"Sans F B","Sans F B",STRESS,YAM,Study1,U,68,23,Test,User,-,,Recall,Recall2,760,,0,-1,-1,0,0,,,1
w10046938_mec,vmh1mty1dz,Trevor_EX2,1,161,2020-10-13T16:43:21-07:00,2.1250631809235,2,Pure_Unrelated.csv,SF_VersionB.csv,"Sans F B","Sans F B",ROSE,NEGLECT,Study1,U,82,10,Test,User,-,,Recall,Recall2,1354,,0,-1,-1,0,0,,,1
w10046938_mec,vmh1mty1dz,Trevor_EX2,1,162,2020-10-13T16:43:22-07:00,1.3412029743195,2,Pure_Unrelated.csv,SF_VersionB.csv,"Sans F B","Sans F B",FUZZY,BANG,Study1,U,18,42,Test,User,-,,Recall,Recall2,651,,0,-1,-1,0,0,,,1
w10046938_mec,vmh1mty1dz,Trevor_EX2,1,163,2020-10-13T16:43:23-07:00,1.3620648384094,2,Pure_Unrelated.csv,SF_VersionB.csv,"Sans F B","Sans F B",JUSTICE,MAROON,Study1,U,6,20,Test,User,-,,Recall,Recall2,641,,0,-1,-1,0,0,,,1
w10046938_mec,vmh1mty1dz,Trevor_EX2,1,164,2020-10-13T16:43:25-07:00,1.8917601108551,2,Pure_Unrelated.csv,SF_VersionB.csv,"Sans F B","Sans F B",KEYS,JOKE,Study1,U,15,28,Test,User,-,,Recall,Recall2,964,,0,-1,-1,0,0,,,1
w10046938_mec,vmh1mty1dz,Trevor_EX2,1,165,2020-10-13T16:43:27-07:00,1.3626589775085,2,Pure_Unrelated.csv,SF_VersionB.csv,"Sans F B","Sans F B",VEHICLE,CHARM,Study1,U,10,26,Test,User,-,,Recall,Recall2,634,,0,-1,-1,0,0,,,1
w10046938_mec,vmh1mty1dz,Trevor_EX2,1,166,2020-10-13T16:43:28-07:00,1.1713008880615,2,Pure_Unrelated.csv,SF_VersionB.csv,"Sans F B","Sans F B",DEGREE,CHAIR,Study1,U,71,15,Test,User,-,,Recall,Recall2,482,,0,-1,-1,0,0,,,1
w10046938_mec,vmh1mty1dz,Trevor_EX2,1,167,2020-10-13T16:43:29-07:00,1.302178144455,2,Pure_Unrelated.csv,SF_VersionB.csv,"Sans F B","Sans F B",CAKE,CLOTHES,Study1,U,16,25,Test,User,-,,Recall,Recall2,604,,0,-1,-1,0,0,,,1
w10046938_mec,vmh1mty1dz,Trevor_EX2,1,168,2020-10-13T16:43:30-07:00,1.2546548843384,2,Pure_Unrelated.csv,SF_VersionB.csv,"Sans F B","Sans F B",STRETCH,CLOTH,Study1,U,7,27,Test,User,-,,Recall,Recall2,551,,0,-1,-1,0,0,,,1
w10046938_mec,vmh1mty1dz,Trevor_EX2,1,169,2020-10-13T16:43:32-07:00,1.4130761623383,2,Pure_Unrelated.csv,SF_VersionB.csv,"Sans F B","Sans F B",DIFFICULT,POOR,Study1,U,81,34,Test,User,-,,Recall,Recall2,814,,0,-1,-1,0,0,,,1
w10046938_mec,vmh1mty1dz,Trevor_EX2,1,170,2020-10-13T16:43:35-07:00,3.24968791008,2,Pure_Unrelated.csv,SF_VersionB.csv,"Sans F B","Sans F B",MIRROR,CHILDREN,Study1,U,24,11,Test,User,-,,Recall,Recall2,2638,children,100,1427,2356,1,1,,,1
w10046938_mec,vmh1mty1dz,Trevor_EX2,1,171,2020-10-13T16:43:36-07:00,1.4391860961914,2,Pure_Unrelated.csv,SF_VersionB.csv,"Sans F B","Sans F B",LISTEN,FICTION,Study1,U,14,21,Test,User,-,,Recall,Recall2,767,,0,-1,-1,0,0,,,1
w10046938_mec,vmh1mty1dz,Trevor_EX2,1,172,2020-10-13T16:43:38-07:00,1.3880579471588,2,Pure_Unrelated.csv,SF_VersionB.csv,"Sans F B","Sans F B",CRACKLE,ABLE,Study1,U,12,19,Test,User,-,,Recall,Recall2,689,,0,-1,-1,0,0,,,1
w10046938_mec,vmh1mty1dz,Trevor_EX2,1,173,2020-10-13T16:43:39-07:00,1.1218309402466,2,Pure_Unrelated.csv,SF_VersionB.csv,"Sans F B","Sans F B",WARN,SEA,Study1,U,80,7,Test,User,-,,Recall,Recall2,518,,0,-1,-1,0,0,,,1
w10046938_mec,vmh1mty1dz,Trevor_EX2,1,174,2020-10-13T16:43:41-07:00,1.6445159912109,2,Pure_Unrelated.csv,SF_VersionB.csv,"Sans F B","Sans F B",RESIST,GLUE,Study1,U,69,29,Test,User,-,,Recall,Recall2,1018,,0,-1,-1,0,0,,,1
w10046938_mec,vmh1mty1dz,Trevor_EX2,1,175,2020-10-13T16:43:42-07:00,1.5531809329987,2,Pure_Unrelated.csv,SF_VersionB.csv,"Sans F B","Sans F B",DIZZY,SWEATER,Study1,U,77,39,Test,User,-,,Recall,Recall2,963,,0,-1,-1,0,0,,,1
w10046938_mec,vmh1mty1dz,Trevor_EX2,1,176,2020-10-13T16:43:44-07:00,1.7618570327759,2,Pure_Unrelated.csv,SF_VersionB.csv,"Sans F B","Sans F B",MAZE,ELECTION,Study1,U,9,33,Test,User,-,,Recall,Recall2,979,,0,-1,-1,0,0,,,1
w10046938_mec,vmh1mty1dz,Trevor_EX2,1,177,2020-10-13T16:43:48-07:00,3.6101131439209,2,Pure_Unrelated.csv,SF_VersionB.csv,"Sans F B","Sans F B",TAX,OWL,Study1,U,72,13,Test,User,-,,Recall,Recall2,2788,owl,100,1428,2561,1,1,,,1
w10046938_mec,vmh1mty1dz,Trevor_EX2,1,178,2020-10-13T16:43:49-07:00,1.5106358528137,2,Pure_Unrelated.csv,SF_VersionB.csv,"Sans F B","Sans F B",MAIN,SCAR,Study1,U,25,41,Test,User,-,,Recall,Recall2,786,,0,-1,-1,0,0,,,1
w10046938_mec,vmh1mty1dz,Trevor_EX2,1,179,2020-10-13T16:43:50-07:00,1.4562351703644,2,Pure_Unrelated.csv,SF_VersionB.csv,"Sans F B","Sans F B",GRIND,STAND,Study1,U,85,43,Test,User,-,,Recall,Recall2,874,,0,-1,-1,0,0,,,1
w10046938_mec,vmh1mty1dz,Trevor_EX2,1,180,2020-10-13T16:43:52-07:00,1.2816078662872,2,Pure_Unrelated.csv,SF_VersionB.csv,"Sans F B","Sans F B",RIPE,VERIFY,Study1,U,83,45,Test,User,-,,Recall,Recall2,665,,0,-1,-1,0,0,,,1
w10046938_mec,vmh1mty1dz,Trevor_EX2,1,181,2020-10-13T16:43:53-07:00,1.2544319629669,2,Pure_Unrelated.csv,SF_VersionB.csv,"Sans F B","Sans F B",PARCEL,THROAT,Study1,U,67,35,Test,User,-,,Recall,Recall2,609,,0,-1,-1,0,0,,,1
w10046938_mec,vmh1mty1dz,Trevor_EX2,1,182,2020-10-13T16:43:54-07:00,1.3137230873108,2,Pure_Unrelated.csv,SF_VersionB.csv,"Sans F B","Sans F B",FUTURE,SINCERE,Study1,U,70,16,Test,User,-,,Recall,Recall2,566,,0,-1,-1,0,0,,,1
w10046938_mec,vmh1mty1dz,Trevor_EX2,1,183,2020-10-13T16:44:01-07:00,6.9137380123138,2,Pure_Unrelated.csv,SF_VersionB.csv,"Sans F B","Sans F B",NAME,HATE,Study1,U,17,37,Test,User,-,,Recall,Recall2,6198,disgust,18.181818181818,3423,6056,0,0,,,1
w10046938_mec,vmh1mty1dz,Trevor_EX2,1,184,2020-10-13T16:44:06-07:00,4.638650894165,2,Pure_Unrelated.csv,SF_VersionB.csv,"Sans F B","Sans F B",SHELL,SHAKE,Study1,U,13,46,Test,User,-,,Recall,Recall2,3808,shake,100,2027,3591,1,1,,,1
w10046938_mec,vmh1mty1dz,Trevor_EX2,1,185,2020-10-13T16:44:07-07:00,1.4113891124725,2,Pure_Unrelated.csv,SF_VersionB.csv,"Sans F B","Sans F B",BOTH,OUNCE,Study1,U,22,24,Test,User,-,,Recall,Recall2,734,,0,-1,-1,0,0,,,1
w10046938_mec,vmh1mty1dz,Trevor_EX2,1,186,2020-10-13T16:44:08-07:00,1.2077300548553,2,Pure_Unrelated.csv,SF_VersionB.csv,"Sans F B","Sans F B",INFLATE,DISGUST,Study1,U,76,38,Test,User,-,,Recall,Recall2,554,,0,-1,-1,0,0,,,1
w10046938_mec,vmh1mty1dz,Trevor_EX2,1,187,2020-10-13T16:44:10-07:00,1.1355578899384,2,Pure_Unrelated.csv,SF_VersionB.csv,"Sans F B","Sans F B",BROAD,INFECT,Study1,U,75,32,Test,User,-,,Recall,Recall2,543,,0,-1,-1,0,0,,,1
w10046938_mec,vmh1mty1dz,Trevor_EX2,1,188,2020-10-13T16:44:11-07:00,1.4825899600983,2,Pure_Unrelated.csv,SF_VersionB.csv,"Sans F B","Sans F B",THICK,CONTEST,Study1,U,73,9,Test,User,-,,Recall,Recall2,714,,0,-1,-1,0,0,,,1
w10046938_mec,vmh1mty1dz,Trevor_EX2,1,189,2020-10-13T16:44:15-07:00,3.5644941329956,2,Pure_Unrelated.csv,SF_VersionB.csv,"Sans F B","Sans F B",MEAT,OBTAIN,Study1,U,11,8,Test,User,-,,Recall,Recall2,2883,obtain,100,1614,2546,1,1,,,1
w10046938_mec,vmh1mty1dz,Trevor_EX2,1,190,2020-10-13T16:44:16-07:00,1.2957248687744,2,Pure_Unrelated.csv,SF_VersionB.csv,"Sans F B","Sans F B",MOAT,CLEAR,Study1,U,19,14,Test,User,-,,Recall,Recall2,683,,0,-1,-1,0,0,,,1
w10046938_mec,vmh1mty1dz,Trevor_EX2,1,191,2020-10-13T16:44:18-07:00,1.6393740177155,2,Pure_Unrelated.csv,SF_VersionB.csv,"Sans F B","Sans F B",LEASE,TOIL,Study1,U,20,17,Test,User,-,,Recall,Recall2,967,,0,-1,-1,0,0,,,1
w10046938_mec,vmh1mty1dz,Trevor_EX2,1,192,2020-10-13T16:44:20-07:00,2.5956909656525,2,Pure_Unrelated.csv,SF_VersionB.csv,"Sans F B","Sans F B",NUMBER,HARD,Study1,U,78,30,Test,User,-,,Recall,Recall2,1568,,0,-1,-1,0,0,,,1
w10046938_mec,vmh1mty1dz,Trevor_EX2,1,193,2020-10-13T16:44:22-07:00,1.4842131137848,2,Pure_Unrelated.csv,SF_VersionB.csv,"Sans F B","Sans F B",PET,MOON,Study1,U,74,31,Test,User,-,,Recall,Recall2,662,,0,-1,-1,0,0,,,1
w10046938_mec,vmh1mty1dz,Trevor_EX2,1,194,2020-10-13T16:44:23-07:00,1.2142958641052,2,Pure_Unrelated.csv,SF_VersionB.csv,"Sans F B","Sans F B",TEMPERATURE,MORNING,Study1,U,23,40,Test,User,-,,Recall,Recall2,581,,0,-1,-1,0,0,,,1
w10046938_mec,vmh1mty1dz,Trevor_EX2,1,195,2020-10-13T16:44:24-07:00,1.4091050624847,2,Pure_Unrelated.csv,SF_VersionB.csv,"Sans F B","Sans F B",,,,,,0,Instruct,User,-,"You have completed this section. Please press Enter.",,Instruct7,780,,,-1,-1,,,,,1
w10046938_mec,vmh1mty1dz,Trevor_EX2,1,196,2020-10-13T16:44:26-07:00,2.1777539253235,2,Pure_Unrelated.csv,SF_VersionB.csv,"Sans F B","Sans F B",,,,,,0,Instruct,User,-,"The following screen will ask you a few questions abour your experience today. You must complete these questions to receive credit.",,Instruct8,1339,,,-1,-1,,,,,1
