Username,ID,ExperimentName,Session,Trial,Date,TimeDif,"Condition Number","Stimuli File","Order File","Condition Description","Condition Notes",Stimuli*Cue,Stimuli*Answer,Stimuli*Shuffle,"Stimuli*Stimuli Notes",Stimuli*Value,Procedure*Item,"Procedure*Trial Type","Procedure*Max Time","Procedure*Min Time",Procedure*Text,"Procedure*Procedure Notes",Procedure*Shuffle,Response*RT,Response*Response,Response*Accuracy,Response*RTfirst,Response*RTlast,Response*strictAcc,Response*lenientAcc,Response*focus,Response*JOL,Response*Focus
5f5714975783961908276de3,9l5yf1l5ax,Trevor_EX2,1,1,2020-10-23T15:02:36-07:00,9.2014009952545,3,Pure_Unrelated.csv,Control_VersionA.csv,"Control A","Control A",,,,,,0,Instruct,-,5,"In this section, you will be presented with a series of word pairs.",Initial_Instruct,Instruct1,8821,,,-1,-1,,,,,1
5f5714975783961908276de3,9l5yf1l5ax,Trevor_EX2,1,2,2020-10-23T15:03:07-07:00,31.024487018585,3,Pure_Unrelated.csv,Control_VersionA.csv,"Control A","Control A",,,,,,0,Instruct,-,5,"As you study, you will be asked to rate your ability to remember the second item in the pair if you were only shown the first at test. You will make these ratings using a 0 to 100 Scale.",,Instruct13,30325,,,-1,-1,,,,,1
5f5714975783961908276de3,9l5yf1l5ax,Trevor_EX2,1,3,2020-10-23T15:03:29-07:00,22.32831788063,3,Pure_Unrelated.csv,Control_VersionA.csv,"Control A","Control A",,,,,,0,Instruct,-,10,"For example, if you are given the pair CAT - DOG, a rating of 0 indicates that you would not remember DOG at test, while a rating of 100 indicates full certainty that you would remember the word DOG at test.",,Instruct14,21823,,,-1,-1,,,,,1
5f5714975783961908276de3,9l5yf1l5ax,Trevor_EX2,1,4,2020-10-23T15:03:40-07:00,11.221391201019,3,Pure_Unrelated.csv,Control_VersionA.csv,"Control A","Control A",,,,,,0,Instruct,-,10,"When making your ratings, it is criticial that you use the full range of the scale. You will be disqualified for only giving ratings of 0 or 100! After making your rating, press Enter to advance to the next pair.",,Instruct15,10767,,,-1,-1,,,,,1
5f5714975783961908276de3,9l5yf1l5ax,Trevor_EX2,1,5,2020-10-23T15:03:43-07:00,2.8591578006744,3,Pure_Unrelated.csv,Control_VersionA.csv,"Control A","Control A",,,,,,0,Instruct,User,-,"You will now begin the study. Press Enter when you are ready to begin.",,Instruct16,2137,,,-1,-1,,,,,1
5f5714975783961908276de3,9l5yf1l5ax,Trevor_EX2,1,6,2020-10-23T15:04:01-07:00,17.406651973724,3,Pure_Unrelated.csv,Control_VersionA.csv,"Control A","Control A",BASEBALL,CATCHER,BUFFER1,Buffer,2,6,JOL,User,-,"How likely are you to correctly recall the second item in the pair?|Type your response on a scale from 0-100 and then press Enter.",Study/JOL,BUFFER,16873,,,9952,13068,,,,90,1
5f5714975783961908276de3,9l5yf1l5ax,Trevor_EX2,1,7,2020-10-23T15:04:05-07:00,4.8711581230164,3,Pure_Unrelated.csv,Control_VersionA.csv,"Control A","Control A",SPACE,JAM,BUFFER1,Buffer,5,2,JOL,User,-,"How likely are you to correctly recall the second item in the pair?|Type your response on a scale from 0-100 and then press Enter.",Study/JOL,BUFFER,4148,,,2705,2959,,,,100,1
5f5714975783961908276de3,9l5yf1l5ax,Trevor_EX2,1,8,2020-10-23T15:04:09-07:00,3.8474369049072,3,Pure_Unrelated.csv,Control_VersionA.csv,"Control A","Control A",PEANUT,BUTTER,BUFFER1,Buffer,3,4,JOL,User,-,"How likely are you to correctly recall the second item in the pair?|Type your response on a scale from 0-100 and then press Enter.",Study/JOL,BUFFER,3361,,,1574,1867,,,,100,1
5f5714975783961908276de3,9l5yf1l5ax,Trevor_EX2,1,9,2020-10-23T15:04:16-07:00,6.6586441993713,3,Pure_Unrelated.csv,Control_VersionA.csv,"Control A","Control A",SCARE,HIDE,BUFFER1,Buffer,4,3,JOL,User,-,"How likely are you to correctly recall the second item in the pair?|Type your response on a scale from 0-100 and then press Enter.",Study/JOL,BUFFER,6125,,,3336,3419,,,,85,1
5f5714975783961908276de3,9l5yf1l5ax,Trevor_EX2,1,10,2020-10-23T15:04:22-07:00,6.1082887649536,3,Pure_Unrelated.csv,Control_VersionA.csv,"Control A","Control A",TREES,GREEN,BUFFER1,Buffer,1,5,JOL,User,-,"How likely are you to correctly recall the second item in the pair?|Type your response on a scale from 0-100 and then press Enter.",Study/JOL,BUFFER,5640,,,4063,4181,,,,85,1
5f5714975783961908276de3,9l5yf1l5ax,Trevor_EX2,1,11,2020-10-23T15:04:29-07:00,7.3728802204132,3,Pure_Unrelated.csv,Control_VersionA.csv,"Control A","Control A",NUMBER,HARD,Study1,U,78,18,JOL,User,-,"How likely are you to correctly recall the second item in the pair?|Type your response on a scale from 0-100 and then press Enter.",Study/JOL,"Study Phase",6796,,,2665,2762,,,,60,1
5f5714975783961908276de3,9l5yf1l5ax,Trevor_EX2,1,12,2020-10-23T15:04:35-07:00,5.7907469272614,3,Pure_Unrelated.csv,Control_VersionA.csv,"Control A","Control A",CRAYON,RATE,Study1,U,79,38,JOL,User,-,"How likely are you to correctly recall the second item in the pair?|Type your response on a scale from 0-100 and then press Enter.",Study/JOL,"Study Phase",5303,,,2650,2755,,,,40,1
5f5714975783961908276de3,9l5yf1l5ax,Trevor_EX2,1,13,2020-10-23T15:04:42-07:00,6.5202150344849,3,Pure_Unrelated.csv,Control_VersionA.csv,"Control A","Control A",FUTURE,SINCERE,Study1,U,70,37,JOL,User,-,"How likely are you to correctly recall the second item in the pair?|Type your response on a scale from 0-100 and then press Enter.",Study/JOL,"Study Phase",6007,,,4407,4554,,,,40,1
5f5714975783961908276de3,9l5yf1l5ax,Trevor_EX2,1,14,2020-10-23T15:04:47-07:00,5.3882009983063,3,Pure_Unrelated.csv,Control_VersionA.csv,"Control A","Control A",KEYS,JOKE,Study1,U,15,16,JOL,User,-,"How likely are you to correctly recall the second item in the pair?|Type your response on a scale from 0-100 and then press Enter.",Study/JOL,"Study Phase",4787,,,3566,3666,,,,30,1
5f5714975783961908276de3,9l5yf1l5ax,Trevor_EX2,1,15,2020-10-23T15:04:52-07:00,4.8944380283356,3,Pure_Unrelated.csv,Control_VersionA.csv,"Control A","Control A",MAZE,ELECTION,Study1,U,9,45,JOL,User,-,"How likely are you to correctly recall the second item in the pair?|Type your response on a scale from 0-100 and then press Enter.",Study/JOL,"Study Phase",4384,,,3060,3132,,,,40,1
5f5714975783961908276de3,9l5yf1l5ax,Trevor_EX2,1,16,2020-10-23T15:04:57-07:00,5.432238817215,3,Pure_Unrelated.csv,Control_VersionA.csv,"Control A","Control A",JUSTICE,MAROON,Study1,U,6,21,JOL,User,-,"How likely are you to correctly recall the second item in the pair?|Type your response on a scale from 0-100 and then press Enter.",Study/JOL,"Study Phase",4924,,,2887,3013,,,,30,1
5f5714975783961908276de3,9l5yf1l5ax,Trevor_EX2,1,17,2020-10-23T15:05:03-07:00,5.7161731719971,3,Pure_Unrelated.csv,Control_VersionA.csv,"Control A","Control A",NAME,HATE,Study1,U,17,39,JOL,User,-,"How likely are you to correctly recall the second item in the pair?|Type your response on a scale from 0-100 and then press Enter.",Study/JOL,"Study Phase",5201,,,3268,3388,,,,30,1
5f5714975783961908276de3,9l5yf1l5ax,Trevor_EX2,1,18,2020-10-23T15:05:09-07:00,5.6782329082489,3,Pure_Unrelated.csv,Control_VersionA.csv,"Control A","Control A",FUZZY,BANG,Study1,U,18,8,JOL,User,-,"How likely are you to correctly recall the second item in the pair?|Type your response on a scale from 0-100 and then press Enter.",Study/JOL,"Study Phase",5194,,,3912,4055,,,,20,1
5f5714975783961908276de3,9l5yf1l5ax,Trevor_EX2,1,19,2020-10-23T15:05:13-07:00,4.6103279590607,3,Pure_Unrelated.csv,Control_VersionA.csv,"Control A","Control A",DONKEY,LUSH,Study1,U,84,41,JOL,User,-,"How likely are you to correctly recall the second item in the pair?|Type your response on a scale from 0-100 and then press Enter.",Study/JOL,"Study Phase",4122,,,1774,1913,,,,20,1
5f5714975783961908276de3,9l5yf1l5ax,Trevor_EX2,1,20,2020-10-23T15:05:18-07:00,4.444699048996,3,Pure_Unrelated.csv,Control_VersionA.csv,"Control A","Control A",MIRROR,CHILDREN,Study1,U,24,40,JOL,User,-,"How likely are you to correctly recall the second item in the pair?|Type your response on a scale from 0-100 and then press Enter.",Study/JOL,"Study Phase",3943,,,2376,2455,,,,40,1
5f5714975783961908276de3,9l5yf1l5ax,Trevor_EX2,1,21,2020-10-23T15:05:23-07:00,4.595860004425,3,Pure_Unrelated.csv,Control_VersionA.csv,"Control A","Control A",LISTEN,FICTION,Study1,U,14,13,JOL,User,-,"How likely are you to correctly recall the second item in the pair?|Type your response on a scale from 0-100 and then press Enter.",Study/JOL,"Study Phase",4042,,,2250,2576,,,,40,1
5f5714975783961908276de3,9l5yf1l5ax,Trevor_EX2,1,22,2020-10-23T15:05:29-07:00,6.6452369689941,3,Pure_Unrelated.csv,Control_VersionA.csv,"Control A","Control A",CAKE,CLOTHES,Study1,U,16,20,JOL,User,-,"How likely are you to correctly recall the second item in the pair?|Type your response on a scale from 0-100 and then press Enter.",Study/JOL,"Study Phase",6166,,,2925,5167,,,,30,1
5f5714975783961908276de3,9l5yf1l5ax,Trevor_EX2,1,23,2020-10-23T15:05:34-07:00,4.6217880249023,3,Pure_Unrelated.csv,Control_VersionA.csv,"Control A","Control A",TAX,OWL,Study1,U,72,23,JOL,User,-,"How likely are you to correctly recall the second item in the pair?|Type your response on a scale from 0-100 and then press Enter.",Study/JOL,"Study Phase",4115,,,2720,2827,,,,10,1
5f5714975783961908276de3,9l5yf1l5ax,Trevor_EX2,1,24,2020-10-23T15:05:38-07:00,4.3295431137085,3,Pure_Unrelated.csv,Control_VersionA.csv,"Control A","Control A",BROAD,INFECT,Study1,U,75,28,JOL,User,-,"How likely are you to correctly recall the second item in the pair?|Type your response on a scale from 0-100 and then press Enter.",Study/JOL,"Study Phase",3821,,,2382,2443,,,,10,1
5f5714975783961908276de3,9l5yf1l5ax,Trevor_EX2,1,25,2020-10-23T15:05:42-07:00,4.1371297836304,3,Pure_Unrelated.csv,Control_VersionA.csv,"Control A","Control A",DIFFICULT,POOR,Study1,U,81,19,JOL,User,-,"How likely are you to correctly recall the second item in the pair?|Type your response on a scale from 0-100 and then press Enter.",Study/JOL,"Study Phase",3654,,,2466,2641,,,,40,1
5f5714975783961908276de3,9l5yf1l5ax,Trevor_EX2,1,26,2020-10-23T15:05:48-07:00,5.4369552135468,3,Pure_Unrelated.csv,Control_VersionA.csv,"Control A","Control A",STRESS,YAM,Study1,U,68,26,JOL,User,-,"How likely are you to correctly recall the second item in the pair?|Type your response on a scale from 0-100 and then press Enter.",Study/JOL,"Study Phase",4925,,,3327,3479,,,,10,1
5f5714975783961908276de3,9l5yf1l5ax,Trevor_EX2,1,27,2020-10-23T15:05:54-07:00,6.0970158576965,3,Pure_Unrelated.csv,Control_VersionA.csv,"Control A","Control A",RESIST,GLUE,Study1,U,69,35,JOL,User,-,"How likely are you to correctly recall the second item in the pair?|Type your response on a scale from 0-100 and then press Enter.",Study/JOL,"Study Phase",5605,,,4321,4438,,,,50,1
5f5714975783961908276de3,9l5yf1l5ax,Trevor_EX2,1,28,2020-10-23T15:05:59-07:00,4.8911149501801,3,Pure_Unrelated.csv,Control_VersionA.csv,"Control A","Control A",BAT,SHAKY,Study1,U,66,34,JOL,User,-,"How likely are you to correctly recall the second item in the pair?|Type your response on a scale from 0-100 and then press Enter.",Study/JOL,"Study Phase",4383,,,2851,2934,,,,30,1
5f5714975783961908276de3,9l5yf1l5ax,Trevor_EX2,1,29,2020-10-23T15:06:04-07:00,5.1227271556854,3,Pure_Unrelated.csv,Control_VersionA.csv,"Control A","Control A",CRACKLE,ABLE,Study1,U,12,9,JOL,User,-,"How likely are you to correctly recall the second item in the pair?|Type your response on a scale from 0-100 and then press Enter.",Study/JOL,"Study Phase",4605,,,3289,3289,,,,5,1
5f5714975783961908276de3,9l5yf1l5ax,Trevor_EX2,1,30,2020-10-23T15:06:08-07:00,4.224925994873,3,Pure_Unrelated.csv,Control_VersionA.csv,"Control A","Control A",BOTH,OUNCE,Study1,U,22,12,JOL,User,-,"How likely are you to correctly recall the second item in the pair?|Type your response on a scale from 0-100 and then press Enter.",Study/JOL,"Study Phase",3781,,,2399,2621,,,,10,1
5f5714975783961908276de3,9l5yf1l5ax,Trevor_EX2,1,31,2020-10-23T15:06:15-07:00,6.4835689067841,3,Pure_Unrelated.csv,Control_VersionA.csv,"Control A","Control A",PARCEL,THROAT,Study1,U,67,29,JOL,User,-,"How likely are you to correctly recall the second item in the pair?|Type your response on a scale from 0-100 and then press Enter.",Study/JOL,"Study Phase",5996,,,4504,4991,,,,5,1
5f5714975783961908276de3,9l5yf1l5ax,Trevor_EX2,1,32,2020-10-23T15:06:19-07:00,4.7596280574799,3,Pure_Unrelated.csv,Control_VersionA.csv,"Control A","Control A",MAIN,SCAR,Study1,U,25,24,JOL,User,-,"How likely are you to correctly recall the second item in the pair?|Type your response on a scale from 0-100 and then press Enter.",Study/JOL,"Study Phase",4225,,,2843,2843,,,,5,1
5f5714975783961908276de3,9l5yf1l5ax,Trevor_EX2,1,33,2020-10-23T15:06:24-07:00,5.0440220832825,3,Pure_Unrelated.csv,Control_VersionA.csv,"Control A","Control A",SHELL,SHAKE,Study1,U,13,15,JOL,User,-,"How likely are you to correctly recall the second item in the pair?|Type your response on a scale from 0-100 and then press Enter.",Study/JOL,"Study Phase",4594,,,2837,2837,,,,5,1
5f5714975783961908276de3,9l5yf1l5ax,Trevor_EX2,1,34,2020-10-23T15:06:29-07:00,4.4276537895203,3,Pure_Unrelated.csv,Control_VersionA.csv,"Control A","Control A",STRETCH,CLOTH,Study1,U,7,27,JOL,User,-,"How likely are you to correctly recall the second item in the pair?|Type your response on a scale from 0-100 and then press Enter.",Study/JOL,"Study Phase",3978,,,2209,2319,,,,50,1
5f5714975783961908276de3,9l5yf1l5ax,Trevor_EX2,1,35,2020-10-23T15:06:35-07:00,5.8307640552521,3,Pure_Unrelated.csv,Control_VersionA.csv,"Control A","Control A",MEAT,OBTAIN,Study1,U,11,22,JOL,User,-,"How likely are you to correctly recall the second item in the pair?|Type your response on a scale from 0-100 and then press Enter.",Study/JOL,"Study Phase",5344,,,4140,4267,,,,10,1
5f5714975783961908276de3,9l5yf1l5ax,Trevor_EX2,1,36,2020-10-23T15:06:39-07:00,4.2231161594391,3,Pure_Unrelated.csv,Control_VersionA.csv,"Control A","Control A",TEMPERATURE,MORNING,Study1,U,23,10,JOL,User,-,"How likely are you to correctly recall the second item in the pair?|Type your response on a scale from 0-100 and then press Enter.",Study/JOL,"Study Phase",3740,,,2553,2673,,,,50,1
5f5714975783961908276de3,9l5yf1l5ax,Trevor_EX2,1,37,2020-10-23T15:06:43-07:00,3.8334989547729,3,Pure_Unrelated.csv,Control_VersionA.csv,"Control A","Control A",MOAT,CLEAR,Study1,U,19,25,JOL,User,-,"How likely are you to correctly recall the second item in the pair?|Type your response on a scale from 0-100 and then press Enter.",Study/JOL,"Study Phase",3345,,,1993,2171,,,,30,1
5f5714975783961908276de3,9l5yf1l5ax,Trevor_EX2,1,38,2020-10-23T15:06:47-07:00,4.4450979232788,3,Pure_Unrelated.csv,Control_VersionA.csv,"Control A","Control A",THICK,CONTEST,Study1,U,73,36,JOL,User,-,"How likely are you to correctly recall the second item in the pair?|Type your response on a scale from 0-100 and then press Enter.",Study/JOL,"Study Phase",3941,,,2096,2223,,,,10,1
5f5714975783961908276de3,9l5yf1l5ax,Trevor_EX2,1,39,2020-10-23T15:06:52-07:00,5.207111120224,3,Pure_Unrelated.csv,Control_VersionA.csv,"Control A","Control A",LEASE,TOIL,Study1,U,20,44,JOL,User,-,"How likely are you to correctly recall the second item in the pair?|Type your response on a scale from 0-100 and then press Enter.",Study/JOL,"Study Phase",4763,,,3514,3514,,,,1,1
5f5714975783961908276de3,9l5yf1l5ax,Trevor_EX2,1,40,2020-10-23T15:06:56-07:00,3.3794929981232,3,Pure_Unrelated.csv,Control_VersionA.csv,"Control A","Control A",LOAN,SIGN,Study1,U,21,31,JOL,User,-,"How likely are you to correctly recall the second item in the pair?|Type your response on a scale from 0-100 and then press Enter.",Study/JOL,"Study Phase",2898,,,2170,2313,,,,10,1
5f5714975783961908276de3,9l5yf1l5ax,Trevor_EX2,1,41,2020-10-23T15:07:00-07:00,4.2880029678345,3,Pure_Unrelated.csv,Control_VersionA.csv,"Control A","Control A",ROSE,NEGLECT,Study1,U,82,14,JOL,User,-,"How likely are you to correctly recall the second item in the pair?|Type your response on a scale from 0-100 and then press Enter.",Study/JOL,"Study Phase",3833,,,2131,2131,,,,5,1
5f5714975783961908276de3,9l5yf1l5ax,Trevor_EX2,1,42,2020-10-23T15:07:04-07:00,3.7881059646606,3,Pure_Unrelated.csv,Control_VersionA.csv,"Control A","Control A",VEHICLE,CHARM,Study1,U,10,11,JOL,User,-,"How likely are you to correctly recall the second item in the pair?|Type your response on a scale from 0-100 and then press Enter.",Study/JOL,"Study Phase",3314,,,2403,2526,,,,40,1
5f5714975783961908276de3,9l5yf1l5ax,Trevor_EX2,1,43,2020-10-23T15:07:10-07:00,5.8574860095978,3,Pure_Unrelated.csv,Control_VersionA.csv,"Control A","Control A",PET,MOON,Study1,U,74,42,JOL,User,-,"How likely are you to correctly recall the second item in the pair?|Type your response on a scale from 0-100 and then press Enter.",Study/JOL,"Study Phase",5408,,,4545,4545,,,,5,1
5f5714975783961908276de3,9l5yf1l5ax,Trevor_EX2,1,44,2020-10-23T15:07:15-07:00,5.9015288352966,3,Pure_Unrelated.csv,Control_VersionA.csv,"Control A","Control A",RIPE,VERIFY,Study1,U,83,33,JOL,User,-,"How likely are you to correctly recall the second item in the pair?|Type your response on a scale from 0-100 and then press Enter.",Study/JOL,"Study Phase",5412,,,4715,4715,,,,5,1
5f5714975783961908276de3,9l5yf1l5ax,Trevor_EX2,1,45,2020-10-23T15:07:20-07:00,4.5145001411438,3,Pure_Unrelated.csv,Control_VersionA.csv,"Control A","Control A",WARN,SEA,Study1,U,80,43,JOL,User,-,"How likely are you to correctly recall the second item in the pair?|Type your response on a scale from 0-100 and then press Enter.",Study/JOL,"Study Phase",4023,,,2790,3277,,,,5,1
5f5714975783961908276de3,9l5yf1l5ax,Trevor_EX2,1,46,2020-10-23T15:07:25-07:00,5.1390149593353,3,Pure_Unrelated.csv,Control_VersionA.csv,"Control A","Control A",DEGREE,CHAIR,Study1,U,71,17,JOL,User,-,"How likely are you to correctly recall the second item in the pair?|Type your response on a scale from 0-100 and then press Enter.",Study/JOL,"Study Phase",4656,,,4211,4434,,,,15,1
5f5714975783961908276de3,9l5yf1l5ax,Trevor_EX2,1,47,2020-10-23T15:07:29-07:00,4.0815179347992,3,Pure_Unrelated.csv,Control_VersionA.csv,"Control A","Control A",GRIND,STAND,Study1,U,85,46,JOL,User,-,"How likely are you to correctly recall the second item in the pair?|Type your response on a scale from 0-100 and then press Enter.",Study/JOL,"Study Phase",3541,,,2385,2385,,,,5,1
5f5714975783961908276de3,9l5yf1l5ax,Trevor_EX2,1,48,2020-10-23T15:07:38-07:00,8.3222210407257,3,Pure_Unrelated.csv,Control_VersionA.csv,"Control A","Control A",INFLATE,DISGUST,Study1,U,76,30,JOL,User,-,"How likely are you to correctly recall the second item in the pair?|Type your response on a scale from 0-100 and then press Enter.",Study/JOL,"Study Phase",6888,,,5540,5705,,,,10,1
5f5714975783961908276de3,9l5yf1l5ax,Trevor_EX2,1,49,2020-10-23T15:07:42-07:00,4.7872841358185,3,Pure_Unrelated.csv,Control_VersionA.csv,"Control A","Control A",GIVE,STEAK,Study1,U,8,7,JOL,User,-,"How likely are you to correctly recall the second item in the pair?|Type your response on a scale from 0-100 and then press Enter.",Study/JOL,"Study Phase",3957,,,2585,2720,,,,20,1
5f5714975783961908276de3,9l5yf1l5ax,Trevor_EX2,1,50,2020-10-23T15:07:46-07:00,3.6341569423676,3,Pure_Unrelated.csv,Control_VersionA.csv,"Control A","Control A",DIZZY,SWEATER,Study1,U,77,32,JOL,User,-,"How likely are you to correctly recall the second item in the pair?|Type your response on a scale from 0-100 and then press Enter.",Study/JOL,"Study Phase",3125,,,1837,2011,,,,10,1
5f5714975783961908276de3,9l5yf1l5ax,Trevor_EX2,1,51,2020-10-23T15:07:51-07:00,5.0439889431,3,Pure_Unrelated.csv,Control_VersionA.csv,"Control A","Control A",GEESE,GOOSE,BUFFER2,Buffer,86,47,JOL,User,-,"How likely are you to correctly recall the second item in the pair?|Type your response on a scale from 0-100 and then press Enter.",Study/JOL,BUFFER2,4278,,,2762,2967,,,,90,1
5f5714975783961908276de3,9l5yf1l5ax,Trevor_EX2,1,52,2020-10-23T15:07:56-07:00,5.4431700706482,3,Pure_Unrelated.csv,Control_VersionA.csv,"Control A","Control A",THING,STUFF,BUFFER2,Buffer,90,48,JOL,User,-,"How likely are you to correctly recall the second item in the pair?|Type your response on a scale from 0-100 and then press Enter.",Study/JOL,BUFFER2,4953,,,3626,3762,,,,70,1
5f5714975783961908276de3,9l5yf1l5ax,Trevor_EX2,1,53,2020-10-23T15:08:02-07:00,5.6501450538635,3,Pure_Unrelated.csv,Control_VersionA.csv,"Control A","Control A",MALT,CHOCOLATE,BUFFER2,Buffer,88,51,JOL,User,-,"How likely are you to correctly recall the second item in the pair?|Type your response on a scale from 0-100 and then press Enter.",Study/JOL,BUFFER2,5162,,,3941,4097,,,,50,1
5f5714975783961908276de3,9l5yf1l5ax,Trevor_EX2,1,54,2020-10-23T15:08:06-07:00,4.0884938240051,3,Pure_Unrelated.csv,Control_VersionA.csv,"Control A","Control A",SHERRIF,POLICE,BUFFER2,Buffer,87,49,JOL,User,-,"How likely are you to correctly recall the second item in the pair?|Type your response on a scale from 0-100 and then press Enter.",Study/JOL,BUFFER2,3613,,,2887,3039,,,,90,1
5f5714975783961908276de3,9l5yf1l5ax,Trevor_EX2,1,55,2020-10-23T15:08:11-07:00,4.3808369636536,3,Pure_Unrelated.csv,Control_VersionA.csv,"Control A","Control A",MOON,SPACE,BUFFER2,Buffer,89,50,JOL,User,-,"How likely are you to correctly recall the second item in the pair?|Type your response on a scale from 0-100 and then press Enter.",Study/JOL,BUFFER2,3925,,,2543,2717,,,,90,1
5f5714975783961908276de3,9l5yf1l5ax,Trevor_EX2,1,56,2020-10-23T15:08:13-07:00,1.9670531749725,3,Pure_Unrelated.csv,Control_VersionA.csv,"Control A","Control A",,,,,,0,Instruct,User,-,"You have completed this section. Please press Enter.",Filler_Instruction,Instruct2,1481,,,-1,-1,,,,,1
5f5714975783961908276de3,9l5yf1l5ax,Trevor_EX2,1,57,2020-10-23T15:10:13-07:00,120.61746001244,3,Pure_Unrelated.csv,Control_VersionA.csv,"Control A","Control A",,,,,,0,FreeRecall,120,120,"Please list the 50 US states in alphabetical order. The task will automatically advance to the next screen after two minutes.",,Filler1,120010,"Alabama Alaska American Samoa Arizona Arkansas California Colorado Connecticut Delaware District of Columbia Florida Georgia Guam Hawaii Idaho Illinois Indiana Iowa Kansas Kentucky Louisiana Maine Maryland Massachusetts Michigan Minnesota Mississippi Missouri Montana Nebraska Nevada New Hampshire New Jersey New Mexico New York North Carolina North Dakota Northern Marianas Islands Ohio Oklahoma Oregon Pennsylvania Puerto Rico Rhode Island South Carolina South Dakota Tennessee Texas Utah Vermont Virginia Virgin Islands Washington West Virginia Wisconsin Wyoming",0,-1,-1,0,0,,,0.921
5f5714975783961908276de3,9l5yf1l5ax,Trevor_EX2,1,58,2020-10-23T15:10:30-07:00,17.228348016739,3,Pure_Unrelated.csv,Control_VersionA.csv,"Control A","Control A",,,,,,0,Instruct,-,10,"You will now be presented with the first word from each of the previously studied item pairs. Please type the missing word. If you do not know the word, you may guess or press Enter to skip forward to the next pair.",,Instruct3,16635,,,-1,-1,,,,,1
5f5714975783961908276de3,9l5yf1l5ax,Trevor_EX2,1,59,2020-10-23T15:10:38-07:00,7.3566398620605,3,Pure_Unrelated.csv,Control_VersionA.csv,"Control A","Control A",TEMPERATURE,MORNING,Study1,U,23,10,Test,User,-,,Recall,Recall1,6602,MORNING,100,1270,4841,1,1,,,1
5f5714975783961908276de3,9l5yf1l5ax,Trevor_EX2,1,60,2020-10-23T15:10:41-07:00,3.4042210578918,3,Pure_Unrelated.csv,Control_VersionA.csv,"Control A","Control A",MAZE,ELECTION,Study1,U,9,45,Test,User,-,,Recall,Recall1,2924,,0,-1,-1,0,0,,,1
5f5714975783961908276de3,9l5yf1l5ax,Trevor_EX2,1,61,2020-10-23T15:10:49-07:00,7.3649780750275,3,Pure_Unrelated.csv,Control_VersionA.csv,"Control A","Control A",GIVE,STEAK,Study1,U,8,7,Test,User,-,,Recall,Recall1,6861,MEAT,44.444444444444,2807,5360,0,0,,,1
5f5714975783961908276de3,9l5yf1l5ax,Trevor_EX2,1,62,2020-10-23T15:10:53-07:00,4.2300579547882,3,Pure_Unrelated.csv,Control_VersionA.csv,"Control A","Control A",MEAT,OBTAIN,Study1,U,11,22,Test,User,-,,Recall,Recall1,3797,GIVE,20,1690,2610,0,0,,,1
5f5714975783961908276de3,9l5yf1l5ax,Trevor_EX2,1,63,2020-10-23T15:10:56-07:00,3.6207129955292,3,Pure_Unrelated.csv,Control_VersionA.csv,"Control A","Control A",NAME,HATE,Study1,U,17,39,Test,User,-,,Recall,Recall1,3136,,0,-1,-1,0,0,,,1
5f5714975783961908276de3,9l5yf1l5ax,Trevor_EX2,1,64,2020-10-23T15:10:59-07:00,2.8024699687958,3,Pure_Unrelated.csv,Control_VersionA.csv,"Control A","Control A",FUTURE,SINCERE,Study1,U,70,37,Test,User,-,,Recall,Recall1,2312,,0,-1,-1,0,0,,,1
5f5714975783961908276de3,9l5yf1l5ax,Trevor_EX2,1,65,2020-10-23T15:11:06-07:00,6.4425489902496,3,Pure_Unrelated.csv,Control_VersionA.csv,"Control A","Control A",LOAN,SIGN,Study1,U,21,31,Test,User,-,,Recall,Recall1,5932,TOIL,25,3162,4898,0,0,,,1
5f5714975783961908276de3,9l5yf1l5ax,Trevor_EX2,1,66,2020-10-23T15:11:11-07:00,4.9890949726105,3,Pure_Unrelated.csv,Control_VersionA.csv,"Control A","Control A",SHELL,SHAKE,Study1,U,13,15,Test,User,-,,Recall,Recall1,4470,SHAKE,100,2128,2628,1,1,,,1
5f5714975783961908276de3,9l5yf1l5ax,Trevor_EX2,1,67,2020-10-23T15:11:13-07:00,2.2640500068665,3,Pure_Unrelated.csv,Control_VersionA.csv,"Control A","Control A",CAKE,CLOTHES,Study1,U,16,20,Test,User,-,,Recall,Recall1,1782,,0,-1,-1,0,0,,,1
5f5714975783961908276de3,9l5yf1l5ax,Trevor_EX2,1,68,2020-10-23T15:11:16-07:00,3.5628159046173,3,Pure_Unrelated.csv,Control_VersionA.csv,"Control A","Control A",BAT,SHAKY,Study1,U,66,34,Test,User,-,,Recall,Recall1,3086,,0,-1,-1,0,0,,,1
5f5714975783961908276de3,9l5yf1l5ax,Trevor_EX2,1,69,2020-10-23T15:11:26-07:00,9.2881441116333,3,Pure_Unrelated.csv,Control_VersionA.csv,"Control A","Control A",NUMBER,HARD,Study1,U,78,18,Test,User,-,,Recall,Recall1,8774,HARD,100,6542,7731,1,1,,,1
5f5714975783961908276de3,9l5yf1l5ax,Trevor_EX2,1,70,2020-10-23T15:11:30-07:00,4.2176079750061,3,Pure_Unrelated.csv,Control_VersionA.csv,"Control A","Control A",DIFFICULT,POOR,Study1,U,81,19,Test,User,-,,Recall,Recall1,3691,NUMBER,20,1393,2194,0,0,,,1
5f5714975783961908276de3,9l5yf1l5ax,Trevor_EX2,1,71,2020-10-23T15:11:33-07:00,3.3780109882355,3,Pure_Unrelated.csv,Control_VersionA.csv,"Control A","Control A",WARN,SEA,Study1,U,80,43,Test,User,-,,Recall,Recall1,2867,,0,-1,-1,0,0,,,1
5f5714975783961908276de3,9l5yf1l5ax,Trevor_EX2,1,72,2020-10-23T15:11:36-07:00,2.8146021366119,3,Pure_Unrelated.csv,Control_VersionA.csv,"Control A","Control A",DONKEY,LUSH,Study1,U,84,41,Test,User,-,,Recall,Recall1,2340,,0,-1,-1,0,0,,,1
5f5714975783961908276de3,9l5yf1l5ax,Trevor_EX2,1,73,2020-10-23T15:11:44-07:00,7.6003379821777,3,Pure_Unrelated.csv,Control_VersionA.csv,"Control A","Control A",RESIST,GLUE,Study1,U,69,35,Test,User,-,,Recall,Recall1,7113,,0,3481,4732,0,0,,,1
5f5714975783961908276de3,9l5yf1l5ax,Trevor_EX2,1,74,2020-10-23T15:11:46-07:00,2.5356829166412,3,Pure_Unrelated.csv,Control_VersionA.csv,"Control A","Control A",MAIN,SCAR,Study1,U,25,24,Test,User,-,,Recall,Recall1,2025,,0,-1,-1,0,0,,,1
5f5714975783961908276de3,9l5yf1l5ax,Trevor_EX2,1,75,2020-10-23T15:11:50-07:00,3.5653231143951,3,Pure_Unrelated.csv,Control_VersionA.csv,"Control A","Control A",TAX,OWL,Study1,U,72,23,Test,User,-,,Recall,Recall1,2992,,0,-1,-1,0,0,,,1
5f5714975783961908276de3,9l5yf1l5ax,Trevor_EX2,1,76,2020-10-23T15:11:52-07:00,2.356663942337,3,Pure_Unrelated.csv,Control_VersionA.csv,"Control A","Control A",VEHICLE,CHARM,Study1,U,10,11,Test,User,-,,Recall,Recall1,1875,,0,-1,-1,0,0,,,1
5f5714975783961908276de3,9l5yf1l5ax,Trevor_EX2,1,77,2020-10-23T15:11:59-07:00,7.3091039657593,3,Pure_Unrelated.csv,Control_VersionA.csv,"Control A","Control A",DIZZY,SWEATER,Study1,U,77,32,Test,User,-,,Recall,Recall1,6854,,0,-1,-1,0,0,,,1
5f5714975783961908276de3,9l5yf1l5ax,Trevor_EX2,1,78,2020-10-23T15:12:02-07:00,2.3428170681,3,Pure_Unrelated.csv,Control_VersionA.csv,"Control A","Control A",PARCEL,THROAT,Study1,U,67,29,Test,User,-,,Recall,Recall1,1867,,0,-1,-1,0,0,,,1
5f5714975783961908276de3,9l5yf1l5ax,Trevor_EX2,1,79,2020-10-23T15:12:04-07:00,2.19904088974,3,Pure_Unrelated.csv,Control_VersionA.csv,"Control A","Control A",CRACKLE,ABLE,Study1,U,12,9,Test,User,-,,Recall,Recall1,1645,,0,-1,-1,0,0,,,1
5f5714975783961908276de3,9l5yf1l5ax,Trevor_EX2,1,80,2020-10-23T15:12:06-07:00,1.9020400047302,3,Pure_Unrelated.csv,Control_VersionA.csv,"Control A","Control A",FUZZY,BANG,Study1,U,18,8,Test,User,-,,Recall,Recall1,1471,,0,-1,-1,0,0,,,1
5f5714975783961908276de3,9l5yf1l5ax,Trevor_EX2,1,81,2020-10-23T15:12:08-07:00,2.551647901535,3,Pure_Unrelated.csv,Control_VersionA.csv,"Control A","Control A",LISTEN,FICTION,Study1,U,14,13,Test,User,-,,Recall,Recall1,2054,,0,-1,-1,0,0,,,1
5f5714975783961908276de3,9l5yf1l5ax,Trevor_EX2,1,82,2020-10-23T15:12:13-07:00,5.0042841434479,3,Pure_Unrelated.csv,Control_VersionA.csv,"Control A","Control A",MIRROR,CHILDREN,Study1,U,24,40,Test,User,-,,Recall,Recall1,4486,CHILDREN,100,1315,3304,1,1,,,1
5f5714975783961908276de3,9l5yf1l5ax,Trevor_EX2,1,83,2020-10-23T15:12:20-07:00,6.3857409954071,3,Pure_Unrelated.csv,Control_VersionA.csv,"Control A","Control A",LEASE,TOIL,Study1,U,20,44,Test,User,-,,Recall,Recall1,5900,TOIL,100,4151,4751,1,1,,,1
5f5714975783961908276de3,9l5yf1l5ax,Trevor_EX2,1,84,2020-10-23T15:12:28-07:00,8.0166878700256,3,Pure_Unrelated.csv,Control_VersionA.csv,"Control A","Control A",INFLATE,DISGUST,Study1,U,76,30,Test,User,-,,Recall,Recall1,7519,,0,-1,-1,0,0,,,1
5f5714975783961908276de3,9l5yf1l5ax,Trevor_EX2,1,85,2020-10-23T15:12:30-07:00,2.5842921733856,3,Pure_Unrelated.csv,Control_VersionA.csv,"Control A","Control A",BOTH,OUNCE,Study1,U,22,12,Test,User,-,,Recall,Recall1,2076,,0,-1,-1,0,0,,,1
5f5714975783961908276de3,9l5yf1l5ax,Trevor_EX2,1,86,2020-10-23T15:12:33-07:00,2.9871289730072,3,Pure_Unrelated.csv,Control_VersionA.csv,"Control A","Control A",ROSE,NEGLECT,Study1,U,82,14,Test,User,-,,Recall,Recall1,2502,,0,-1,-1,0,0,,,1
5f5714975783961908276de3,9l5yf1l5ax,Trevor_EX2,1,87,2020-10-23T15:12:36-07:00,2.5252480506897,3,Pure_Unrelated.csv,Control_VersionA.csv,"Control A","Control A",STRETCH,CLOTH,Study1,U,7,27,Test,User,-,,Recall,Recall1,2032,,0,-1,-1,0,0,,,1
5f5714975783961908276de3,9l5yf1l5ax,Trevor_EX2,1,88,2020-10-23T15:12:39-07:00,2.8794867992401,3,Pure_Unrelated.csv,Control_VersionA.csv,"Control A","Control A",BROAD,INFECT,Study1,U,75,28,Test,User,-,,Recall,Recall1,2432,,0,-1,-1,0,0,,,1
5f5714975783961908276de3,9l5yf1l5ax,Trevor_EX2,1,89,2020-10-23T15:12:41-07:00,2.4800291061401,3,Pure_Unrelated.csv,Control_VersionA.csv,"Control A","Control A",GRIND,STAND,Study1,U,85,46,Test,User,-,,Recall,Recall1,2017,,0,-1,-1,0,0,,,1
5f5714975783961908276de3,9l5yf1l5ax,Trevor_EX2,1,90,2020-10-23T15:12:43-07:00,1.9460399150848,3,Pure_Unrelated.csv,Control_VersionA.csv,"Control A","Control A",KEYS,JOKE,Study1,U,15,16,Test,User,-,,Recall,Recall1,1463,,0,-1,-1,0,0,,,1
5f5714975783961908276de3,9l5yf1l5ax,Trevor_EX2,1,91,2020-10-23T15:12:47-07:00,3.5458509922028,3,Pure_Unrelated.csv,Control_VersionA.csv,"Control A","Control A",MOAT,CLEAR,Study1,U,19,25,Test,User,-,,Recall,Recall1,3055,CLEAR,100,1367,1901,1,1,,,1
5f5714975783961908276de3,9l5yf1l5ax,Trevor_EX2,1,92,2020-10-23T15:12:49-07:00,2.3293490409851,3,Pure_Unrelated.csv,Control_VersionA.csv,"Control A","Control A",THICK,CONTEST,Study1,U,73,36,Test,User,-,,Recall,Recall1,1856,,0,-1,-1,0,0,,,1
5f5714975783961908276de3,9l5yf1l5ax,Trevor_EX2,1,93,2020-10-23T15:12:51-07:00,1.9543731212616,3,Pure_Unrelated.csv,Control_VersionA.csv,"Control A","Control A",STRESS,YAM,Study1,U,68,26,Test,User,-,,Recall,Recall1,1536,,0,-1,-1,0,0,,,1
5f5714975783961908276de3,9l5yf1l5ax,Trevor_EX2,1,94,2020-10-23T15:13:01-07:00,9.8075439929962,3,Pure_Unrelated.csv,Control_VersionA.csv,"Control A","Control A",CRAYON,RATE,Study1,U,79,38,Test,User,-,,Recall,Recall1,9297,RATE,100,7413,7751,1,1,,,1
5f5714975783961908276de3,9l5yf1l5ax,Trevor_EX2,1,95,2020-10-23T15:13:03-07:00,1.9252948760986,3,Pure_Unrelated.csv,Control_VersionA.csv,"Control A","Control A",JUSTICE,MAROON,Study1,U,6,21,Test,User,-,,Recall,Recall1,1446,,0,-1,-1,0,0,,,1
5f5714975783961908276de3,9l5yf1l5ax,Trevor_EX2,1,96,2020-10-23T15:13:05-07:00,1.7378530502319,3,Pure_Unrelated.csv,Control_VersionA.csv,"Control A","Control A",RIPE,VERIFY,Study1,U,83,33,Test,User,-,,Recall,Recall1,1261,,0,-1,-1,0,0,,,1
5f5714975783961908276de3,9l5yf1l5ax,Trevor_EX2,1,97,2020-10-23T15:13:07-07:00,2.3308680057526,3,Pure_Unrelated.csv,Control_VersionA.csv,"Control A","Control A",PET,MOON,Study1,U,74,42,Test,User,-,,Recall,Recall1,1820,,0,-1,-1,0,0,,,1
5f5714975783961908276de3,9l5yf1l5ax,Trevor_EX2,1,98,2020-10-23T15:13:14-07:00,7.1923398971558,3,Pure_Unrelated.csv,Control_VersionA.csv,"Control A","Control A",DEGREE,CHAIR,Study1,U,71,17,Test,User,-,,Recall,Recall1,6676,,0,-1,-1,0,0,,,1
5f5714975783961908276de3,9l5yf1l5ax,Trevor_EX2,1,99,2020-10-23T15:13:26-07:00,11.997486114502,3,Pure_Unrelated.csv,Control_VersionA.csv,"Control A","Control A",,,,,,0,Instruct,-,10,"You will now be presented with a new set of word pairs. Please study each pair. Remember that your memory will be tested! When finished, press Enter to move to the next pair.",Initial_Instruct,Instruct4,11516,,,-1,-1,,,,,1
5f5714975783961908276de3,9l5yf1l5ax,Trevor_EX2,1,100,2020-10-23T15:13:38-07:00,11.406677961349,3,Pure_Unrelated.csv,Control_VersionA.csv,"Control A","Control A",,,,,,0,Instruct,,10,"You will again be asked to rate your ability to remember these items using a 0 to 100 scale. Remember to use the full range of the scale!",,Instruct10,10969,,,-1,-1,,,,,1
5f5714975783961908276de3,9l5yf1l5ax,Trevor_EX2,1,101,2020-10-23T15:13:41-07:00,3.1793670654297,3,Pure_Unrelated.csv,Control_VersionA.csv,"Control A","Control A",,,,,,0,Instruct,User,-,"Press Enter when you are readty to begin",,Instruct11,2642,,,-1,-1,,,,,1
5f5714975783961908276de3,9l5yf1l5ax,Trevor_EX2,1,102,2020-10-23T15:13:48-07:00,7.2670240402222,3,Pure_Unrelated.csv,Control_VersionA.csv,"Control A","Control A",CAMP,ADVENTURE,BUFFER3,Buffer,95,52,JOL,User,-,"How likely are you to correctly recall the second item in the pair?|Type your response on a scale from 0-100 and then press Enter.",Study/JOL,BUFFER3,6745,,,5144,5217,,,,60,1
5f5714975783961908276de3,9l5yf1l5ax,Trevor_EX2,1,103,2020-10-23T15:13:54-07:00,6.1915760040283,3,Pure_Unrelated.csv,Control_VersionA.csv,"Control A","Control A",SHRIMP,FISH,BUFFER3,Buffer,93,55,JOL,User,-,"How likely are you to correctly recall the second item in the pair?|Type your response on a scale from 0-100 and then press Enter.",Study/JOL,BUFFER3,5674,,,4419,4541,,,,70,1
5f5714975783961908276de3,9l5yf1l5ax,Trevor_EX2,1,104,2020-10-23T15:14:00-07:00,5.3699200153351,3,Pure_Unrelated.csv,Control_VersionA.csv,"Control A","Control A",ICE,FROZEN,BUFFER3,Buffer,94,56,JOL,User,-,"How likely are you to correctly recall the second item in the pair?|Type your response on a scale from 0-100 and then press Enter.",Study/JOL,BUFFER3,4855,,,3754,3829,,,,70,1
5f5714975783961908276de3,9l5yf1l5ax,Trevor_EX2,1,105,2020-10-23T15:14:03-07:00,3.9115569591522,3,Pure_Unrelated.csv,Control_VersionA.csv,"Control A","Control A",NOODLE,STRING,BUFFER3,Buffer,92,54,JOL,User,-,"How likely are you to correctly recall the second item in the pair?|Type your response on a scale from 0-100 and then press Enter.",Study/JOL,BUFFER3,3381,,,2212,2321,,,,50,1
5f5714975783961908276de3,9l5yf1l5ax,Trevor_EX2,1,106,2020-10-23T15:14:08-07:00,4.163281917572,3,Pure_Unrelated.csv,Control_VersionA.csv,"Control A","Control A",CARROT,POTATO,BUFFER3,Buffer,91,53,JOL,User,-,"How likely are you to correctly recall the second item in the pair?|Type your response on a scale from 0-100 and then press Enter.",Study/JOL,BUFFER3,3643,,,1829,1917,,,,40,1
5f5714975783961908276de3,9l5yf1l5ax,Trevor_EX2,1,107,2020-10-23T15:14:13-07:00,5.4007749557495,3,Pure_Unrelated.csv,Control_VersionA.csv,"Control A","Control A",RIDDLE,SUGAR,Study2,U,111,88,JOL,User,-,"How likely are you to correctly recall the second item in the pair?|Type your response on a scale from 0-100 and then press Enter.",Study/JOL,"Study Phase2",3897,,,2584,2678,,,,10,1
5f5714975783961908276de3,9l5yf1l5ax,Trevor_EX2,1,108,2020-10-23T15:14:18-07:00,5.402214050293,3,Pure_Unrelated.csv,Control_VersionA.csv,"Control A","Control A",FLOOR,DISCOVER,Study2,U,101,57,JOL,User,-,"How likely are you to correctly recall the second item in the pair?|Type your response on a scale from 0-100 and then press Enter.",Study/JOL,"Study Phase2",4953,,,4151,4292,,,,10,1
5f5714975783961908276de3,9l5yf1l5ax,Trevor_EX2,1,109,2020-10-23T15:14:22-07:00,3.7504839897156,3,Pure_Unrelated.csv,Control_VersionA.csv,"Control A","Control A",PUT,ROLL,Study2,U,163,84,JOL,User,-,"How likely are you to correctly recall the second item in the pair?|Type your response on a scale from 0-100 and then press Enter.",Study/JOL,"Study Phase2",3260,,,2523,2523,,,,5,1
5f5714975783961908276de3,9l5yf1l5ax,Trevor_EX2,1,110,2020-10-23T15:14:26-07:00,3.5650069713593,3,Pure_Unrelated.csv,Control_VersionA.csv,"Control A","Control A",JELLY,NAUGHTY,Study2,U,172,64,JOL,User,-,"How likely are you to correctly recall the second item in the pair?|Type your response on a scale from 0-100 and then press Enter.",Study/JOL,"Study Phase2",3051,,,2427,2427,,,,5,1
5f5714975783961908276de3,9l5yf1l5ax,Trevor_EX2,1,111,2020-10-23T15:14:31-07:00,5.4819741249084,3,Pure_Unrelated.csv,Control_VersionA.csv,"Control A","Control A",VASE,KING,Study2,U,115,61,JOL,User,-,"How likely are you to correctly recall the second item in the pair?|Type your response on a scale from 0-100 and then press Enter.",Study/JOL,"Study Phase2",4976,,,3825,3948,,,,10,1
5f5714975783961908276de3,9l5yf1l5ax,Trevor_EX2,1,112,2020-10-23T15:14:38-07:00,7.0815169811249,3,Pure_Unrelated.csv,Control_VersionA.csv,"Control A","Control A",HAND,FIX,Study2,U,105,80,JOL,User,-,"How likely are you to correctly recall the second item in the pair?|Type your response on a scale from 0-100 and then press Enter.",Study/JOL,"Study Phase2",6590,,,2936,5784,,,,30,1
5f5714975783961908276de3,9l5yf1l5ax,Trevor_EX2,1,113,2020-10-23T15:14:44-07:00,5.6718020439148,3,Pure_Unrelated.csv,Control_VersionA.csv,"Control A","Control A",ACCIDENT,STRONG,Study2,U,110,92,JOL,User,-,"How likely are you to correctly recall the second item in the pair?|Type your response on a scale from 0-100 and then press Enter.",Study/JOL,"Study Phase2",5173,,,2837,4371,,,,10,1
5f5714975783961908276de3,9l5yf1l5ax,Trevor_EX2,1,114,2020-10-23T15:14:48-07:00,4.4798758029938,3,Pure_Unrelated.csv,Control_VersionA.csv,"Control A","Control A",WOULD,CASH,Study2,U,113,87,JOL,User,-,"How likely are you to correctly recall the second item in the pair?|Type your response on a scale from 0-100 and then press Enter.",Study/JOL,"Study Phase2",4011,,,2204,2204,,,,5,1
5f5714975783961908276de3,9l5yf1l5ax,Trevor_EX2,1,115,2020-10-23T15:14:53-07:00,4.0799422264099,3,Pure_Unrelated.csv,Control_VersionA.csv,"Control A","Control A",SYSTEM,LICK,Study2,U,167,91,JOL,User,-,"How likely are you to correctly recall the second item in the pair?|Type your response on a scale from 0-100 and then press Enter.",Study/JOL,"Study Phase2",3573,,,2854,2854,,,,3,1
5f5714975783961908276de3,9l5yf1l5ax,Trevor_EX2,1,116,2020-10-23T15:14:59-07:00,5.9809877872467,3,Pure_Unrelated.csv,Control_VersionA.csv,"Control A","Control A",SMOOTH,OMIT,Study2,U,157,62,JOL,User,-,"How likely are you to correctly recall the second item in the pair?|Type your response on a scale from 0-100 and then press Enter.",Study/JOL,"Study Phase2",5500,,,1963,3413,,,,1,1
5f5714975783961908276de3,9l5yf1l5ax,Trevor_EX2,1,117,2020-10-23T15:15:03-07:00,4.9263432025909,3,Pure_Unrelated.csv,Control_VersionA.csv,"Control A","Control A",MUTE,WAVE,Study2,U,173,59,JOL,User,-,"How likely are you to correctly recall the second item in the pair?|Type your response on a scale from 0-100 and then press Enter.",Study/JOL,"Study Phase2",4428,,,3728,3728,,,,5,1
5f5714975783961908276de3,9l5yf1l5ax,Trevor_EX2,1,118,2020-10-23T15:15:09-07:00,5.2025339603424,3,Pure_Unrelated.csv,Control_VersionA.csv,"Control A","Control A",SPELL,BONE,Study2,U,174,79,JOL,User,-,"How likely are you to correctly recall the second item in the pair?|Type your response on a scale from 0-100 and then press Enter.",Study/JOL,"Study Phase2",4660,,,3828,3828,,,,2,1
5f5714975783961908276de3,9l5yf1l5ax,Trevor_EX2,1,119,2020-10-23T15:15:13-07:00,4.2253160476685,3,Pure_Unrelated.csv,Control_VersionA.csv,"Control A","Control A",DESIRE,NOISE,Study2,U,169,89,JOL,User,-,"How likely are you to correctly recall the second item in the pair?|Type your response on a scale from 0-100 and then press Enter.",Study/JOL,"Study Phase2",3781,,,2744,2888,,,,10,1
5f5714975783961908276de3,9l5yf1l5ax,Trevor_EX2,1,120,2020-10-23T15:15:19-07:00,5.6855089664459,3,Pure_Unrelated.csv,Control_VersionA.csv,"Control A","Control A",POSITION,MACHINE,Study2,U,106,63,JOL,User,-,"How likely are you to correctly recall the second item in the pair?|Type your response on a scale from 0-100 and then press Enter.",Study/JOL,"Study Phase2",5171,,,4292,4500,,,,20,1
5f5714975783961908276de3,9l5yf1l5ax,Trevor_EX2,1,121,2020-10-23T15:15:26-07:00,7.7557878494263,3,Pure_Unrelated.csv,Control_VersionA.csv,"Control A","Control A",SICK,HIDE,Study2,U,114,95,JOL,User,-,"How likely are you to correctly recall the second item in the pair?|Type your response on a scale from 0-100 and then press Enter.",Study/JOL,"Study Phase2",7340,,,2703,6283,,,,20,1
5f5714975783961908276de3,9l5yf1l5ax,Trevor_EX2,1,122,2020-10-23T15:15:31-07:00,4.8618240356445,3,Pure_Unrelated.csv,Control_VersionA.csv,"Control A","Control A",STOMACH,TOWN,Study2,U,159,77,JOL,User,-,"How likely are you to correctly recall the second item in the pair?|Type your response on a scale from 0-100 and then press Enter.",Study/JOL,"Study Phase2",4311,,,3464,3622,,,,10,1
5f5714975783961908276de3,9l5yf1l5ax,Trevor_EX2,1,123,2020-10-23T15:15:35-07:00,3.6441860198975,3,Pure_Unrelated.csv,Control_VersionA.csv,"Control A","Control A",TUCK,ALLOW,Study2,U,108,66,JOL,User,-,"How likely are you to correctly recall the second item in the pair?|Type your response on a scale from 0-100 and then press Enter.",Study/JOL,"Study Phase2",3156,,,2219,2219,,,,1,1
5f5714975783961908276de3,9l5yf1l5ax,Trevor_EX2,1,124,2020-10-23T15:15:42-07:00,7.6081600189209,3,Pure_Unrelated.csv,Control_VersionA.csv,"Control A","Control A",MUTE,WAVE,Study2,U,173,59,JOL,User,-,"How likely are you to correctly recall the second item in the pair?|Type your response on a scale from 0-100 and then press Enter.",Study/JOL,"Study Phase2",7107,,,5357,5357,,,,5,1
5f5714975783961908276de3,9l5yf1l5ax,Trevor_EX2,1,125,2020-10-23T15:15:50-07:00,8.0444030761719,3,Pure_Unrelated.csv,Control_VersionA.csv,"Control A","Control A",Business,Death,Study2,U,102,96,JOL,User,-,"How likely are you to correctly recall the second item in the pair?|Type your response on a scale from 0-100 and then press Enter.",Study/JOL,"Study Phase2",7561,,,6641,6824,,,,10,1
5f5714975783961908276de3,9l5yf1l5ax,Trevor_EX2,1,126,2020-10-23T15:15:58-07:00,7.2812099456787,3,Pure_Unrelated.csv,Control_VersionA.csv,"Control A","Control A",ROAD,SCENT,Study2,U,166,68,JOL,User,-,"How likely are you to correctly recall the second item in the pair?|Type your response on a scale from 0-100 and then press Enter.",Study/JOL,"Study Phase2",6902,,,5321,6303,,,,10,1
5f5714975783961908276de3,9l5yf1l5ax,Trevor_EX2,1,127,2020-10-23T15:16:02-07:00,4.3322899341583,3,Pure_Unrelated.csv,Control_VersionA.csv,"Control A","Control A",NULL,COUGH,Study2,U,156,82,JOL,User,-,"How likely are you to correctly recall the second item in the pair?|Type your response on a scale from 0-100 and then press Enter.",Study/JOL,"Study Phase2",3815,,,2472,2984,,,,5,1
5f5714975783961908276de3,9l5yf1l5ax,Trevor_EX2,1,128,2020-10-23T15:16:06-07:00,3.8732619285583,3,Pure_Unrelated.csv,Control_VersionA.csv,"Control A","Control A",READY,CORN,Study2,U,158,81,JOL,User,-,"How likely are you to correctly recall the second item in the pair?|Type your response on a scale from 0-100 and then press Enter.",Study/JOL,"Study Phase2",3442,,,2310,2311,,,,3,1
5f5714975783961908276de3,9l5yf1l5ax,Trevor_EX2,1,129,2020-10-23T15:16:11-07:00,5.2566330432892,3,Pure_Unrelated.csv,Control_VersionA.csv,"Control A","Control A",GUARD,WHEEL,Study2,U,170,93,JOL,User,-,"How likely are you to correctly recall the second item in the pair?|Type your response on a scale from 0-100 and then press Enter.",Study/JOL,"Study Phase2",4772,,,4001,4001,,,,2,1
5f5714975783961908276de3,9l5yf1l5ax,Trevor_EX2,1,130,2020-10-23T15:16:15-07:00,3.3835470676422,3,Pure_Unrelated.csv,Control_VersionA.csv,"Control A","Control A",ADD,VALLEY,Study2,U,112,60,JOL,User,-,"How likely are you to correctly recall the second item in the pair?|Type your response on a scale from 0-100 and then press Enter.",Study/JOL,"Study Phase2",2791,,,1590,1590,,,,1,1
5f5714975783961908276de3,9l5yf1l5ax,Trevor_EX2,1,131,2020-10-23T15:16:20-07:00,5.8109729290009,3,Pure_Unrelated.csv,Control_VersionA.csv,"Control A","Control A",BRONZE,ARTERY,Study2,U,104,83,JOL,User,-,"How likely are you to correctly recall the second item in the pair?|Type your response on a scale from 0-100 and then press Enter.",Study/JOL,"Study Phase2",5370,,,4318,4682,,,,15,1
5f5714975783961908276de3,9l5yf1l5ax,Trevor_EX2,1,132,2020-10-23T15:16:24-07:00,3.9648900032043,3,Pure_Unrelated.csv,Control_VersionA.csv,"Control A","Control A",DETECT,FREE,Study2,U,162,69,JOL,User,-,"How likely are you to correctly recall the second item in the pair?|Type your response on a scale from 0-100 and then press Enter.",Study/JOL,"Study Phase2",3516,,,2250,2250,,,,2,1
5f5714975783961908276de3,9l5yf1l5ax,Trevor_EX2,1,133,2020-10-23T15:16:31-07:00,7.0267560482025,3,Pure_Unrelated.csv,Control_VersionA.csv,"Control A","Control A",CAR,HAPPY,Study2,U,107,73,JOL,User,-,"How likely are you to correctly recall the second item in the pair?|Type your response on a scale from 0-100 and then press Enter.",Study/JOL,"Study Phase2",6545,,,3565,5866,,,,30,1
5f5714975783961908276de3,9l5yf1l5ax,Trevor_EX2,1,134,2020-10-23T15:16:35-07:00,4.0821580886841,3,Pure_Unrelated.csv,Control_VersionA.csv,"Control A","Control A",BELT,SOON,Study2,U,100,72,JOL,User,-,"How likely are you to correctly recall the second item in the pair?|Type your response on a scale from 0-100 and then press Enter.",Study/JOL,"Study Phase2",3603,,,2908,2909,,,,5,1
5f5714975783961908276de3,9l5yf1l5ax,Trevor_EX2,1,135,2020-10-23T15:16:39-07:00,3.7766919136047,3,Pure_Unrelated.csv,Control_VersionA.csv,"Control A","Control A",ZOO,THUMB,Study2,U,168,71,JOL,User,-,"How likely are you to correctly recall the second item in the pair?|Type your response on a scale from 0-100 and then press Enter.",Study/JOL,"Study Phase2",3277,,,2536,2615,,,,10,1
5f5714975783961908276de3,9l5yf1l5ax,Trevor_EX2,1,136,2020-10-23T15:16:47-07:00,7.2956581115723,3,Pure_Unrelated.csv,Control_VersionA.csv,"Control A","Control A",HUNGRY,PARK,Study2,U,98,70,JOL,User,-,"How likely are you to correctly recall the second item in the pair?|Type your response on a scale from 0-100 and then press Enter.",Study/JOL,"Study Phase2",5786,,,3007,3202,,,,30,1
5f5714975783961908276de3,9l5yf1l5ax,Trevor_EX2,1,137,2020-10-23T15:16:51-07:00,4.0499129295349,3,Pure_Unrelated.csv,Control_VersionA.csv,"Control A","Control A",SLIM,KNOW,Study2,U,164,86,JOL,User,-,"How likely are you to correctly recall the second item in the pair?|Type your response on a scale from 0-100 and then press Enter.",Study/JOL,"Study Phase2",3410,,,2769,2769,,,,5,1
5f5714975783961908276de3,9l5yf1l5ax,Trevor_EX2,1,138,2020-10-23T15:16:54-07:00,3.7222290039062,3,Pure_Unrelated.csv,Control_VersionA.csv,"Control A","Control A",WOMAN,LIFT,Study2,U,99,75,JOL,User,-,"How likely are you to correctly recall the second item in the pair?|Type your response on a scale from 0-100 and then press Enter.",Study/JOL,"Study Phase2",3230,,,2458,2628,,,,10,1
5f5714975783961908276de3,9l5yf1l5ax,Trevor_EX2,1,139,2020-10-23T15:16:59-07:00,4.2718629837036,3,Pure_Unrelated.csv,Control_VersionA.csv,"Control A","Control A",SACKING,DIETARY,Study2,U,97,67,JOL,User,-,"How likely are you to correctly recall the second item in the pair?|Type your response on a scale from 0-100 and then press Enter.",Study/JOL,"Study Phase2",3784,,,2586,2586,,,,0,1
5f5714975783961908276de3,9l5yf1l5ax,Trevor_EX2,1,140,2020-10-23T15:17:04-07:00,5.8769218921661,3,Pure_Unrelated.csv,Control_VersionA.csv,"Control A","Control A",SIGHT,DEBATE,Study2,U,103,78,JOL,User,-,"How likely are you to correctly recall the second item in the pair?|Type your response on a scale from 0-100 and then press Enter.",Study/JOL,"Study Phase2",3433,,,2721,2721,,,,5,1
5f5714975783961908276de3,9l5yf1l5ax,Trevor_EX2,1,141,2020-10-23T15:17:08-07:00,3.6744351387024,3,Pure_Unrelated.csv,Control_VersionA.csv,"Control A","Control A",CLUTTER,PUSHER,Study2,U,96,74,JOL,User,-,"How likely are you to correctly recall the second item in the pair?|Type your response on a scale from 0-100 and then press Enter.",Study/JOL,"Study Phase2",2978,,,2340,2340,,,,0,1
5f5714975783961908276de3,9l5yf1l5ax,Trevor_EX2,1,142,2020-10-23T15:17:12-07:00,4.2405819892883,3,Pure_Unrelated.csv,Control_VersionA.csv,"Control A","Control A",LAKE,OPINION,Study2,U,160,76,JOL,User,-,"How likely are you to correctly recall the second item in the pair?|Type your response on a scale from 0-100 and then press Enter.",Study/JOL,"Study Phase2",3752,,,2774,2774,,,,5,1
5f5714975783961908276de3,9l5yf1l5ax,Trevor_EX2,1,143,2020-10-23T15:17:18-07:00,5.9957950115204,3,Pure_Unrelated.csv,Control_VersionA.csv,"Control A","Control A",WASTE,SEDATE,Study2,U,165,85,JOL,User,-,"How likely are you to correctly recall the second item in the pair?|Type your response on a scale from 0-100 and then press Enter.",Study/JOL,"Study Phase2",5490,,,4475,4475,,,,5,1
5f5714975783961908276de3,9l5yf1l5ax,Trevor_EX2,1,144,2020-10-23T15:17:23-07:00,4.1713149547577,3,Pure_Unrelated.csv,Control_VersionA.csv,"Control A","Control A",PUFF,NUMBER,Study2,U,171,94,JOL,User,-,"How likely are you to correctly recall the second item in the pair?|Type your response on a scale from 0-100 and then press Enter.",Study/JOL,"Study Phase2",3651,,,2960,2960,,,,2,1
5f5714975783961908276de3,9l5yf1l5ax,Trevor_EX2,1,145,2020-10-23T15:17:30-07:00,7.2342700958252,3,Pure_Unrelated.csv,Control_VersionA.csv,"Control A","Control A",FLOAT,HARMONY,Study2,U,161,90,JOL,User,-,"How likely are you to correctly recall the second item in the pair?|Type your response on a scale from 0-100 and then press Enter.",Study/JOL,"Study Phase2",6809,,,4551,4551,,,,2,1
5f5714975783961908276de3,9l5yf1l5ax,Trevor_EX2,1,146,2020-10-23T15:17:33-07:00,3.0999279022217,3,Pure_Unrelated.csv,Control_VersionA.csv,"Control A","Control A",SWING,FOG,Study2,U,175,65,JOL,User,-,"How likely are you to correctly recall the second item in the pair?|Type your response on a scale from 0-100 and then press Enter.",Study/JOL,"Study Phase2",2612,,,1930,1930,,,,2,1
5f5714975783961908276de3,9l5yf1l5ax,Trevor_EX2,1,147,2020-10-23T15:17:38-07:00,4.8551359176636,3,Pure_Unrelated.csv,Control_VersionA.csv,"Control A","Control A",DAYS,WEEKS,BUFFER4,Buffer,176,100,JOL,User,-,"How likely are you to correctly recall the second item in the pair?|Type your response on a scale from 0-100 and then press Enter.",Study/JOL,BUFFER4,4349,,,3344,3545,,,,90,1
5f5714975783961908276de3,9l5yf1l5ax,Trevor_EX2,1,148,2020-10-23T15:17:43-07:00,5.3998301029205,3,Pure_Unrelated.csv,Control_VersionA.csv,"Control A","Control A",TOOL,SHED,BUFFER4,Buffer,178,98,JOL,User,-,"How likely are you to correctly recall the second item in the pair?|Type your response on a scale from 0-100 and then press Enter.",Study/JOL,BUFFER4,4961,,,3290,3446,,,,90,1
5f5714975783961908276de3,9l5yf1l5ax,Trevor_EX2,1,149,2020-10-23T15:17:49-07:00,6.1784338951111,3,Pure_Unrelated.csv,Control_VersionA.csv,"Control A","Control A",SPRING,MARCH,BUFFER4,Buffer,179,101,JOL,User,-,"How likely are you to correctly recall the second item in the pair?|Type your response on a scale from 0-100 and then press Enter.",Study/JOL,BUFFER4,5682,,,3248,3333,,,,70,1
5f5714975783961908276de3,9l5yf1l5ax,Trevor_EX2,1,150,2020-10-23T15:17:54-07:00,4.4980549812317,3,Pure_Unrelated.csv,Control_VersionA.csv,"Control A","Control A",OCTOBER,SPOOKY,BUFFER4,Buffer,180,97,JOL,User,-,"How likely are you to correctly recall the second item in the pair?|Type your response on a scale from 0-100 and then press Enter.",Study/JOL,BUFFER4,3993,,,3030,3252,,,,80,1
5f5714975783961908276de3,9l5yf1l5ax,Trevor_EX2,1,151,2020-10-23T15:17:57-07:00,3.5116691589355,3,Pure_Unrelated.csv,Control_VersionA.csv,"Control A","Control A",MONTH,YEAR,BUFFER4,Buffer,177,99,JOL,User,-,"How likely are you to correctly recall the second item in the pair?|Type your response on a scale from 0-100 and then press Enter.",Study/JOL,BUFFER4,2999,,,1871,2021,,,,90,1
5f5714975783961908276de3,9l5yf1l5ax,Trevor_EX2,1,152,2020-10-23T15:17:59-07:00,1.771714925766,3,Pure_Unrelated.csv,Control_VersionA.csv,"Control A","Control A",,,,,,0,Instruct,User,-,"You have completed this section. Please press Enter.",Filler_Instruction,Instruct5,1288,,,-1,-1,,,,,1
5f5714975783961908276de3,9l5yf1l5ax,Trevor_EX2,1,153,2020-10-23T15:20:00-07:00,120.57619905472,3,Pure_Unrelated.csv,Control_VersionA.csv,"Control A","Control A",,,,,,0,FreeRecall,120,120,"Please list the 50 US states in reverse alphabetical order (z - a). The task will automatically advance to the next screen after two minutes.",,Filler2,120009,"Wyoming Wisconsin West Virginia ",0,93696,117602,0,0,,,0.54
5f5714975783961908276de3,9l5yf1l5ax,Trevor_EX2,1,154,2020-10-23T15:20:12-07:00,12.07226395607,3,Pure_Unrelated.csv,Control_VersionA.csv,"Control A","Control A",,,,,,0,Instruct,-,10,"You will now be presented with the first word from each of the previously studied item pairs. Please type the missing word. If you do not know the word, you may guess or press Enter to skip forward to the next pair.",,Instruct6,11524,,,-1,-1,,,,,1
5f5714975783961908276de3,9l5yf1l5ax,Trevor_EX2,1,155,2020-10-23T15:20:18-07:00,6.1839849948883,3,Pure_Unrelated.csv,Control_VersionA.csv,"Control A","Control A",NULL,COUGH,Study2,U,156,82,Test,User,-,,Recall,Recall2,5475,,0,-1,-1,0,0,,,1
5f5714975783961908276de3,9l5yf1l5ax,Trevor_EX2,1,156,2020-10-23T15:20:27-07:00,8.684807062149,3,Pure_Unrelated.csv,Control_VersionA.csv,"Control A","Control A",Business,Death,Study2,U,102,96,Test,User,-,,Recall,Recall2,8217,DEATH,100,2932,7146,1,1,,,1
5f5714975783961908276de3,9l5yf1l5ax,Trevor_EX2,1,157,2020-10-23T15:20:30-07:00,2.9250218868256,3,Pure_Unrelated.csv,Control_VersionA.csv,"Control A","Control A",FLOAT,HARMONY,Study2,U,161,90,Test,User,-,,Recall,Recall2,2474,,0,-1,-1,0,0,,,1
5f5714975783961908276de3,9l5yf1l5ax,Trevor_EX2,1,158,2020-10-23T15:20:32-07:00,2.3296740055084,3,Pure_Unrelated.csv,Control_VersionA.csv,"Control A","Control A",PUT,ROLL,Study2,U,163,84,Test,User,-,,Recall,Recall2,1839,,0,-1,-1,0,0,,,1
5f5714975783961908276de3,9l5yf1l5ax,Trevor_EX2,1,159,2020-10-23T15:20:35-07:00,2.9394669532776,3,Pure_Unrelated.csv,Control_VersionA.csv,"Control A","Control A",WASTE,SEDATE,Study2,U,165,85,Test,User,-,,Recall,Recall2,2477,,0,-1,-1,0,0,,,1
5f5714975783961908276de3,9l5yf1l5ax,Trevor_EX2,1,160,2020-10-23T15:20:37-07:00,2.1898591518402,3,Pure_Unrelated.csv,Control_VersionA.csv,"Control A","Control A",SPELL,BONE,Study2,U,174,79,Test,User,-,,Recall,Recall2,1672,,0,-1,-1,0,0,,,1
5f5714975783961908276de3,9l5yf1l5ax,Trevor_EX2,1,161,2020-10-23T15:20:39-07:00,1.8113870620728,3,Pure_Unrelated.csv,Control_VersionA.csv,"Control A","Control A",FLOOR,DISCOVER,Study2,U,101,57,Test,User,-,,Recall,Recall2,1320,,0,-1,-1,0,0,,,1
5f5714975783961908276de3,9l5yf1l5ax,Trevor_EX2,1,162,2020-10-23T15:20:40-07:00,1.5426998138428,3,Pure_Unrelated.csv,Control_VersionA.csv,"Control A","Control A",JELLY,NAUGHTY,Study2,U,172,64,Test,User,-,,Recall,Recall2,1093,,0,-1,-1,0,0,,,1
5f5714975783961908276de3,9l5yf1l5ax,Trevor_EX2,1,163,2020-10-23T15:20:46-07:00,5.2540140151978,3,Pure_Unrelated.csv,Control_VersionA.csv,"Control A","Control A",ZOO,THUMB,Study2,U,168,71,Test,User,-,,Recall,Recall2,4781,THUMB,100,1491,3773,1,1,,,1
5f5714975783961908276de3,9l5yf1l5ax,Trevor_EX2,1,164,2020-10-23T15:20:48-07:00,2.307685136795,3,Pure_Unrelated.csv,Control_VersionA.csv,"Control A","Control A",ACCIDENT,STRONG,Study2,U,110,92,Test,User,-,,Recall,Recall2,1818,,0,-1,-1,0,0,,,1
5f5714975783961908276de3,9l5yf1l5ax,Trevor_EX2,1,165,2020-10-23T15:20:50-07:00,1.920266866684,3,Pure_Unrelated.csv,Control_VersionA.csv,"Control A","Control A",RIDDLE,SUGAR,Study2,U,111,88,Test,User,-,,Recall,Recall2,1445,,0,-1,-1,0,0,,,1
5f5714975783961908276de3,9l5yf1l5ax,Trevor_EX2,1,166,2020-10-23T15:20:51-07:00,1.6362020969391,3,Pure_Unrelated.csv,Control_VersionA.csv,"Control A","Control A",DETECT,FREE,Study2,U,162,69,Test,User,-,,Recall,Recall2,1143,,0,-1,-1,0,0,,,1
5f5714975783961908276de3,9l5yf1l5ax,Trevor_EX2,1,167,2020-10-23T15:20:55-07:00,3.2690708637238,3,Pure_Unrelated.csv,Control_VersionA.csv,"Control A","Control A",GUARD,WHEEL,Study2,U,170,93,Test,User,-,,Recall,Recall2,2783,,0,-1,-1,0,0,,,1
5f5714975783961908276de3,9l5yf1l5ax,Trevor_EX2,1,168,2020-10-23T15:20:57-07:00,2.4212050437927,3,Pure_Unrelated.csv,Control_VersionA.csv,"Control A","Control A",STOMACH,TOWN,Study2,U,159,77,Test,User,-,,Recall,Recall2,1939,,0,-1,-1,0,0,,,1
5f5714975783961908276de3,9l5yf1l5ax,Trevor_EX2,1,169,2020-10-23T15:20:59-07:00,1.8165521621704,3,Pure_Unrelated.csv,Control_VersionA.csv,"Control A","Control A",DESIRE,NOISE,Study2,U,169,89,Test,User,-,,Recall,Recall2,1282,,0,-1,-1,0,0,,,1
5f5714975783961908276de3,9l5yf1l5ax,Trevor_EX2,1,170,2020-10-23T15:21:03-07:00,3.9704928398132,3,Pure_Unrelated.csv,Control_VersionA.csv,"Control A","Control A",SWING,FOG,Study2,U,175,65,Test,User,-,,Recall,Recall2,3442,FOG,100,2105,2346,1,1,,,1
5f5714975783961908276de3,9l5yf1l5ax,Trevor_EX2,1,171,2020-10-23T15:21:05-07:00,1.8258199691772,3,Pure_Unrelated.csv,Control_VersionA.csv,"Control A","Control A",SYSTEM,LICK,Study2,U,167,91,Test,User,-,,Recall,Recall2,1312,,0,-1,-1,0,0,,,1
5f5714975783961908276de3,9l5yf1l5ax,Trevor_EX2,1,172,2020-10-23T15:21:07-07:00,2.0441930294037,3,Pure_Unrelated.csv,Control_VersionA.csv,"Control A","Control A",BELT,SOON,Study2,U,100,72,Test,User,-,,Recall,Recall2,1569,,0,-1,-1,0,0,,,1
5f5714975783961908276de3,9l5yf1l5ax,Trevor_EX2,1,173,2020-10-23T15:21:09-07:00,2.2106051445007,3,Pure_Unrelated.csv,Control_VersionA.csv,"Control A","Control A",ROAD,SCENT,Study2,U,166,68,Test,User,-,,Recall,Recall2,1713,,0,-1,-1,0,0,,,1
5f5714975783961908276de3,9l5yf1l5ax,Trevor_EX2,1,174,2020-10-23T15:21:12-07:00,2.5984749794006,3,Pure_Unrelated.csv,Control_VersionA.csv,"Control A","Control A",SLIM,KNOW,Study2,U,164,86,Test,User,-,,Recall,Recall2,2121,,0,-1,-1,0,0,,,1
5f5714975783961908276de3,9l5yf1l5ax,Trevor_EX2,1,175,2020-10-23T15:21:17-07:00,5.0334219932556,3,Pure_Unrelated.csv,Control_VersionA.csv,"Control A","Control A",BRONZE,ARTERY,Study2,U,104,83,Test,User,-,,Recall,Recall2,4514,ARTERY,100,1663,3174,1,1,,,1
5f5714975783961908276de3,9l5yf1l5ax,Trevor_EX2,1,176,2020-10-23T15:21:19-07:00,2.3415110111237,3,Pure_Unrelated.csv,Control_VersionA.csv,"Control A","Control A",LAKE,OPINION,Study2,U,160,76,Test,User,-,,Recall,Recall2,1904,,0,-1,-1,0,0,,,1
5f5714975783961908276de3,9l5yf1l5ax,Trevor_EX2,1,177,2020-10-23T15:21:22-07:00,3.0171959400177,3,Pure_Unrelated.csv,Control_VersionA.csv,"Control A","Control A",CAR,HAPPY,Study2,U,107,73,Test,User,-,,Recall,Recall2,2556,,0,-1,-1,0,0,,,1
5f5714975783961908276de3,9l5yf1l5ax,Trevor_EX2,1,178,2020-10-23T15:21:25-07:00,3.0991098880768,3,Pure_Unrelated.csv,Control_VersionA.csv,"Control A","Control A",SICK,HIDE,Study2,U,114,95,Test,User,-,,Recall,Recall2,2629,,0,-1,-1,0,0,,,1
5f5714975783961908276de3,9l5yf1l5ax,Trevor_EX2,1,179,2020-10-23T15:21:28-07:00,2.3944411277771,3,Pure_Unrelated.csv,Control_VersionA.csv,"Control A","Control A",ADD,VALLEY,Study2,U,112,60,Test,User,-,,Recall,Recall2,1908,,0,-1,-1,0,0,,,1
5f5714975783961908276de3,9l5yf1l5ax,Trevor_EX2,1,180,2020-10-23T15:21:31-07:00,3.1095280647278,3,Pure_Unrelated.csv,Control_VersionA.csv,"Control A","Control A",SACKING,DIETARY,Study2,U,97,67,Test,User,-,,Recall,Recall2,2616,,0,-1,-1,0,0,,,1
5f5714975783961908276de3,9l5yf1l5ax,Trevor_EX2,1,181,2020-10-23T15:21:42-07:00,11.567399978638,3,Pure_Unrelated.csv,Control_VersionA.csv,"Control A","Control A",MUTE,WAVE,Study2,U,173,59,Test,User,-,,Recall,Recall2,11030,,0,4853,6505,0,0,,,1
5f5714975783961908276de3,9l5yf1l5ax,Trevor_EX2,1,182,2020-10-23T15:21:45-07:00,2.6309378147125,3,Pure_Unrelated.csv,Control_VersionA.csv,"Control A","Control A",VASE,KING,Study2,U,115,61,Test,User,-,,Recall,Recall2,2122,,0,-1,-1,0,0,,,1
5f5714975783961908276de3,9l5yf1l5ax,Trevor_EX2,1,183,2020-10-23T15:21:50-07:00,5.2136490345001,3,Pure_Unrelated.csv,Control_VersionA.csv,"Control A","Control A",PUFF,NUMBER,Study2,U,171,94,Test,User,-,,Recall,Recall2,4708,,0,-1,-1,0,0,,,1
5f5714975783961908276de3,9l5yf1l5ax,Trevor_EX2,1,184,2020-10-23T15:21:52-07:00,1.9066741466522,3,Pure_Unrelated.csv,Control_VersionA.csv,"Control A","Control A",WOULD,CASH,Study2,U,113,87,Test,User,-,,Recall,Recall2,1420,,0,-1,-1,0,0,,,1
5f5714975783961908276de3,9l5yf1l5ax,Trevor_EX2,1,185,2020-10-23T15:22:00-07:00,8.2883179187775,3,Pure_Unrelated.csv,Control_VersionA.csv,"Control A","Control A",SMOOTH,OMIT,Study2,U,157,62,Test,User,-,,Recall,Recall2,7783,SLIM,25,6080,6665,0,0,,,1
5f5714975783961908276de3,9l5yf1l5ax,Trevor_EX2,1,186,2020-10-23T15:22:03-07:00,2.786229133606,3,Pure_Unrelated.csv,Control_VersionA.csv,"Control A","Control A",HAND,FIX,Study2,U,105,80,Test,User,-,,Recall,Recall2,2301,,0,-1,-1,0,0,,,1
5f5714975783961908276de3,9l5yf1l5ax,Trevor_EX2,1,187,2020-10-23T15:22:07-07:00,3.8472459316254,3,Pure_Unrelated.csv,Control_VersionA.csv,"Control A","Control A",WOMAN,LIFT,Study2,U,99,75,Test,User,-,,Recall,Recall2,3330,LIFT,100,1704,2221,1,1,,,1
5f5714975783961908276de3,9l5yf1l5ax,Trevor_EX2,1,188,2020-10-23T15:22:09-07:00,2.5413489341736,3,Pure_Unrelated.csv,Control_VersionA.csv,"Control A","Control A",SIGHT,DEBATE,Study2,U,103,78,Test,User,-,,Recall,Recall2,2036,,0,-1,-1,0,0,,,1
5f5714975783961908276de3,9l5yf1l5ax,Trevor_EX2,1,189,2020-10-23T15:22:12-07:00,2.420844078064,3,Pure_Unrelated.csv,Control_VersionA.csv,"Control A","Control A",CLUTTER,PUSHER,Study2,U,96,74,Test,User,-,,Recall,Recall2,1852,,0,-1,-1,0,0,,,1
5f5714975783961908276de3,9l5yf1l5ax,Trevor_EX2,1,190,2020-10-23T15:22:14-07:00,2.2063989639282,3,Pure_Unrelated.csv,Control_VersionA.csv,"Control A","Control A",TUCK,ALLOW,Study2,U,108,66,Test,User,-,,Recall,Recall2,1706,,0,-1,-1,0,0,,,1
5f5714975783961908276de3,9l5yf1l5ax,Trevor_EX2,1,191,2020-10-23T15:22:16-07:00,2.1226198673248,3,Pure_Unrelated.csv,Control_VersionA.csv,"Control A","Control A",POSITION,MACHINE,Study2,U,106,63,Test,User,-,,Recall,Recall2,1609,,0,-1,-1,0,0,,,1
5f5714975783961908276de3,9l5yf1l5ax,Trevor_EX2,1,192,2020-10-23T15:22:18-07:00,2.0995171070099,3,Pure_Unrelated.csv,Control_VersionA.csv,"Control A","Control A",READY,CORN,Study2,U,158,81,Test,User,-,,Recall,Recall2,1602,,0,-1,-1,0,0,,,1
5f5714975783961908276de3,9l5yf1l5ax,Trevor_EX2,1,193,2020-10-23T15:22:23-07:00,4.5704219341278,3,Pure_Unrelated.csv,Control_VersionA.csv,"Control A","Control A",HUNGRY,PARK,Study2,U,98,70,Test,User,-,,Recall,Recall2,4081,,0,-1,-1,0,0,,,1
5f5714975783961908276de3,9l5yf1l5ax,Trevor_EX2,1,194,2020-10-23T15:22:29-07:00,6.2081780433655,3,Pure_Unrelated.csv,Control_VersionA.csv,"Control A","Control A",MUTE,WAVE,Study2,U,173,59,Test,User,-,,Recall,Recall2,5718,,0,-1,-1,0,0,,,1
5f5714975783961908276de3,9l5yf1l5ax,Trevor_EX2,1,195,2020-10-23T15:22:31-07:00,2.0275940895081,3,Pure_Unrelated.csv,Control_VersionA.csv,"Control A","Control A",,,,,,0,Instruct,User,-,"You have completed this section. Please press Enter.",,Instruct7,1536,,,-1,-1,,,,,1
5f5714975783961908276de3,9l5yf1l5ax,Trevor_EX2,1,196,2020-10-23T15:22:35-07:00,4.0816929340363,3,Pure_Unrelated.csv,Control_VersionA.csv,"Control A","Control A",,,,,,0,Instruct,User,-,"The following screen will ask you a few questions abour your experience today. You must complete these questions to receive credit.",,Instruct8,3610,,,-1,-1,,,,,1
