Username,ID,ExperimentName,Session,Trial,Date,TimeDif,"Condition Number","Stimuli File","Order File","Condition Description","Condition Notes",Stimuli*Cue,Stimuli*Answer,Stimuli*Shuffle,"Stimuli*Stimuli Notes",Stimuli*Value,Procedure*Item,"Procedure*Trial Type","Procedure*Max Time","Procedure*Min Time",Procedure*Text,"Procedure*Procedure Notes",Procedure*Shuffle,Response*RT,Response*Response,Response*Accuracy,Response*RTfirst,Response*RTlast,Response*strictAcc,Response*lenientAcc,Response*focus,Response*JOL,Response*Focus
5f8b29a907e21f2236fcbe45,vkwl2k38l8,Trevor_EX2,1,1,2020-10-23T15:31:32-07:00,5.8760328292847,1,Pure_Unrelated.csv,SF_VersionA.csv,"Sans F A","Sans F A",,,,,,0,Instruct,-,5,"In this section, you will be presented with a series of word pairs.",Initial_Instruct,Instruct1,5447,,,-1,-1,,,,,1
5f8b29a907e21f2236fcbe45,vkwl2k38l8,Trevor_EX2,1,2,2020-10-23T15:31:40-07:00,7.8428730964661,1,Pure_Unrelated.csv,SF_VersionA.csv,"Sans F A","Sans F A",,,,,,0,Instruct,-,5,"As you study, you will be asked to rate your ability to remember the second item in the pair if you were only shown the first at test. You will make these ratings using a 0 to 100 Scale.",,Instruct13,7405,,,-1,-1,,,,,1
5f8b29a907e21f2236fcbe45,vkwl2k38l8,Trevor_EX2,1,3,2020-10-23T15:31:52-07:00,12.003072023392,1,Pure_Unrelated.csv,SF_VersionA.csv,"Sans F A","Sans F A",,,,,,0,Instruct,-,10,"For example, if you are given the pair CAT - DOG, a rating of 0 indicates that you would not remember DOG at test, while a rating of 100 indicates full certainty that you would remember the word DOG at test.",,Instruct14,11171,,,-1,-1,,,,,1
5f8b29a907e21f2236fcbe45,vkwl2k38l8,Trevor_EX2,1,4,2020-10-23T15:32:18-07:00,25.901195049286,1,Pure_Unrelated.csv,SF_VersionA.csv,"Sans F A","Sans F A",,,,,,0,Instruct,-,10,"When making your ratings, it is criticial that you use the full range of the scale. You will be disqualified for only giving ratings of 0 or 100! After making your rating, press Enter to advance to the next pair.",,Instruct15,25080,,,-1,-1,,,,,1
5f8b29a907e21f2236fcbe45,vkwl2k38l8,Trevor_EX2,1,5,2020-10-23T15:32:21-07:00,2.5840878486633,1,Pure_Unrelated.csv,SF_VersionA.csv,"Sans F A","Sans F A",,,,,,0,Instruct,User,-,"You will now begin the study. Press Enter when you are ready to begin.",,Instruct16,2215,,,-1,-1,,,,,1
5f8b29a907e21f2236fcbe45,vkwl2k38l8,Trevor_EX2,1,6,2020-10-23T15:32:34-07:00,12.86807012558,1,Pure_Unrelated.csv,SF_VersionA.csv,"Sans F A","Sans F A",SPACE,JAM,BUFFER1,Buffer,5,4,JOL_SF,User,-,"How likely are you to correctly recall the second item in the pair?|Type your response on a scale from 0-100 and then press Enter.",Study/JOL,BUFFER,12061,,,10454,10737,,,,100,1
5f8b29a907e21f2236fcbe45,vkwl2k38l8,Trevor_EX2,1,7,2020-10-23T15:32:44-07:00,10.557948827744,1,Pure_Unrelated.csv,SF_VersionA.csv,"Sans F A","Sans F A",BASEBALL,CATCHER,BUFFER1,Buffer,2,5,JOL,User,-,"How likely are you to correctly recall the second item in the pair?|Type your response on a scale from 0-100 and then press Enter.",Study/JOL,BUFFER,10146,,,8093,8192,,,,70,1
5f8b29a907e21f2236fcbe45,vkwl2k38l8,Trevor_EX2,1,8,2020-10-23T15:33:18-07:00,34.163086175919,1,Pure_Unrelated.csv,SF_VersionA.csv,"Sans F A","Sans F A",PEANUT,BUTTER,BUFFER1,Buffer,3,6,JOL,User,-,"How likely are you to correctly recall the second item in the pair?|Type your response on a scale from 0-100 and then press Enter.",Study/JOL,BUFFER,33743,,,31524,32521,,,,100,1
5f8b29a907e21f2236fcbe45,vkwl2k38l8,Trevor_EX2,1,9,2020-10-23T15:33:24-07:00,5.3703339099884,1,Pure_Unrelated.csv,SF_VersionA.csv,"Sans F A","Sans F A",TREES,GREEN,BUFFER1,Buffer,1,2,JOL_SF,User,-,"How likely are you to correctly recall the second item in the pair?|Type your response on a scale from 0-100 and then press Enter.",Study/JOL,BUFFER,4991,,,3562,3691,,,,80,1
5f8b29a907e21f2236fcbe45,vkwl2k38l8,Trevor_EX2,1,10,2020-10-23T15:33:32-07:00,7.9876849651337,1,Pure_Unrelated.csv,SF_VersionA.csv,"Sans F A","Sans F A",SCARE,HIDE,BUFFER1,Buffer,4,3,JOL_SF,User,-,"How likely are you to correctly recall the second item in the pair?|Type your response on a scale from 0-100 and then press Enter.",Study/JOL,BUFFER,7234,,,5992,5993,,,,0,1
5f8b29a907e21f2236fcbe45,vkwl2k38l8,Trevor_EX2,1,11,2020-10-23T15:33:43-07:00,11.034731149673,1,Pure_Unrelated.csv,SF_VersionA.csv,"Sans F A","Sans F A",GIVE,STEAK,Study1,U,8,32,JOL,User,-,"How likely are you to correctly recall the second item in the pair?|Type your response on a scale from 0-100 and then press Enter.",Study/JOL,"Study Phase",10625,,,7605,9385,,,,20,1
5f8b29a907e21f2236fcbe45,vkwl2k38l8,Trevor_EX2,1,12,2020-10-23T15:33:52-07:00,9.3429479598999,1,Pure_Unrelated.csv,SF_VersionA.csv,"Sans F A","Sans F A",NAME,HATE,Study1,U,17,19,JOL_SF,User,-,"How likely are you to correctly recall the second item in the pair?|Type your response on a scale from 0-100 and then press Enter.",Study/JOL,"Study Phase",8743,,,7489,7489,,,,0,1
5f8b29a907e21f2236fcbe45,vkwl2k38l8,Trevor_EX2,1,13,2020-10-23T15:33:58-07:00,6.0702459812164,1,Pure_Unrelated.csv,SF_VersionA.csv,"Sans F A","Sans F A",PET,MOON,Study1,U,74,8,JOL_SF,User,-,"How likely are you to correctly recall the second item in the pair?|Type your response on a scale from 0-100 and then press Enter.",Study/JOL,"Study Phase",5040,,,3382,3684,,,,30,1
5f8b29a907e21f2236fcbe45,vkwl2k38l8,Trevor_EX2,1,14,2020-10-23T15:34:03-07:00,4.6434299945831,1,Pure_Unrelated.csv,SF_VersionA.csv,"Sans F A","Sans F A",FUZZY,BANG,Study1,U,18,37,JOL,User,-,"How likely are you to correctly recall the second item in the pair?|Type your response on a scale from 0-100 and then press Enter.",Study/JOL,"Study Phase",3832,,,1731,2671,,,,0,1
5f8b29a907e21f2236fcbe45,vkwl2k38l8,Trevor_EX2,1,15,2020-10-23T15:34:10-07:00,7.0890710353851,1,Pure_Unrelated.csv,SF_VersionA.csv,"Sans F A","Sans F A",MOAT,CLEAR,Study1,U,19,29,JOL,User,-,"How likely are you to correctly recall the second item in the pair?|Type your response on a scale from 0-100 and then press Enter.",Study/JOL,"Study Phase",6574,,,1555,5222,,,,15,1
5f8b29a907e21f2236fcbe45,vkwl2k38l8,Trevor_EX2,1,16,2020-10-23T15:34:16-07:00,6.5549988746643,1,Pure_Unrelated.csv,SF_VersionA.csv,"Sans F A","Sans F A",DONKEY,LUSH,Study1,U,84,34,JOL,User,-,"How likely are you to correctly recall the second item in the pair?|Type your response on a scale from 0-100 and then press Enter.",Study/JOL,"Study Phase",6084,,,5813,5813,,,,0,1
5f8b29a907e21f2236fcbe45,vkwl2k38l8,Trevor_EX2,1,17,2020-10-23T15:35:40-07:00,83.11107301712,1,Pure_Unrelated.csv,SF_VersionA.csv,"Sans F A","Sans F A",CRACKLE,ABLE,Study1,U,12,40,JOL,User,-,"How likely are you to correctly recall the second item in the pair?|Type your response on a scale from 0-100 and then press Enter.",Study/JOL,"Study Phase",82534,,,82385,82385,,,,0,1
5f8b29a907e21f2236fcbe45,vkwl2k38l8,Trevor_EX2,1,18,2020-10-23T15:35:44-07:00,4.0286660194397,1,Pure_Unrelated.csv,SF_VersionA.csv,"Sans F A","Sans F A",GRIND,STAND,Study1,U,85,21,JOL_SF,User,-,"How likely are you to correctly recall the second item in the pair?|Type your response on a scale from 0-100 and then press Enter.",Study/JOL,"Study Phase",3332,,,2847,3001,,,,30,1
5f8b29a907e21f2236fcbe45,vkwl2k38l8,Trevor_EX2,1,19,2020-10-23T15:35:48-07:00,4.2991669178009,1,Pure_Unrelated.csv,SF_VersionA.csv,"Sans F A","Sans F A",LEASE,TOIL,Study1,U,20,25,JOL_SF,User,-,"How likely are you to correctly recall the second item in the pair?|Type your response on a scale from 0-100 and then press Enter.",Study/JOL,"Study Phase",3687,,,3451,3451,,,,0,1
5f8b29a907e21f2236fcbe45,vkwl2k38l8,Trevor_EX2,1,20,2020-10-23T15:35:52-07:00,4.2194550037384,1,Pure_Unrelated.csv,SF_VersionA.csv,"Sans F A","Sans F A",LOAN,SIGN,Study1,U,21,22,JOL_SF,User,-,"How likely are you to correctly recall the second item in the pair?|Type your response on a scale from 0-100 and then press Enter.",Study/JOL,"Study Phase",3397,,,1883,3215,,,,50,1
5f8b29a907e21f2236fcbe45,vkwl2k38l8,Trevor_EX2,1,21,2020-10-23T15:35:55-07:00,3.3535630702972,1,Pure_Unrelated.csv,SF_VersionA.csv,"Sans F A","Sans F A",MEAT,OBTAIN,Study1,U,11,9,JOL_SF,User,-,"How likely are you to correctly recall the second item in the pair?|Type your response on a scale from 0-100 and then press Enter.",Study/JOL,"Study Phase",2817,,,2301,2484,,,,60,1
5f8b29a907e21f2236fcbe45,vkwl2k38l8,Trevor_EX2,1,22,2020-10-23T15:36:00-07:00,4.703341960907,1,Pure_Unrelated.csv,SF_VersionA.csv,"Sans F A","Sans F A",MIRROR,CHILDREN,Study1,U,24,41,JOL,User,-,"How likely are you to correctly recall the second item in the pair?|Type your response on a scale from 0-100 and then press Enter.",Study/JOL,"Study Phase",4242,,,2715,3533,,,,60,1
5f8b29a907e21f2236fcbe45,vkwl2k38l8,Trevor_EX2,1,23,2020-10-23T15:36:09-07:00,8.6071841716766,1,Pure_Unrelated.csv,SF_VersionA.csv,"Sans F A","Sans F A",INFLATE,DISGUST,Study1,U,76,30,JOL,User,-,"How likely are you to correctly recall the second item in the pair?|Type your response on a scale from 0-100 and then press Enter.",Study/JOL,"Study Phase",8086,,,7662,7791,,,,80,1
5f8b29a907e21f2236fcbe45,vkwl2k38l8,Trevor_EX2,1,24,2020-10-23T15:39:02-07:00,173.14029288292,1,Pure_Unrelated.csv,SF_VersionA.csv,"Sans F A","Sans F A",PARCEL,THROAT,Study1,U,67,16,JOL_SF,User,-,"How likely are you to correctly recall the second item in the pair?|Type your response on a scale from 0-100 and then press Enter.",Study/JOL,"Study Phase",172399,,,172099,172228,,,,30,1
5f8b29a907e21f2236fcbe45,vkwl2k38l8,Trevor_EX2,1,25,2020-10-23T15:39:06-07:00,4.2802510261536,1,Pure_Unrelated.csv,SF_VersionA.csv,"Sans F A","Sans F A",VEHICLE,CHARM,Study1,U,10,17,JOL_SF,User,-,"How likely are you to correctly recall the second item in the pair?|Type your response on a scale from 0-100 and then press Enter.",Study/JOL,"Study Phase",3912,,,3358,3784,,,,75,1
5f8b29a907e21f2236fcbe45,vkwl2k38l8,Trevor_EX2,1,26,2020-10-23T15:39:10-07:00,3.672327041626,1,Pure_Unrelated.csv,SF_VersionA.csv,"Sans F A","Sans F A",THICK,CONTEST,Study1,U,73,26,JOL_SF,User,-,"How likely are you to correctly recall the second item in the pair?|Type your response on a scale from 0-100 and then press Enter.",Study/JOL,"Study Phase",3304,,,2811,3037,,,,90,1
5f8b29a907e21f2236fcbe45,vkwl2k38l8,Trevor_EX2,1,27,2020-10-23T15:39:12-07:00,2.4102489948273,1,Pure_Unrelated.csv,SF_VersionA.csv,"Sans F A","Sans F A",STRESS,YAM,Study1,U,68,28,JOL,User,-,"How likely are you to correctly recall the second item in the pair?|Type your response on a scale from 0-100 and then press Enter.",Study/JOL,"Study Phase",2050,,,1900,1900,,,,0,1
5f8b29a907e21f2236fcbe45,vkwl2k38l8,Trevor_EX2,1,28,2020-10-23T15:39:16-07:00,3.6734340190887,1,Pure_Unrelated.csv,SF_VersionA.csv,"Sans F A","Sans F A",BOTH,OUNCE,Study1,U,22,11,JOL_SF,User,-,"How likely are you to correctly recall the second item in the pair?|Type your response on a scale from 0-100 and then press Enter.",Study/JOL,"Study Phase",3293,,,3132,3132,,,,0,1
5f8b29a907e21f2236fcbe45,vkwl2k38l8,Trevor_EX2,1,29,2020-10-23T15:39:21-07:00,5.0641548633575,1,Pure_Unrelated.csv,SF_VersionA.csv,"Sans F A","Sans F A",JUSTICE,MAROON,Study1,U,6,14,JOL_SF,User,-,"How likely are you to correctly recall the second item in the pair?|Type your response on a scale from 0-100 and then press Enter.",Study/JOL,"Study Phase",4697,,,3760,4501,,,,35,1
5f8b29a907e21f2236fcbe45,vkwl2k38l8,Trevor_EX2,1,30,2020-10-23T15:40:17-07:00,55.936100006104,1,Pure_Unrelated.csv,SF_VersionA.csv,"Sans F A","Sans F A",RESIST,GLUE,Study1,U,69,23,JOL_SF,User,-,"How likely are you to correctly recall the second item in the pair?|Type your response on a scale from 0-100 and then press Enter.",Study/JOL,"Study Phase",54277,,,54149,54149,,,,0,1
5f8b29a907e21f2236fcbe45,vkwl2k38l8,Trevor_EX2,1,31,2020-10-23T15:41:10-07:00,53.060827970505,1,Pure_Unrelated.csv,SF_VersionA.csv,"Sans F A","Sans F A",LISTEN,FICTION,Study1,U,14,44,JOL,User,-,"How likely are you to correctly recall the second item in the pair?|Type your response on a scale from 0-100 and then press Enter.",Study/JOL,"Study Phase",52364,,,51673,51839,,,,20,1
5f8b29a907e21f2236fcbe45,vkwl2k38l8,Trevor_EX2,1,32,2020-10-23T15:41:13-07:00,3.4731299877167,1,Pure_Unrelated.csv,SF_VersionA.csv,"Sans F A","Sans F A",CRAYON,RATE,Study1,U,79,27,JOL,User,-,"How likely are you to correctly recall the second item in the pair?|Type your response on a scale from 0-100 and then press Enter.",Study/JOL,"Study Phase",2667,,,2424,2505,,,,40,1
5f8b29a907e21f2236fcbe45,vkwl2k38l8,Trevor_EX2,1,33,2020-10-23T15:41:18-07:00,4.7971751689911,1,Pure_Unrelated.csv,SF_VersionA.csv,"Sans F A","Sans F A",WARN,SEA,Study1,U,80,45,JOL,User,-,"How likely are you to correctly recall the second item in the pair?|Type your response on a scale from 0-100 and then press Enter.",Study/JOL,"Study Phase",4084,,,2776,3885,,,,25,1
5f8b29a907e21f2236fcbe45,vkwl2k38l8,Trevor_EX2,1,34,2020-10-23T15:41:22-07:00,3.4217710494995,1,Pure_Unrelated.csv,SF_VersionA.csv,"Sans F A","Sans F A",SHELL,SHAKE,Study1,U,13,31,JOL,User,-,"How likely are you to correctly recall the second item in the pair?|Type your response on a scale from 0-100 and then press Enter.",Study/JOL,"Study Phase",2696,,,2345,2476,,,,70,1
5f8b29a907e21f2236fcbe45,vkwl2k38l8,Trevor_EX2,1,35,2020-10-23T15:41:25-07:00,3.70782995224,1,Pure_Unrelated.csv,SF_VersionA.csv,"Sans F A","Sans F A",CAKE,CLOTHES,Study1,U,16,20,JOL_SF,User,-,"How likely are you to correctly recall the second item in the pair?|Type your response on a scale from 0-100 and then press Enter.",Study/JOL,"Study Phase",3320,,,3188,3188,,,,0,1
5f8b29a907e21f2236fcbe45,vkwl2k38l8,Trevor_EX2,1,36,2020-10-23T15:41:28-07:00,2.4221980571747,1,Pure_Unrelated.csv,SF_VersionA.csv,"Sans F A","Sans F A",RIPE,VERIFY,Study1,U,83,46,JOL,User,-,"How likely are you to correctly recall the second item in the pair?|Type your response on a scale from 0-100 and then press Enter.",Study/JOL,"Study Phase",2058,,,1900,1900,,,,0,1
5f8b29a907e21f2236fcbe45,vkwl2k38l8,Trevor_EX2,1,37,2020-10-23T15:41:32-07:00,4.3221828937531,1,Pure_Unrelated.csv,SF_VersionA.csv,"Sans F A","Sans F A",BAT,SHAKY,Study1,U,66,7,JOL_SF,User,-,"How likely are you to correctly recall the second item in the pair?|Type your response on a scale from 0-100 and then press Enter.",Study/JOL,"Study Phase",3969,,,3006,3757,,,,15,1
5f8b29a907e21f2236fcbe45,vkwl2k38l8,Trevor_EX2,1,38,2020-10-23T15:41:35-07:00,3.1047689914703,1,Pure_Unrelated.csv,SF_VersionA.csv,"Sans F A","Sans F A",FUTURE,SINCERE,Study1,U,70,42,JOL,User,-,"How likely are you to correctly recall the second item in the pair?|Type your response on a scale from 0-100 and then press Enter.",Study/JOL,"Study Phase",2729,,,2263,2388,,,,70,1
5f8b29a907e21f2236fcbe45,vkwl2k38l8,Trevor_EX2,1,39,2020-10-23T15:41:44-07:00,8.3861050605774,1,Pure_Unrelated.csv,SF_VersionA.csv,"Sans F A","Sans F A",KEYS,JOKE,Study1,U,15,12,JOL_SF,User,-,"How likely are you to correctly recall the second item in the pair?|Type your response on a scale from 0-100 and then press Enter.",Study/JOL,"Study Phase",8034,,,7794,7794,,,,0,1
5f8b29a907e21f2236fcbe45,vkwl2k38l8,Trevor_EX2,1,40,2020-10-23T15:41:48-07:00,4.3588559627533,1,Pure_Unrelated.csv,SF_VersionA.csv,"Sans F A","Sans F A",DIFFICULT,POOR,Study1,U,81,10,JOL_SF,User,-,"How likely are you to correctly recall the second item in the pair?|Type your response on a scale from 0-100 and then press Enter.",Study/JOL,"Study Phase",3974,,,3468,3778,,,,100,1
5f8b29a907e21f2236fcbe45,vkwl2k38l8,Trevor_EX2,1,41,2020-10-23T15:41:51-07:00,3.1475448608398,1,Pure_Unrelated.csv,SF_VersionA.csv,"Sans F A","Sans F A",MAIN,SCAR,Study1,U,25,13,JOL_SF,User,-,"How likely are you to correctly recall the second item in the pair?|Type your response on a scale from 0-100 and then press Enter.",Study/JOL,"Study Phase",2761,,,2610,2610,,,,0,1
5f8b29a907e21f2236fcbe45,vkwl2k38l8,Trevor_EX2,1,42,2020-10-23T15:41:54-07:00,3.2295022010803,1,Pure_Unrelated.csv,SF_VersionA.csv,"Sans F A","Sans F A",TEMPERATURE,MORNING,Study1,U,23,35,JOL,User,-,"How likely are you to correctly recall the second item in the pair?|Type your response on a scale from 0-100 and then press Enter.",Study/JOL,"Study Phase",2863,,,2557,2668,,,,70,1
5f8b29a907e21f2236fcbe45,vkwl2k38l8,Trevor_EX2,1,43,2020-10-23T15:41:59-07:00,4.7773149013519,1,Pure_Unrelated.csv,SF_VersionA.csv,"Sans F A","Sans F A",ROSE,NEGLECT,Study1,U,82,15,JOL_SF,User,-,"How likely are you to correctly recall the second item in the pair?|Type your response on a scale from 0-100 and then press Enter.",Study/JOL,"Study Phase",4394,,,4154,4229,,,,30,1
5f8b29a907e21f2236fcbe45,vkwl2k38l8,Trevor_EX2,1,44,2020-10-23T15:42:02-07:00,2.9070150852203,1,Pure_Unrelated.csv,SF_VersionA.csv,"Sans F A","Sans F A",STRETCH,CLOTH,Study1,U,7,36,JOL,User,-,"How likely are you to correctly recall the second item in the pair?|Type your response on a scale from 0-100 and then press Enter.",Study/JOL,"Study Phase",2528,,,2344,2406,,,,20,1
5f8b29a907e21f2236fcbe45,vkwl2k38l8,Trevor_EX2,1,45,2020-10-23T15:42:04-07:00,2.4163618087769,1,Pure_Unrelated.csv,SF_VersionA.csv,"Sans F A","Sans F A",MAZE,ELECTION,Study1,U,9,33,JOL,User,-,"How likely are you to correctly recall the second item in the pair?|Type your response on a scale from 0-100 and then press Enter.",Study/JOL,"Study Phase",2051,,,1858,1858,,,,0,1
5f8b29a907e21f2236fcbe45,vkwl2k38l8,Trevor_EX2,1,46,2020-10-23T15:42:08-07:00,3.1662931442261,1,Pure_Unrelated.csv,SF_VersionA.csv,"Sans F A","Sans F A",TAX,OWL,Study1,U,72,24,JOL_SF,User,-,"How likely are you to correctly recall the second item in the pair?|Type your response on a scale from 0-100 and then press Enter.",Study/JOL,"Study Phase",2790,,,2656,2656,,,,0,1
5f8b29a907e21f2236fcbe45,vkwl2k38l8,Trevor_EX2,1,47,2020-10-23T15:42:13-07:00,5.0537159442902,1,Pure_Unrelated.csv,SF_VersionA.csv,"Sans F A","Sans F A",DEGREE,CHAIR,Study1,U,71,18,JOL_SF,User,-,"How likely are you to correctly recall the second item in the pair?|Type your response on a scale from 0-100 and then press Enter.",Study/JOL,"Study Phase",4691,,,4330,4516,,,,35,1
5f8b29a907e21f2236fcbe45,vkwl2k38l8,Trevor_EX2,1,48,2020-10-23T15:42:15-07:00,2.6313309669495,1,Pure_Unrelated.csv,SF_VersionA.csv,"Sans F A","Sans F A",NUMBER,HARD,Study1,U,78,39,JOL,User,-,"How likely are you to correctly recall the second item in the pair?|Type your response on a scale from 0-100 and then press Enter.",Study/JOL,"Study Phase",2261,,,1893,2004,,,,70,1
5f8b29a907e21f2236fcbe45,vkwl2k38l8,Trevor_EX2,1,49,2020-10-23T15:42:18-07:00,3.1153001785278,1,Pure_Unrelated.csv,SF_VersionA.csv,"Sans F A","Sans F A",BROAD,INFECT,Study1,U,75,38,JOL,User,-,"How likely are you to correctly recall the second item in the pair?|Type your response on a scale from 0-100 and then press Enter.",Study/JOL,"Study Phase",2737,,,2539,2539,,,,0,1
5f8b29a907e21f2236fcbe45,vkwl2k38l8,Trevor_EX2,1,50,2020-10-23T15:42:22-07:00,3.5483999252319,1,Pure_Unrelated.csv,SF_VersionA.csv,"Sans F A","Sans F A",DIZZY,SWEATER,Study1,U,77,43,JOL,User,-,"How likely are you to correctly recall the second item in the pair?|Type your response on a scale from 0-100 and then press Enter.",Study/JOL,"Study Phase",3149,,,2867,2949,,,,50,1
5f8b29a907e21f2236fcbe45,vkwl2k38l8,Trevor_EX2,1,51,2020-10-23T15:42:24-07:00,2.0327608585358,1,Pure_Unrelated.csv,SF_VersionA.csv,"Sans F A","Sans F A",SHERRIF,POLICE,BUFFER2,Buffer,87,50,JOL,User,-,"How likely are you to correctly recall the second item in the pair?|Type your response on a scale from 0-100 and then press Enter.",Study/JOL,BUFFER2,1671,,,1287,1527,,,,100,1
5f8b29a907e21f2236fcbe45,vkwl2k38l8,Trevor_EX2,1,52,2020-10-23T15:42:27-07:00,3.5155971050262,1,Pure_Unrelated.csv,SF_VersionA.csv,"Sans F A","Sans F A",MALT,CHOCOLATE,BUFFER2,Buffer,88,48,JOL_SF,User,-,"How likely are you to correctly recall the second item in the pair?|Type your response on a scale from 0-100 and then press Enter.",Study/JOL,BUFFER2,2962,,,2673,2766,,,,50,1
5f8b29a907e21f2236fcbe45,vkwl2k38l8,Trevor_EX2,1,53,2020-10-23T15:42:30-07:00,2.5843019485474,1,Pure_Unrelated.csv,SF_VersionA.csv,"Sans F A","Sans F A",THING,STUFF,BUFFER2,Buffer,90,51,JOL,User,-,"How likely are you to correctly recall the second item in the pair?|Type your response on a scale from 0-100 and then press Enter.",Study/JOL,BUFFER2,1615,,,1407,1408,,,,0,1
5f8b29a907e21f2236fcbe45,vkwl2k38l8,Trevor_EX2,1,54,2020-10-23T15:42:32-07:00,2.2011260986328,1,Pure_Unrelated.csv,SF_VersionA.csv,"Sans F A","Sans F A",MOON,SPACE,BUFFER2,Buffer,89,49,JOL,User,-,"How likely are you to correctly recall the second item in the pair?|Type your response on a scale from 0-100 and then press Enter.",Study/JOL,BUFFER2,1654,,,1197,1451,,,,100,1
5f8b29a907e21f2236fcbe45,vkwl2k38l8,Trevor_EX2,1,55,2020-10-23T15:42:36-07:00,3.6800429821014,1,Pure_Unrelated.csv,SF_VersionA.csv,"Sans F A","Sans F A",GEESE,GOOSE,BUFFER2,Buffer,86,47,JOL_SF,User,-,"How likely are you to correctly recall the second item in the pair?|Type your response on a scale from 0-100 and then press Enter.",Study/JOL,BUFFER2,3214,,,2508,2826,,,,100,1
5f8b29a907e21f2236fcbe45,vkwl2k38l8,Trevor_EX2,1,56,2020-10-23T15:42:39-07:00,2.8369328975677,1,Pure_Unrelated.csv,SF_VersionA.csv,"Sans F A","Sans F A",,,,,,0,Instruct,User,-,"You have completed this section. Please press Enter.",Filler_Instruction,Instruct2,2309,,,-1,-1,,,,,1
5f8b29a907e21f2236fcbe45,vkwl2k38l8,Trevor_EX2,1,57,2020-10-23T15:44:39-07:00,120.63154411316,1,Pure_Unrelated.csv,SF_VersionA.csv,"Sans F A","Sans F A",,,,,,0,FreeRecall,120,120,"Please list the 50 US states in alphabetical order. The task will automatically advance to the next screen after two minutes.",,Filler1,120002," Alabama Alaska Arizona Arkansas California Colorado Connecticut Delaware Florida Georgia Hawaii Idaho Illinois Indiana Iowa Kansas Kentucky Louisiana Maine Maryland Massachusetts Michigan Minnesota Mississippi Missouri Montana Nebraska Nevada New Hampshire New Jersey New Mexico New York North Carolina North Dakota Ohio Oklahoma Oregon Pennsylvania Rhode Island South Carolina South Dakota Tennessee Texas Utah Vermont Virginia Washington West Virginia Wisconsin Wyoming",0,-1,-1,0,0,,,0.817
5f8b29a907e21f2236fcbe45,vkwl2k38l8,Trevor_EX2,1,58,2020-10-23T15:44:51-07:00,11.434449911118,1,Pure_Unrelated.csv,SF_VersionA.csv,"Sans F A","Sans F A",,,,,,0,Instruct,-,10,"You will now be presented with the first word from each of the previously studied item pairs. Please type the missing word. If you do not know the word, you may guess or press Enter to skip forward to the next pair.",,Instruct3,10793,,,-1,-1,,,,,1
5f8b29a907e21f2236fcbe45,vkwl2k38l8,Trevor_EX2,1,59,2020-10-23T15:44:57-07:00,6.5211081504822,1,Pure_Unrelated.csv,SF_VersionA.csv,"Sans F A","Sans F A",GIVE,STEAK,Study1,U,8,32,Test,User,-,,Recall,Recall1,6045,,0,-1,-1,0,0,,,1
5f8b29a907e21f2236fcbe45,vkwl2k38l8,Trevor_EX2,1,60,2020-10-23T15:45:01-07:00,3.7782378196716,1,Pure_Unrelated.csv,SF_VersionA.csv,"Sans F A","Sans F A",DONKEY,LUSH,Study1,U,84,34,Test,User,-,,Recall,Recall1,3374,,0,-1,-1,0,0,,,1
5f8b29a907e21f2236fcbe45,vkwl2k38l8,Trevor_EX2,1,61,2020-10-23T15:45:04-07:00,2.5341641902924,1,Pure_Unrelated.csv,SF_VersionA.csv,"Sans F A","Sans F A",STRETCH,CLOTH,Study1,U,7,36,Test,User,-,,Recall,Recall1,2035,,0,-1,-1,0,0,,,1
5f8b29a907e21f2236fcbe45,vkwl2k38l8,Trevor_EX2,1,62,2020-10-23T15:45:06-07:00,2.2869718074799,1,Pure_Unrelated.csv,SF_VersionA.csv,"Sans F A","Sans F A",SHELL,SHAKE,Study1,U,13,31,Test,User,-,,Recall,Recall1,1823,,0,-1,-1,0,0,,,1
5f8b29a907e21f2236fcbe45,vkwl2k38l8,Trevor_EX2,1,63,2020-10-23T15:45:07-07:00,1.3397731781006,1,Pure_Unrelated.csv,SF_VersionA.csv,"Sans F A","Sans F A",JUSTICE,MAROON,Study1,U,6,14,Test,User,-,,Recall,Recall1,954,,0,-1,-1,0,0,,,1
5f8b29a907e21f2236fcbe45,vkwl2k38l8,Trevor_EX2,1,64,2020-10-23T15:45:09-07:00,1.5234990119934,1,Pure_Unrelated.csv,SF_VersionA.csv,"Sans F A","Sans F A",BOTH,OUNCE,Study1,U,22,11,Test,User,-,,Recall,Recall1,1130,,0,-1,-1,0,0,,,1
5f8b29a907e21f2236fcbe45,vkwl2k38l8,Trevor_EX2,1,65,2020-10-23T15:45:14-07:00,4.911484003067,1,Pure_Unrelated.csv,SF_VersionA.csv,"Sans F A","Sans F A",MAIN,SCAR,Study1,U,25,13,Test,User,-,,Recall,Recall1,4372,Scape,66.666666666667,2022,2751,0,0,,,1
5f8b29a907e21f2236fcbe45,vkwl2k38l8,Trevor_EX2,1,66,2020-10-23T15:45:18-07:00,3.7930109500885,1,Pure_Unrelated.csv,SF_VersionA.csv,"Sans F A","Sans F A",DEGREE,CHAIR,Study1,U,71,18,Test,User,-,,Recall,Recall1,3255,,0,-1,-1,0,0,,,1
5f8b29a907e21f2236fcbe45,vkwl2k38l8,Trevor_EX2,1,67,2020-10-23T15:45:20-07:00,2.4338698387146,1,Pure_Unrelated.csv,SF_VersionA.csv,"Sans F A","Sans F A",WARN,SEA,Study1,U,80,45,Test,User,-,,Recall,Recall1,1869,,0,-1,-1,0,0,,,1
5f8b29a907e21f2236fcbe45,vkwl2k38l8,Trevor_EX2,1,68,2020-10-23T15:45:22-07:00,2.1284101009369,1,Pure_Unrelated.csv,SF_VersionA.csv,"Sans F A","Sans F A",LEASE,TOIL,Study1,U,20,25,Test,User,-,,Recall,Recall1,1617,,0,-1,-1,0,0,,,1
5f8b29a907e21f2236fcbe45,vkwl2k38l8,Trevor_EX2,1,69,2020-10-23T15:45:25-07:00,2.9646918773651,1,Pure_Unrelated.csv,SF_VersionA.csv,"Sans F A","Sans F A",MAZE,ELECTION,Study1,U,9,33,Test,User,-,,Recall,Recall1,2529,,0,-1,-1,0,0,,,1
5f8b29a907e21f2236fcbe45,vkwl2k38l8,Trevor_EX2,1,70,2020-10-23T15:45:27-07:00,2.0215480327606,1,Pure_Unrelated.csv,SF_VersionA.csv,"Sans F A","Sans F A",NAME,HATE,Study1,U,17,19,Test,User,-,,Recall,Recall1,1620,,0,-1,-1,0,0,,,1
5f8b29a907e21f2236fcbe45,vkwl2k38l8,Trevor_EX2,1,71,2020-10-23T15:45:33-07:00,6.3804171085358,1,Pure_Unrelated.csv,SF_VersionA.csv,"Sans F A","Sans F A",INFLATE,DISGUST,Study1,U,76,30,Test,User,-,,Recall,Recall1,5770,,0,-1,-1,0,0,,,1
5f8b29a907e21f2236fcbe45,vkwl2k38l8,Trevor_EX2,1,72,2020-10-23T15:45:35-07:00,1.7351498603821,1,Pure_Unrelated.csv,SF_VersionA.csv,"Sans F A","Sans F A",MEAT,OBTAIN,Study1,U,11,9,Test,User,-,,Recall,Recall1,1344,,0,-1,-1,0,0,,,1
5f8b29a907e21f2236fcbe45,vkwl2k38l8,Trevor_EX2,1,73,2020-10-23T15:45:37-07:00,1.3584651947021,1,Pure_Unrelated.csv,SF_VersionA.csv,"Sans F A","Sans F A",BAT,SHAKY,Study1,U,66,7,Test,User,-,,Recall,Recall1,979,,0,-1,-1,0,0,,,1
5f8b29a907e21f2236fcbe45,vkwl2k38l8,Trevor_EX2,1,74,2020-10-23T15:45:38-07:00,1.4725530147552,1,Pure_Unrelated.csv,SF_VersionA.csv,"Sans F A","Sans F A",RESIST,GLUE,Study1,U,69,23,Test,User,-,,Recall,Recall1,1088,,0,-1,-1,0,0,,,1
5f8b29a907e21f2236fcbe45,vkwl2k38l8,Trevor_EX2,1,75,2020-10-23T15:45:40-07:00,1.551558971405,1,Pure_Unrelated.csv,SF_VersionA.csv,"Sans F A","Sans F A",LOAN,SIGN,Study1,U,21,22,Test,User,-,,Recall,Recall1,1077,,0,-1,-1,0,0,,,1
5f8b29a907e21f2236fcbe45,vkwl2k38l8,Trevor_EX2,1,76,2020-10-23T15:45:42-07:00,1.9261159896851,1,Pure_Unrelated.csv,SF_VersionA.csv,"Sans F A","Sans F A",STRESS,YAM,Study1,U,68,28,Test,User,-,,Recall,Recall1,1560,,0,-1,-1,0,0,,,1
5f8b29a907e21f2236fcbe45,vkwl2k38l8,Trevor_EX2,1,77,2020-10-23T15:45:43-07:00,1.2184338569641,1,Pure_Unrelated.csv,SF_VersionA.csv,"Sans F A","Sans F A",GRIND,STAND,Study1,U,85,21,Test,User,-,,Recall,Recall1,815,,0,-1,-1,0,0,,,1
5f8b29a907e21f2236fcbe45,vkwl2k38l8,Trevor_EX2,1,78,2020-10-23T15:45:46-07:00,3.7426600456238,1,Pure_Unrelated.csv,SF_VersionA.csv,"Sans F A","Sans F A",TAX,OWL,Study1,U,72,24,Test,User,-,,Recall,Recall1,3289,,0,-1,-1,0,0,,,1
5f8b29a907e21f2236fcbe45,vkwl2k38l8,Trevor_EX2,1,79,2020-10-23T15:45:48-07:00,1.654433965683,1,Pure_Unrelated.csv,SF_VersionA.csv,"Sans F A","Sans F A",THICK,CONTEST,Study1,U,73,26,Test,User,-,,Recall,Recall1,1286,,0,-1,-1,0,0,,,1
5f8b29a907e21f2236fcbe45,vkwl2k38l8,Trevor_EX2,1,80,2020-10-23T15:46:00-07:00,11.656993150711,1,Pure_Unrelated.csv,SF_VersionA.csv,"Sans F A","Sans F A",KEYS,JOKE,Study1,U,15,12,Test,User,-,,Recall,Recall1,11290,,0,-1,-1,0,0,,,0.875
5f8b29a907e21f2236fcbe45,vkwl2k38l8,Trevor_EX2,1,81,2020-10-23T15:46:02-07:00,2.2780659198761,1,Pure_Unrelated.csv,SF_VersionA.csv,"Sans F A","Sans F A",FUZZY,BANG,Study1,U,18,37,Test,User,-,,Recall,Recall1,1879,,0,-1,-1,0,0,,,1
5f8b29a907e21f2236fcbe45,vkwl2k38l8,Trevor_EX2,1,82,2020-10-23T15:46:08-07:00,6.0332970619202,1,Pure_Unrelated.csv,SF_VersionA.csv,"Sans F A","Sans F A",NUMBER,HARD,Study1,U,78,39,Test,User,-,,Recall,Recall1,5574,Difficult,15.384615384615,1794,3899,0,0,,,1
5f8b29a907e21f2236fcbe45,vkwl2k38l8,Trevor_EX2,1,83,2020-10-23T15:46:13-07:00,4.8868608474731,1,Pure_Unrelated.csv,SF_VersionA.csv,"Sans F A","Sans F A",DIFFICULT,POOR,Study1,U,81,10,Test,User,-,,Recall,Recall1,4475,,0,-1,-1,0,0,,,1
5f8b29a907e21f2236fcbe45,vkwl2k38l8,Trevor_EX2,1,84,2020-10-23T15:46:16-07:00,2.8201630115509,1,Pure_Unrelated.csv,SF_VersionA.csv,"Sans F A","Sans F A",FUTURE,SINCERE,Study1,U,70,42,Test,User,-,,Recall,Recall1,2464,,0,-1,-1,0,0,,,1
5f8b29a907e21f2236fcbe45,vkwl2k38l8,Trevor_EX2,1,85,2020-10-23T15:46:33-07:00,16.933570146561,1,Pure_Unrelated.csv,SF_VersionA.csv,"Sans F A","Sans F A",CRACKLE,ABLE,Study1,U,12,40,Test,User,-,,Recall,Recall1,16586,Able,100,5437,14374,1,1,,,1
5f8b29a907e21f2236fcbe45,vkwl2k38l8,Trevor_EX2,1,86,2020-10-23T15:46:37-07:00,3.7617688179016,1,Pure_Unrelated.csv,SF_VersionA.csv,"Sans F A","Sans F A",PARCEL,THROAT,Study1,U,67,16,Test,User,-,,Recall,Recall1,3394,,0,-1,-1,0,0,,,1
5f8b29a907e21f2236fcbe45,vkwl2k38l8,Trevor_EX2,1,87,2020-10-23T15:46:39-07:00,2.2752811908722,1,Pure_Unrelated.csv,SF_VersionA.csv,"Sans F A","Sans F A",ROSE,NEGLECT,Study1,U,82,15,Test,User,-,,Recall,Recall1,1888,,0,-1,-1,0,0,,,1
5f8b29a907e21f2236fcbe45,vkwl2k38l8,Trevor_EX2,1,88,2020-10-23T15:46:41-07:00,2.0631749629974,1,Pure_Unrelated.csv,SF_VersionA.csv,"Sans F A","Sans F A",MOAT,CLEAR,Study1,U,19,29,Test,User,-,,Recall,Recall1,1720,,0,-1,-1,0,0,,,1
5f8b29a907e21f2236fcbe45,vkwl2k38l8,Trevor_EX2,1,89,2020-10-23T15:46:42-07:00,1.3069159984589,1,Pure_Unrelated.csv,SF_VersionA.csv,"Sans F A","Sans F A",LISTEN,FICTION,Study1,U,14,44,Test,User,-,,Recall,Recall1,932,,0,-1,-1,0,0,,,1
5f8b29a907e21f2236fcbe45,vkwl2k38l8,Trevor_EX2,1,90,2020-10-23T15:46:43-07:00,0.93760585784912,1,Pure_Unrelated.csv,SF_VersionA.csv,"Sans F A","Sans F A",VEHICLE,CHARM,Study1,U,10,17,Test,User,-,,Recall,Recall1,553,,0,-1,-1,0,0,,,1
5f8b29a907e21f2236fcbe45,vkwl2k38l8,Trevor_EX2,1,91,2020-10-23T15:46:44-07:00,0.97069001197815,1,Pure_Unrelated.csv,SF_VersionA.csv,"Sans F A","Sans F A",RIPE,VERIFY,Study1,U,83,46,Test,User,-,,Recall,Recall1,604,,0,-1,-1,0,0,,,1
5f8b29a907e21f2236fcbe45,vkwl2k38l8,Trevor_EX2,1,92,2020-10-23T15:46:47-07:00,3.2491810321808,1,Pure_Unrelated.csv,SF_VersionA.csv,"Sans F A","Sans F A",CAKE,CLOTHES,Study1,U,16,20,Test,User,-,,Recall,Recall1,2885,,0,-1,-1,0,0,,,1
5f8b29a907e21f2236fcbe45,vkwl2k38l8,Trevor_EX2,1,93,2020-10-23T15:46:52-07:00,4.5311410427094,1,Pure_Unrelated.csv,SF_VersionA.csv,"Sans F A","Sans F A",MIRROR,CHILDREN,Study1,U,24,41,Test,User,-,,Recall,Recall1,4181,Children,100,2837,3966,1,1,,,1
5f8b29a907e21f2236fcbe45,vkwl2k38l8,Trevor_EX2,1,94,2020-10-23T15:46:55-07:00,3.3339819908142,1,Pure_Unrelated.csv,SF_VersionA.csv,"Sans F A","Sans F A",BROAD,INFECT,Study1,U,75,38,Test,User,-,,Recall,Recall1,2966,,0,-1,-1,0,0,,,1
5f8b29a907e21f2236fcbe45,vkwl2k38l8,Trevor_EX2,1,95,2020-10-23T15:46:58-07:00,2.5851540565491,1,Pure_Unrelated.csv,SF_VersionA.csv,"Sans F A","Sans F A",DIZZY,SWEATER,Study1,U,77,43,Test,User,-,,Recall,Recall1,2190,,0,-1,-1,0,0,,,1
5f8b29a907e21f2236fcbe45,vkwl2k38l8,Trevor_EX2,1,96,2020-10-23T15:47:00-07:00,2.2276589870453,1,Pure_Unrelated.csv,SF_VersionA.csv,"Sans F A","Sans F A",PET,MOON,Study1,U,74,8,Test,User,-,,Recall,Recall1,1768,,0,-1,-1,0,0,,,1
5f8b29a907e21f2236fcbe45,vkwl2k38l8,Trevor_EX2,1,97,2020-10-23T15:47:08-07:00,7.6075429916382,1,Pure_Unrelated.csv,SF_VersionA.csv,"Sans F A","Sans F A",CRAYON,RATE,Study1,U,79,27,Test,User,-,,Recall,Recall1,7145,,0,-1,-1,0,0,,,1
5f8b29a907e21f2236fcbe45,vkwl2k38l8,Trevor_EX2,1,98,2020-10-23T15:47:14-07:00,6.1552278995514,1,Pure_Unrelated.csv,SF_VersionA.csv,"Sans F A","Sans F A",TEMPERATURE,MORNING,Study1,U,23,35,Test,User,-,,Recall,Recall1,5695,Morning,100,4511,5399,1,1,,,1
5f8b29a907e21f2236fcbe45,vkwl2k38l8,Trevor_EX2,1,99,2020-10-23T15:47:25-07:00,11.118647098541,1,Pure_Unrelated.csv,SF_VersionA.csv,"Sans F A","Sans F A",,,,,,0,Instruct,-,10,"You will now be presented with a new set of word pairs. Please study each pair. Remember that your memory will be tested! When finished, press Enter to move to the next pair.",Initial_Instruct,Instruct4,10728,,,-1,-1,,,,,1
5f8b29a907e21f2236fcbe45,vkwl2k38l8,Trevor_EX2,1,100,2020-10-23T15:47:36-07:00,11.478864908218,1,Pure_Unrelated.csv,SF_VersionA.csv,"Sans F A","Sans F A",,,,,,0,Instruct,,10,"You will again be asked to rate your ability to remember these items using a 0 to 100 scale. Remember to use the full range of the scale!",,Instruct10,11087,,,-1,-1,,,,,1
5f8b29a907e21f2236fcbe45,vkwl2k38l8,Trevor_EX2,1,101,2020-10-23T15:47:38-07:00,1.9462940692902,1,Pure_Unrelated.csv,SF_VersionA.csv,"Sans F A","Sans F A",,,,,,0,Instruct,User,-,"Press Enter when you are readty to begin",,Instruct11,1545,,,-1,-1,,,,,1
5f8b29a907e21f2236fcbe45,vkwl2k38l8,Trevor_EX2,1,102,2020-10-23T15:47:52-07:00,13.502798080444,1,Pure_Unrelated.csv,SF_VersionA.csv,"Sans F A","Sans F A",ICE,FROZEN,BUFFER3,Buffer,94,52,JOL_SF,User,-,"How likely are you to correctly recall the second item in the pair?|Type your response on a scale from 0-100 and then press Enter.",Study/JOL,BUFFER3,13121,,,8895,12670,,,,40,1
5f8b29a907e21f2236fcbe45,vkwl2k38l8,Trevor_EX2,1,103,2020-10-23T15:48:00-07:00,8.1006829738617,1,Pure_Unrelated.csv,SF_VersionA.csv,"Sans F A","Sans F A",NOODLE,STRING,BUFFER3,Buffer,92,55,JOL,User,-,"How likely are you to correctly recall the second item in the pair?|Type your response on a scale from 0-100 and then press Enter.",Study/JOL,BUFFER3,7716,,,3427,7526,,,,100,1
5f8b29a907e21f2236fcbe45,vkwl2k38l8,Trevor_EX2,1,104,2020-10-23T15:48:03-07:00,3.3675880432129,1,Pure_Unrelated.csv,SF_VersionA.csv,"Sans F A","Sans F A",SHRIMP,FISH,BUFFER3,Buffer,93,53,JOL_SF,User,-,"How likely are you to correctly recall the second item in the pair?|Type your response on a scale from 0-100 and then press Enter.",Study/JOL,BUFFER3,2985,,,2558,2860,,,,100,1
5f8b29a907e21f2236fcbe45,vkwl2k38l8,Trevor_EX2,1,105,2020-10-23T15:48:08-07:00,4.4779229164124,1,Pure_Unrelated.csv,SF_VersionA.csv,"Sans F A","Sans F A",CARROT,POTATO,BUFFER3,Buffer,91,56,JOL_SF,User,-,"How likely are you to correctly recall the second item in the pair?|Type your response on a scale from 0-100 and then press Enter.",Study/JOL,BUFFER3,4078,,,3256,3365,,,,80,1
5f8b29a907e21f2236fcbe45,vkwl2k38l8,Trevor_EX2,1,106,2020-10-23T15:48:21-07:00,12.920207977295,1,Pure_Unrelated.csv,SF_VersionA.csv,"Sans F A","Sans F A",CAMP,ADVENTURE,BUFFER3,Buffer,95,54,JOL,User,-,"How likely are you to correctly recall the second item in the pair?|Type your response on a scale from 0-100 and then press Enter.",Study/JOL,BUFFER3,12535,,,12043,12337,,,,100,1
5f8b29a907e21f2236fcbe45,vkwl2k38l8,Trevor_EX2,1,107,2020-10-23T15:48:26-07:00,4.9653699398041,1,Pure_Unrelated.csv,SF_VersionA.csv,"Sans F A","Sans F A",WOULD,CASH,Study2,U,113,95,JOL,User,-,"How likely are you to correctly recall the second item in the pair?|Type your response on a scale from 0-100 and then press Enter.",Study/JOL,"Study Phase2",4556,,,3413,3832,,,,40,1
5f8b29a907e21f2236fcbe45,vkwl2k38l8,Trevor_EX2,1,108,2020-10-23T15:48:30-07:00,4.2293581962585,1,Pure_Unrelated.csv,SF_VersionA.csv,"Sans F A","Sans F A",ZOO,THUMB,Study2,U,168,81,JOL,User,-,"How likely are you to correctly recall the second item in the pair?|Type your response on a scale from 0-100 and then press Enter.",Study/JOL,"Study Phase2",3863,,,3167,3366,,,,10,1
5f8b29a907e21f2236fcbe45,vkwl2k38l8,Trevor_EX2,1,109,2020-10-23T15:48:34-07:00,4.2779319286346,1,Pure_Unrelated.csv,SF_VersionA.csv,"Sans F A","Sans F A",DESIRE,NOISE,Study2,U,169,60,JOL_SF,User,-,"How likely are you to correctly recall the second item in the pair?|Type your response on a scale from 0-100 and then press Enter.",Study/JOL,"Study Phase2",3789,,,3447,3587,,,,30,1
5f8b29a907e21f2236fcbe45,vkwl2k38l8,Trevor_EX2,1,110,2020-10-23T15:48:48-07:00,13.538775920868,1,Pure_Unrelated.csv,SF_VersionA.csv,"Sans F A","Sans F A",SLIM,KNOW,Study2,U,164,83,JOL,User,-,"How likely are you to correctly recall the second item in the pair?|Type your response on a scale from 0-100 and then press Enter.",Study/JOL,"Study Phase2",13144,,,12884,12965,,,,30,1
5f8b29a907e21f2236fcbe45,vkwl2k38l8,Trevor_EX2,1,111,2020-10-23T15:48:56-07:00,7.8558490276337,1,Pure_Unrelated.csv,SF_VersionA.csv,"Sans F A","Sans F A",FLOAT,HARMONY,Study2,U,161,96,JOL,User,-,"How likely are you to correctly recall the second item in the pair?|Type your response on a scale from 0-100 and then press Enter.",Study/JOL,"Study Phase2",7478,,,6942,7185,,,,70,1
5f8b29a907e21f2236fcbe45,vkwl2k38l8,Trevor_EX2,1,112,2020-10-23T15:49:01-07:00,5.7124710083008,1,Pure_Unrelated.csv,SF_VersionA.csv,"Sans F A","Sans F A",GUARD,WHEEL,Study2,U,170,79,JOL,User,-,"How likely are you to correctly recall the second item in the pair?|Type your response on a scale from 0-100 and then press Enter.",Study/JOL,"Study Phase2",5338,,,2873,3205,,,,50,1
5f8b29a907e21f2236fcbe45,vkwl2k38l8,Trevor_EX2,1,113,2020-10-23T15:49:07-07:00,5.6782360076904,1,Pure_Unrelated.csv,SF_VersionA.csv,"Sans F A","Sans F A",BELT,SOON,Study2,U,100,82,JOL,User,-,"How likely are you to correctly recall the second item in the pair?|Type your response on a scale from 0-100 and then press Enter.",Study/JOL,"Study Phase2",5263,,,3560,3723,,,,50,1
5f8b29a907e21f2236fcbe45,vkwl2k38l8,Trevor_EX2,1,114,2020-10-23T15:49:11-07:00,4.2198359966278,1,Pure_Unrelated.csv,SF_VersionA.csv,"Sans F A","Sans F A",BRONZE,ARTERY,Study2,U,104,65,JOL_SF,User,-,"How likely are you to correctly recall the second item in the pair?|Type your response on a scale from 0-100 and then press Enter.",Study/JOL,"Study Phase2",3854,,,2821,2960,,,,70,1
5f8b29a907e21f2236fcbe45,vkwl2k38l8,Trevor_EX2,1,115,2020-10-23T15:49:15-07:00,3.9980890750885,1,Pure_Unrelated.csv,SF_VersionA.csv,"Sans F A","Sans F A",WOMAN,LIFT,Study2,U,99,70,JOL_SF,User,-,"How likely are you to correctly recall the second item in the pair?|Type your response on a scale from 0-100 and then press Enter.",Study/JOL,"Study Phase2",3652,,,3122,3256,,,,50,1
5f8b29a907e21f2236fcbe45,vkwl2k38l8,Trevor_EX2,1,116,2020-10-23T15:49:18-07:00,3.2854208946228,1,Pure_Unrelated.csv,SF_VersionA.csv,"Sans F A","Sans F A",HUNGRY,PARK,Study2,U,98,57,JOL_SF,User,-,"How likely are you to correctly recall the second item in the pair?|Type your response on a scale from 0-100 and then press Enter.",Study/JOL,"Study Phase2",2934,,,2517,2777,,,,100,1
5f8b29a907e21f2236fcbe45,vkwl2k38l8,Trevor_EX2,1,117,2020-10-23T15:49:22-07:00,3.2012739181519,1,Pure_Unrelated.csv,SF_VersionA.csv,"Sans F A","Sans F A",STOMACH,TOWN,Study2,U,159,68,JOL_SF,User,-,"How likely are you to correctly recall the second item in the pair?|Type your response on a scale from 0-100 and then press Enter.",Study/JOL,"Study Phase2",2857,,,2237,2376,,,,70,1
5f8b29a907e21f2236fcbe45,vkwl2k38l8,Trevor_EX2,1,118,2020-10-23T15:49:27-07:00,5.6070020198822,1,Pure_Unrelated.csv,SF_VersionA.csv,"Sans F A","Sans F A",POSITION,MACHINE,Study2,U,106,69,JOL_SF,User,-,"How likely are you to correctly recall the second item in the pair?|Type your response on a scale from 0-100 and then press Enter.",Study/JOL,"Study Phase2",5212,,,4617,4814,,,,40,1
5f8b29a907e21f2236fcbe45,vkwl2k38l8,Trevor_EX2,1,119,2020-10-23T15:49:31-07:00,3.5287010669708,1,Pure_Unrelated.csv,SF_VersionA.csv,"Sans F A","Sans F A",DETECT,FREE,Study2,U,162,64,JOL_SF,User,-,"How likely are you to correctly recall the second item in the pair?|Type your response on a scale from 0-100 and then press Enter.",Study/JOL,"Study Phase2",3085,,,2272,2700,,,,70,1
5f8b29a907e21f2236fcbe45,vkwl2k38l8,Trevor_EX2,1,120,2020-10-23T15:49:35-07:00,4.1634900569916,1,Pure_Unrelated.csv,SF_VersionA.csv,"Sans F A","Sans F A",TUCK,ALLOW,Study2,U,108,80,JOL,User,-,"How likely are you to correctly recall the second item in the pair?|Type your response on a scale from 0-100 and then press Enter.",Study/JOL,"Study Phase2",3789,,,3255,3374,,,,70,1
5f8b29a907e21f2236fcbe45,vkwl2k38l8,Trevor_EX2,1,121,2020-10-23T15:49:38-07:00,2.8554589748383,1,Pure_Unrelated.csv,SF_VersionA.csv,"Sans F A","Sans F A",HAND,FIX,Study2,U,105,87,JOL,User,-,"How likely are you to correctly recall the second item in the pair?|Type your response on a scale from 0-100 and then press Enter.",Study/JOL,"Study Phase2",2493,,,2065,2356,,,,100,1
5f8b29a907e21f2236fcbe45,vkwl2k38l8,Trevor_EX2,1,122,2020-10-23T15:49:41-07:00,3.6125249862671,1,Pure_Unrelated.csv,SF_VersionA.csv,"Sans F A","Sans F A",ACCIDENT,STRONG,Study2,U,110,63,JOL_SF,User,-,"How likely are you to correctly recall the second item in the pair?|Type your response on a scale from 0-100 and then press Enter.",Study/JOL,"Study Phase2",3241,,,2751,3084,,,,100,1
5f8b29a907e21f2236fcbe45,vkwl2k38l8,Trevor_EX2,1,123,2020-10-23T15:49:45-07:00,3.1525800228119,1,Pure_Unrelated.csv,SF_VersionA.csv,"Sans F A","Sans F A",WASTE,SEDATE,Study2,U,165,89,JOL,User,-,"How likely are you to correctly recall the second item in the pair?|Type your response on a scale from 0-100 and then press Enter.",Study/JOL,"Study Phase2",2783,,,2130,2252,,,,70,1
5f8b29a907e21f2236fcbe45,vkwl2k38l8,Trevor_EX2,1,124,2020-10-23T15:49:49-07:00,4.2083060741425,1,Pure_Unrelated.csv,SF_VersionA.csv,"Sans F A","Sans F A",MUTE,WAVE,Study2,U,173,61,JOL_SF,User,-,"How likely are you to correctly recall the second item in the pair?|Type your response on a scale from 0-100 and then press Enter.",Study/JOL,"Study Phase2",3862,,,2880,3724,,,,100,1
5f8b29a907e21f2236fcbe45,vkwl2k38l8,Trevor_EX2,1,125,2020-10-23T15:49:52-07:00,2.8711359500885,1,Pure_Unrelated.csv,SF_VersionA.csv,"Sans F A","Sans F A",ADD,VALLEY,Study2,U,112,94,JOL,User,-,"How likely are you to correctly recall the second item in the pair?|Type your response on a scale from 0-100 and then press Enter.",Study/JOL,"Study Phase2",2528,,,1945,2082,,,,70,1
5f8b29a907e21f2236fcbe45,vkwl2k38l8,Trevor_EX2,1,126,2020-10-23T15:49:56-07:00,3.9918539524078,1,Pure_Unrelated.csv,SF_VersionA.csv,"Sans F A","Sans F A",PUT,ROLL,Study2,U,163,85,JOL,User,-,"How likely are you to correctly recall the second item in the pair?|Type your response on a scale from 0-100 and then press Enter.",Study/JOL,"Study Phase2",3617,,,2029,2196,,,,20,1
5f8b29a907e21f2236fcbe45,vkwl2k38l8,Trevor_EX2,1,127,2020-10-23T15:50:05-07:00,9.5548839569092,1,Pure_Unrelated.csv,SF_VersionA.csv,"Sans F A","Sans F A",SMOOTH,OMIT,Study2,U,157,59,JOL_SF,User,-,"How likely are you to correctly recall the second item in the pair?|Type your response on a scale from 0-100 and then press Enter.",Study/JOL,"Study Phase2",9191,,,3983,4957,,,,30,1
5f8b29a907e21f2236fcbe45,vkwl2k38l8,Trevor_EX2,1,128,2020-10-23T15:50:09-07:00,4.2200829982758,1,Pure_Unrelated.csv,SF_VersionA.csv,"Sans F A","Sans F A",READY,CORN,Study2,U,158,76,JOL_SF,User,-,"How likely are you to correctly recall the second item in the pair?|Type your response on a scale from 0-100 and then press Enter.",Study/JOL,"Study Phase2",3838,,,3444,3610,,,,40,1
5f8b29a907e21f2236fcbe45,vkwl2k38l8,Trevor_EX2,1,129,2020-10-23T15:50:14-07:00,4.1405551433563,1,Pure_Unrelated.csv,SF_VersionA.csv,"Sans F A","Sans F A",ROAD,SCENT,Study2,U,166,78,JOL,User,-,"How likely are you to correctly recall the second item in the pair?|Type your response on a scale from 0-100 and then press Enter.",Study/JOL,"Study Phase2",3729,,,3245,3589,,,,100,1
5f8b29a907e21f2236fcbe45,vkwl2k38l8,Trevor_EX2,1,130,2020-10-23T15:50:18-07:00,4.7399768829346,1,Pure_Unrelated.csv,SF_VersionA.csv,"Sans F A","Sans F A",SICK,HIDE,Study2,U,114,91,JOL,User,-,"How likely are you to correctly recall the second item in the pair?|Type your response on a scale from 0-100 and then press Enter.",Study/JOL,"Study Phase2",4365,,,2200,4214,,,,100,1
5f8b29a907e21f2236fcbe45,vkwl2k38l8,Trevor_EX2,1,131,2020-10-23T15:50:23-07:00,4.6767439842224,1,Pure_Unrelated.csv,SF_VersionA.csv,"Sans F A","Sans F A",SWING,FOG,Study2,U,175,66,JOL_SF,User,-,"How likely are you to correctly recall the second item in the pair?|Type your response on a scale from 0-100 and then press Enter.",Study/JOL,"Study Phase2",4284,,,3424,3742,,,,100,1
5f8b29a907e21f2236fcbe45,vkwl2k38l8,Trevor_EX2,1,132,2020-10-23T15:50:34-07:00,11.471143007278,1,Pure_Unrelated.csv,SF_VersionA.csv,"Sans F A","Sans F A",LAKE,OPINION,Study2,U,160,84,JOL,User,-,"How likely are you to correctly recall the second item in the pair?|Type your response on a scale from 0-100 and then press Enter.",Study/JOL,"Study Phase2",11076,,,9774,10889,,,,100,0.818
5f8b29a907e21f2236fcbe45,vkwl2k38l8,Trevor_EX2,1,133,2020-10-23T15:50:37-07:00,2.9662640094757,1,Pure_Unrelated.csv,SF_VersionA.csv,"Sans F A","Sans F A",VASE,KING,Study2,U,115,71,JOL_SF,User,-,"How likely are you to correctly recall the second item in the pair?|Type your response on a scale from 0-100 and then press Enter.",Study/JOL,"Study Phase2",2575,,,2245,2347,,,,80,1
5f8b29a907e21f2236fcbe45,vkwl2k38l8,Trevor_EX2,1,134,2020-10-23T15:50:42-07:00,4.8540189266205,1,Pure_Unrelated.csv,SF_VersionA.csv,"Sans F A","Sans F A",FLOOR,DISCOVER,Study2,U,101,73,JOL_SF,User,-,"How likely are you to correctly recall the second item in the pair?|Type your response on a scale from 0-100 and then press Enter.",Study/JOL,"Study Phase2",4474,,,3673,4079,,,,50,1
5f8b29a907e21f2236fcbe45,vkwl2k38l8,Trevor_EX2,1,135,2020-10-23T15:50:46-07:00,3.955286026001,1,Pure_Unrelated.csv,SF_VersionA.csv,"Sans F A","Sans F A",SMOOTH,OMIT,Study2,U,157,59,JOL_SF,User,-,"How likely are you to correctly recall the second item in the pair?|Type your response on a scale from 0-100 and then press Enter.",Study/JOL,"Study Phase2",3515,,,3164,3306,,,,60,1
5f8b29a907e21f2236fcbe45,vkwl2k38l8,Trevor_EX2,1,136,2020-10-23T15:50:49-07:00,3.233570098877,1,Pure_Unrelated.csv,SF_VersionA.csv,"Sans F A","Sans F A",CAR,HAPPY,Study2,U,107,86,JOL,User,-,"How likely are you to correctly recall the second item in the pair?|Type your response on a scale from 0-100 and then press Enter.",Study/JOL,"Study Phase2",2849,,,2452,2748,,,,100,1
5f8b29a907e21f2236fcbe45,vkwl2k38l8,Trevor_EX2,1,137,2020-10-23T15:50:55-07:00,5.1578888893127,1,Pure_Unrelated.csv,SF_VersionA.csv,"Sans F A","Sans F A",LION,ART,Study2,U,109,67,JOL_SF,User,-,"How likely are you to correctly recall the second item in the pair?|Type your response on a scale from 0-100 and then press Enter.",Study/JOL,"Study Phase2",4784,,,3545,3801,,,,30,1
5f8b29a907e21f2236fcbe45,vkwl2k38l8,Trevor_EX2,1,138,2020-10-23T15:50:59-07:00,4.249165058136,1,Pure_Unrelated.csv,SF_VersionA.csv,"Sans F A","Sans F A",SYSTEM,LICK,Study2,U,167,88,JOL,User,-,"How likely are you to correctly recall the second item in the pair?|Type your response on a scale from 0-100 and then press Enter.",Study/JOL,"Study Phase2",3883,,,3366,3662,,,,100,1
5f8b29a907e21f2236fcbe45,vkwl2k38l8,Trevor_EX2,1,139,2020-10-23T15:51:04-07:00,4.7241590023041,1,Pure_Unrelated.csv,SF_VersionA.csv,"Sans F A","Sans F A",CLUTTER,PUSHER,Study2,U,96,72,JOL_SF,User,-,"How likely are you to correctly recall the second item in the pair?|Type your response on a scale from 0-100 and then press Enter.",Study/JOL,"Study Phase2",4345,,,3512,4025,,,,60,1
5f8b29a907e21f2236fcbe45,vkwl2k38l8,Trevor_EX2,1,140,2020-10-23T15:51:11-07:00,7.1722240447998,1,Pure_Unrelated.csv,SF_VersionA.csv,"Sans F A","Sans F A",PUFF,NUMBER,Study2,U,171,62,JOL_SF,User,-,"How likely are you to correctly recall the second item in the pair?|Type your response on a scale from 0-100 and then press Enter.",Study/JOL,"Study Phase2",6792,,,6551,6631,,,,40,1
5f8b29a907e21f2236fcbe45,vkwl2k38l8,Trevor_EX2,1,141,2020-10-23T15:51:15-07:00,4.7389190196991,1,Pure_Unrelated.csv,SF_VersionA.csv,"Sans F A","Sans F A",RIDDLE,SUGAR,Study2,U,111,90,JOL,User,-,"How likely are you to correctly recall the second item in the pair?|Type your response on a scale from 0-100 and then press Enter.",Study/JOL,"Study Phase2",4340,,,1590,2523,,,,100,1
5f8b29a907e21f2236fcbe45,vkwl2k38l8,Trevor_EX2,1,142,2020-10-23T15:51:22-07:00,6.1853940486908,1,Pure_Unrelated.csv,SF_VersionA.csv,"Sans F A","Sans F A",SACKING,DIETARY,Study2,U,97,74,JOL_SF,User,-,"How likely are you to correctly recall the second item in the pair?|Type your response on a scale from 0-100 and then press Enter.",Study/JOL,"Study Phase2",5796,,,1631,5653,,,,40,1
5f8b29a907e21f2236fcbe45,vkwl2k38l8,Trevor_EX2,1,143,2020-10-23T15:51:26-07:00,3.9730370044708,1,Pure_Unrelated.csv,SF_VersionA.csv,"Sans F A","Sans F A",NULL,COUGH,Study2,U,156,93,JOL,User,-,"How likely are you to correctly recall the second item in the pair?|Type your response on a scale from 0-100 and then press Enter.",Study/JOL,"Study Phase2",3392,,,2946,3164,,,,90,1
5f8b29a907e21f2236fcbe45,vkwl2k38l8,Trevor_EX2,1,144,2020-10-23T15:51:29-07:00,3.5487468242645,1,Pure_Unrelated.csv,SF_VersionA.csv,"Sans F A","Sans F A",SIGHT,DEBATE,Study2,U,103,75,JOL_SF,User,-,"How likely are you to correctly recall the second item in the pair?|Type your response on a scale from 0-100 and then press Enter.",Study/JOL,"Study Phase2",2873,,,2496,2747,,,,100,1
5f8b29a907e21f2236fcbe45,vkwl2k38l8,Trevor_EX2,1,145,2020-10-23T15:51:35-07:00,5.5594990253448,1,Pure_Unrelated.csv,SF_VersionA.csv,"Sans F A","Sans F A",Business,Death,Study2,U,102,77,JOL,User,-,"How likely are you to correctly recall the second item in the pair?|Type your response on a scale from 0-100 and then press Enter.",Study/JOL,"Study Phase2",3195,,,2707,3047,,,,100,1
5f8b29a907e21f2236fcbe45,vkwl2k38l8,Trevor_EX2,1,146,2020-10-23T15:51:48-07:00,13.003437042236,1,Pure_Unrelated.csv,SF_VersionA.csv,"Sans F A","Sans F A",SPELL,BONE,Study2,U,174,92,JOL,User,-,"How likely are you to correctly recall the second item in the pair?|Type your response on a scale from 0-100 and then press Enter.",Study/JOL,"Study Phase2",5228,,,4860,4997,,,,70,1
5f8b29a907e21f2236fcbe45,vkwl2k38l8,Trevor_EX2,1,147,2020-10-23T15:51:51-07:00,2.8655481338501,1,Pure_Unrelated.csv,SF_VersionA.csv,"Sans F A","Sans F A",TOOL,SHED,BUFFER4,Buffer,178,100,JOL,User,-,"How likely are you to correctly recall the second item in the pair?|Type your response on a scale from 0-100 and then press Enter.",Study/JOL,BUFFER4,2450,,,2057,2319,,,,100,1
5f8b29a907e21f2236fcbe45,vkwl2k38l8,Trevor_EX2,1,148,2020-10-23T15:51:55-07:00,3.9853868484497,1,Pure_Unrelated.csv,SF_VersionA.csv,"Sans F A","Sans F A",MONTH,YEAR,BUFFER4,Buffer,177,99,JOL,User,-,"How likely are you to correctly recall the second item in the pair?|Type your response on a scale from 0-100 and then press Enter.",Study/JOL,BUFFER4,3603,,,3145,3453,,,,100,1
5f8b29a907e21f2236fcbe45,vkwl2k38l8,Trevor_EX2,1,149,2020-10-23T15:51:58-07:00,3.5362811088562,1,Pure_Unrelated.csv,SF_VersionA.csv,"Sans F A","Sans F A",SPRING,MARCH,BUFFER4,Buffer,179,98,JOL_SF,User,-,"How likely are you to correctly recall the second item in the pair?|Type your response on a scale from 0-100 and then press Enter.",Study/JOL,BUFFER4,3164,,,2761,3026,,,,100,1
5f8b29a907e21f2236fcbe45,vkwl2k38l8,Trevor_EX2,1,150,2020-10-23T15:52:01-07:00,3.2084679603577,1,Pure_Unrelated.csv,SF_VersionA.csv,"Sans F A","Sans F A",OCTOBER,SPOOKY,BUFFER4,Buffer,180,97,JOL_SF,User,-,"How likely are you to correctly recall the second item in the pair?|Type your response on a scale from 0-100 and then press Enter.",Study/JOL,BUFFER4,2837,,,2363,2696,,,,100,1
5f8b29a907e21f2236fcbe45,vkwl2k38l8,Trevor_EX2,1,151,2020-10-23T15:52:05-07:00,3.7058939933777,1,Pure_Unrelated.csv,SF_VersionA.csv,"Sans F A","Sans F A",DAYS,WEEKS,BUFFER4,Buffer,176,101,JOL,User,-,"How likely are you to correctly recall the second item in the pair?|Type your response on a scale from 0-100 and then press Enter.",Study/JOL,BUFFER4,3315,,,2806,3121,,,,100,1
5f8b29a907e21f2236fcbe45,vkwl2k38l8,Trevor_EX2,1,152,2020-10-23T15:52:06-07:00,1.273913860321,1,Pure_Unrelated.csv,SF_VersionA.csv,"Sans F A","Sans F A",,,,,,0,Instruct,User,-,"You have completed this section. Please press Enter.",Filler_Instruction,Instruct5,905,,,-1,-1,,,,,1
5f8b29a907e21f2236fcbe45,vkwl2k38l8,Trevor_EX2,1,153,2020-10-23T15:54:07-07:00,120.49359202385,1,Pure_Unrelated.csv,SF_VersionA.csv,"Sans F A","Sans F A",,,,,,0,FreeRecall,120,120,"Please list the 50 US states in reverse alphabetical order (z - a). The task will automatically advance to the next screen after two minutes.",,Filler2,120002," Alabama Alaska Arizona Arkansas California Colorado Connecticut Delaware Florida Georgia Hawaii Idaho Illinois Indiana Iowa Kansas Kentucky Louisiana Maine Maryland Massachusetts Michigan Minnesota Mississippi Missouri Montana Nebraska Nevada New Hampshire New Jersey New Mexico New York North Carolina North Dakota Ohio Oklahoma Oregon Pennsylvania Rhode Island South Carolina South Dakota Tennessee Texas Utah Vermont Virginia Washington West Virginia Wisconsin Wyoming",0,-1,-1,0,0,,,1
5f8b29a907e21f2236fcbe45,vkwl2k38l8,Trevor_EX2,1,154,2020-10-23T15:54:23-07:00,16.060643196106,1,Pure_Unrelated.csv,SF_VersionA.csv,"Sans F A","Sans F A",,,,,,0,Instruct,-,10,"You will now be presented with the first word from each of the previously studied item pairs. Please type the missing word. If you do not know the word, you may guess or press Enter to skip forward to the next pair.",,Instruct6,15589,,,-1,-1,,,,,1
5f8b29a907e21f2236fcbe45,vkwl2k38l8,Trevor_EX2,1,155,2020-10-23T15:54:36-07:00,13.510531902313,1,Pure_Unrelated.csv,SF_VersionA.csv,"Sans F A","Sans F A",ACCIDENT,STRONG,Study2,U,110,63,Test,User,-,,Recall,Recall2,12603,Strong,100,10839,11634,1,1,,,1
5f8b29a907e21f2236fcbe45,vkwl2k38l8,Trevor_EX2,1,156,2020-10-23T15:55:23-07:00,46.523326873779,1,Pure_Unrelated.csv,SF_VersionA.csv,"Sans F A","Sans F A",WOULD,CASH,Study2,U,113,95,Test,User,-,,Recall,Recall2,46035,Cash,100,45245,45785,1,1,,,1
5f8b29a907e21f2236fcbe45,vkwl2k38l8,Trevor_EX2,1,157,2020-10-23T15:55:47-07:00,24.587006092072,1,Pure_Unrelated.csv,SF_VersionA.csv,"Sans F A","Sans F A",PUFF,NUMBER,Study2,U,171,62,Test,User,-,,Recall,Recall2,24208,Number,100,23153,24031,1,1,,,1
5f8b29a907e21f2236fcbe45,vkwl2k38l8,Trevor_EX2,1,158,2020-10-23T15:55:59-07:00,11.348911046982,1,Pure_Unrelated.csv,SF_VersionA.csv,"Sans F A","Sans F A",ZOO,THUMB,Study2,U,168,81,Test,User,-,,Recall,Recall2,10974,Thumb,100,9884,10713,1,1,,,1
5f8b29a907e21f2236fcbe45,vkwl2k38l8,Trevor_EX2,1,159,2020-10-23T15:56:17-07:00,18.363266944885,1,Pure_Unrelated.csv,SF_VersionA.csv,"Sans F A","Sans F A",NULL,COUGH,Study2,U,156,93,Test,User,-,,Recall,Recall2,17743,Cough,100,16625,17152,1,1,,,1
5f8b29a907e21f2236fcbe45,vkwl2k38l8,Trevor_EX2,1,160,2020-10-23T15:56:24-07:00,6.4504570960999,1,Pure_Unrelated.csv,SF_VersionA.csv,"Sans F A","Sans F A",LION,ART,Study2,U,109,67,Test,User,-,,Recall,Recall2,6082,Art,100,5366,5903,1,1,,,1
5f8b29a907e21f2236fcbe45,vkwl2k38l8,Trevor_EX2,1,161,2020-10-23T15:56:40-07:00,15.845785856247,1,Pure_Unrelated.csv,SF_VersionA.csv,"Sans F A","Sans F A",FLOAT,HARMONY,Study2,U,161,96,Test,User,-,,Recall,Recall2,15429,Harmony,100,14055,15182,1,1,,,1
5f8b29a907e21f2236fcbe45,vkwl2k38l8,Trevor_EX2,1,162,2020-10-23T15:56:45-07:00,5.2582859992981,1,Pure_Unrelated.csv,SF_VersionA.csv,"Sans F A","Sans F A",DESIRE,NOISE,Study2,U,169,60,Test,User,-,,Recall,Recall2,4880,Noise,100,3984,4539,1,1,,,1
5f8b29a907e21f2236fcbe45,vkwl2k38l8,Trevor_EX2,1,163,2020-10-23T15:57:03-07:00,18.076078176498,1,Pure_Unrelated.csv,SF_VersionA.csv,"Sans F A","Sans F A",PUT,ROLL,Study2,U,163,85,Test,User,-,,Recall,Recall2,17710,Rot,57.142857142857,13867,15726,0,0,,,1
5f8b29a907e21f2236fcbe45,vkwl2k38l8,Trevor_EX2,1,164,2020-10-23T15:57:36-07:00,33.395915985107,1,Pure_Unrelated.csv,SF_VersionA.csv,"Sans F A","Sans F A",FLOOR,DISCOVER,Study2,U,101,73,Test,User,-,,Recall,Recall2,32995,Drum,33.333333333333,25153,31753,0,0,,,1
5f8b29a907e21f2236fcbe45,vkwl2k38l8,Trevor_EX2,1,165,2020-10-23T15:57:55-07:00,18.27507185936,1,Pure_Unrelated.csv,SF_VersionA.csv,"Sans F A","Sans F A",WASTE,SEDATE,Study2,U,165,89,Test,User,-,,Recall,Recall2,17882,Sedate,100,15270,17317,1,1,,,1
5f8b29a907e21f2236fcbe45,vkwl2k38l8,Trevor_EX2,1,166,2020-10-23T15:58:05-07:00,10.387367010117,1,Pure_Unrelated.csv,SF_VersionA.csv,"Sans F A","Sans F A",STOMACH,TOWN,Study2,U,159,68,Test,User,-,,Recall,Recall2,9971,Tone,75,9066,9523,0,1,,,1
5f8b29a907e21f2236fcbe45,vkwl2k38l8,Trevor_EX2,1,167,2020-10-23T15:58:36-07:00,30.836506128311,1,Pure_Unrelated.csv,SF_VersionA.csv,"Sans F A","Sans F A",SWING,FOG,Study2,U,175,66,Test,User,-,,Recall,Recall2,30438,Soon,28.571428571429,29345,30088,0,0,,,1
5f8b29a907e21f2236fcbe45,vkwl2k38l8,Trevor_EX2,1,168,2020-10-23T15:58:45-07:00,9.5258169174194,1,Pure_Unrelated.csv,SF_VersionA.csv,"Sans F A","Sans F A",Business,Death,Study2,U,102,77,Test,User,-,,Recall,Recall2,9139,Death,100,7267,8923,1,1,,,1
5f8b29a907e21f2236fcbe45,vkwl2k38l8,Trevor_EX2,1,169,2020-10-23T15:58:58-07:00,12.410017967224,1,Pure_Unrelated.csv,SF_VersionA.csv,"Sans F A","Sans F A",WOMAN,LIFT,Study2,U,99,70,Test,User,-,,Recall,Recall2,12002,Lift,100,10950,11607,1,1,,,1
5f8b29a907e21f2236fcbe45,vkwl2k38l8,Trevor_EX2,1,170,2020-10-23T15:59:13-07:00,15.193243980408,1,Pure_Unrelated.csv,SF_VersionA.csv,"Sans F A","Sans F A",READY,CORN,Study2,U,158,76,Test,User,-,,Recall,Recall2,14812,Torn,75,11838,14492,0,1,,,1
5f8b29a907e21f2236fcbe45,vkwl2k38l8,Trevor_EX2,1,171,2020-10-23T15:59:24-07:00,11.434942007065,1,Pure_Unrelated.csv,SF_VersionA.csv,"Sans F A","Sans F A",TUCK,ALLOW,Study2,U,108,80,Test,User,-,,Recall,Recall2,11039,Allow,100,10295,10919,1,1,,,1
5f8b29a907e21f2236fcbe45,vkwl2k38l8,Trevor_EX2,1,172,2020-10-23T15:59:43-07:00,18.972293138504,1,Pure_Unrelated.csv,SF_VersionA.csv,"Sans F A","Sans F A",SICK,HIDE,Study2,U,114,91,Test,User,-,,Recall,Recall2,18601,Cough,22.222222222222,17816,18375,0,0,,,1
5f8b29a907e21f2236fcbe45,vkwl2k38l8,Trevor_EX2,1,173,2020-10-23T16:00:12-07:00,29.19309592247,1,Pure_Unrelated.csv,SF_VersionA.csv,"Sans F A","Sans F A",SLIM,KNOW,Study2,U,164,83,Test,User,-,,Recall,Recall2,28813,Ready,0,24177,28537,0,0,,,1
5f8b29a907e21f2236fcbe45,vkwl2k38l8,Trevor_EX2,1,174,2020-10-23T16:00:35-07:00,22.661014080048,1,Pure_Unrelated.csv,SF_VersionA.csv,"Sans F A","Sans F A",DETECT,FREE,Study2,U,162,64,Test,User,-,,Recall,Recall2,22270,Free,100,21217,21847,1,1,,,1
5f8b29a907e21f2236fcbe45,vkwl2k38l8,Trevor_EX2,1,175,2020-10-23T16:00:56-07:00,20.863915920258,1,Pure_Unrelated.csv,SF_VersionA.csv,"Sans F A","Sans F A",SPELL,BONE,Study2,U,174,92,Test,User,-,,Recall,Recall2,20463,Bone,100,19052,20275,1,1,,,1
5f8b29a907e21f2236fcbe45,vkwl2k38l8,Trevor_EX2,1,176,2020-10-23T16:01:05-07:00,8.821084022522,1,Pure_Unrelated.csv,SF_VersionA.csv,"Sans F A","Sans F A",VASE,KING,Study2,U,115,71,Test,User,-,,Recall,Recall2,8428,King,100,7928,8219,1,1,,,1
5f8b29a907e21f2236fcbe45,vkwl2k38l8,Trevor_EX2,1,177,2020-10-23T16:01:29-07:00,23.870424985886,1,Pure_Unrelated.csv,SF_VersionA.csv,"Sans F A","Sans F A",SIGHT,DEBATE,Study2,U,103,75,Test,User,-,,Recall,Recall2,23494,Omit,20,22681,23335,0,0,,,1
5f8b29a907e21f2236fcbe45,vkwl2k38l8,Trevor_EX2,1,178,2020-10-23T16:01:39-07:00,10.484917879105,1,Pure_Unrelated.csv,SF_VersionA.csv,"Sans F A","Sans F A",SACKING,DIETARY,Study2,U,97,74,Test,User,-,,Recall,Recall2,10095,Diet,72.727272727273,9293,9832,0,0,,,1
5f8b29a907e21f2236fcbe45,vkwl2k38l8,Trevor_EX2,1,179,2020-10-23T16:01:53-07:00,14.278987169266,1,Pure_Unrelated.csv,SF_VersionA.csv,"Sans F A","Sans F A",ADD,VALLEY,Study2,U,112,94,Test,User,-,,Recall,Recall2,13900,Valley,100,12716,13636,1,1,,,1
5f8b29a907e21f2236fcbe45,vkwl2k38l8,Trevor_EX2,1,180,2020-10-23T16:02:14-07:00,20.135466814041,1,Pure_Unrelated.csv,SF_VersionA.csv,"Sans F A","Sans F A",GUARD,WHEEL,Study2,U,170,79,Test,User,-,,Recall,Recall2,19713,Wheel,100,15862,19531,1,1,,,1
5f8b29a907e21f2236fcbe45,vkwl2k38l8,Trevor_EX2,1,181,2020-10-23T16:02:23-07:00,9.78498005867,1,Pure_Unrelated.csv,SF_VersionA.csv,"Sans F A","Sans F A",BRONZE,ARTERY,Study2,U,104,65,Test,User,-,,Recall,Recall2,9388,Art,66.666666666667,8497,8998,0,0,,,1
5f8b29a907e21f2236fcbe45,vkwl2k38l8,Trevor_EX2,1,182,2020-10-23T16:02:35-07:00,11.280529975891,1,Pure_Unrelated.csv,SF_VersionA.csv,"Sans F A","Sans F A",CAR,HAPPY,Study2,U,107,86,Test,User,-,,Recall,Recall2,10896,Happy,100,9855,10407,1,1,,,1
5f8b29a907e21f2236fcbe45,vkwl2k38l8,Trevor_EX2,1,183,2020-10-23T16:02:42-07:00,7.0745899677277,1,Pure_Unrelated.csv,SF_VersionA.csv,"Sans F A","Sans F A",HAND,FIX,Study2,U,105,87,Test,User,-,,Recall,Recall2,6549,Fix,100,6110,6415,1,1,,,1
5f8b29a907e21f2236fcbe45,vkwl2k38l8,Trevor_EX2,1,184,2020-10-23T16:02:48-07:00,6.4071362018585,1,Pure_Unrelated.csv,SF_VersionA.csv,"Sans F A","Sans F A",BELT,SOON,Study2,U,100,82,Test,User,-,,Recall,Recall2,6018,Soon,100,5373,5857,1,1,,,1
5f8b29a907e21f2236fcbe45,vkwl2k38l8,Trevor_EX2,1,185,2020-10-23T16:02:58-07:00,9.4686329364777,1,Pure_Unrelated.csv,SF_VersionA.csv,"Sans F A","Sans F A",POSITION,MACHINE,Study2,U,106,69,Test,User,-,,Recall,Recall2,9104,Motor,16.666666666667,8242,8901,0,0,,,1
5f8b29a907e21f2236fcbe45,vkwl2k38l8,Trevor_EX2,1,186,2020-10-23T16:03:14-07:00,16.368062019348,1,Pure_Unrelated.csv,SF_VersionA.csv,"Sans F A","Sans F A",HUNGRY,PARK,Study2,U,98,57,Test,User,-,,Recall,Recall2,15981,Park,100,13517,15832,1,1,,,1
5f8b29a907e21f2236fcbe45,vkwl2k38l8,Trevor_EX2,1,187,2020-10-23T16:03:27-07:00,12.919255018234,1,Pure_Unrelated.csv,SF_VersionA.csv,"Sans F A","Sans F A",MUTE,WAVE,Study2,U,173,61,Test,User,-,,Recall,Recall2,12523,Water,66.666666666667,11667,12375,0,0,,,1
5f8b29a907e21f2236fcbe45,vkwl2k38l8,Trevor_EX2,1,188,2020-10-23T16:03:51-07:00,24.215448856354,1,Pure_Unrelated.csv,SF_VersionA.csv,"Sans F A","Sans F A",LAKE,OPINION,Study2,U,160,84,Test,User,-,,Recall,Recall2,5751,Opinion,100,4596,5572,1,1,,,1
5f8b29a907e21f2236fcbe45,vkwl2k38l8,Trevor_EX2,1,189,2020-10-23T16:04:08-07:00,16.689123153687,1,Pure_Unrelated.csv,SF_VersionA.csv,"Sans F A","Sans F A",ROAD,SCENT,Study2,U,166,78,Test,User,-,,Recall,Recall2,16178,Scent,100,14595,16012,1,1,,,1
5f8b29a907e21f2236fcbe45,vkwl2k38l8,Trevor_EX2,1,190,2020-10-23T16:04:14-07:00,6.4446170330048,1,Pure_Unrelated.csv,SF_VersionA.csv,"Sans F A","Sans F A",SYSTEM,LICK,Study2,U,167,88,Test,User,-,,Recall,Recall2,6021,Lick,100,5444,5847,1,1,,,1
5f8b29a907e21f2236fcbe45,vkwl2k38l8,Trevor_EX2,1,191,2020-10-23T16:04:27-07:00,12.874622821808,1,Pure_Unrelated.csv,SF_VersionA.csv,"Sans F A","Sans F A",SMOOTH,OMIT,Study2,U,157,59,Test,User,-,,Recall,Recall2,12473,Omit,100,11660,12300,1,1,,,1
5f8b29a907e21f2236fcbe45,vkwl2k38l8,Trevor_EX2,1,192,2020-10-23T16:04:33-07:00,5.6022801399231,1,Pure_Unrelated.csv,SF_VersionA.csv,"Sans F A","Sans F A",RIDDLE,SUGAR,Study2,U,111,90,Test,User,-,,Recall,Recall2,5189,Sugar,100,4349,4989,1,1,,,1
5f8b29a907e21f2236fcbe45,vkwl2k38l8,Trevor_EX2,1,193,2020-10-23T16:04:40-07:00,7.4292688369751,1,Pure_Unrelated.csv,SF_VersionA.csv,"Sans F A","Sans F A",CLUTTER,PUSHER,Study2,U,96,72,Test,User,-,,Recall,Recall2,7058,Pusher,100,6262,6931,1,1,,,1
5f8b29a907e21f2236fcbe45,vkwl2k38l8,Trevor_EX2,1,194,2020-10-23T16:04:48-07:00,7.6596350669861,1,Pure_Unrelated.csv,SF_VersionA.csv,"Sans F A","Sans F A",SMOOTH,OMIT,Study2,U,157,59,Test,User,-,,Recall,Recall2,7103,Omit,100,6507,6915,1,1,,,1
5f8b29a907e21f2236fcbe45,vkwl2k38l8,Trevor_EX2,1,195,2020-10-23T16:04:49-07:00,1.6490919589996,1,Pure_Unrelated.csv,SF_VersionA.csv,"Sans F A","Sans F A",,,,,,0,Instruct,User,-,"You have completed this section. Please press Enter.",,Instruct7,1104,,,-1,-1,,,,,1
5f8b29a907e21f2236fcbe45,vkwl2k38l8,Trevor_EX2,1,196,2020-10-23T16:04:52-07:00,2.6502630710602,1,Pure_Unrelated.csv,SF_VersionA.csv,"Sans F A","Sans F A",,,,,,0,Instruct,User,-,"The following screen will ask you a few questions abour your experience today. You must complete these questions to receive credit.",,Instruct8,2250,,,-1,-1,,,,,1
