Username,ID,ExperimentName,Session,Trial,Date,TimeDif,"Condition Number","Stimuli File","Order File","Condition Description","Condition Notes",Stimuli*Cue,Stimuli*Answer,Stimuli*Shuffle,"Stimuli*Stimuli Notes",Stimuli*Value,Procedure*Item,"Procedure*Trial Type","Procedure*Max Time","Procedure*Min Time",Procedure*Text,"Procedure*Procedure Notes",Procedure*Shuffle,Response*RT,Response*Response,Response*Accuracy,Response*RTfirst,Response*RTlast,Response*strictAcc,Response*lenientAcc,Response*focus,Response*JOL,Response*Focus
5f4808a945ed0028ede337f2,ynpggltpgk,Trevor_EX2,1,1,2020-10-23T14:56:55-07:00,7.5856289863586,1,Pure_Unrelated.csv,SF_VersionA.csv,"Sans F A","Sans F A",,,,,,0,Instruct,-,5,"In this section, you will be presented with a series of word pairs.",Initial_Instruct,Instruct1,6984,,,-1,-1,,,,,0.9
5f4808a945ed0028ede337f2,ynpggltpgk,Trevor_EX2,1,2,2020-10-23T14:57:04-07:00,9.1864879131317,1,Pure_Unrelated.csv,SF_VersionA.csv,"Sans F A","Sans F A",,,,,,0,Instruct,-,5,"As you study, you will be asked to rate your ability to remember the second item in the pair if you were only shown the first at test. You will make these ratings using a 0 to 100 Scale.",,Instruct13,8706,,,-1,-1,,,,,1
5f4808a945ed0028ede337f2,ynpggltpgk,Trevor_EX2,1,3,2020-10-23T14:57:35-07:00,31.406591176987,1,Pure_Unrelated.csv,SF_VersionA.csv,"Sans F A","Sans F A",,,,,,0,Instruct,-,10,"For example, if you are given the pair CAT - DOG, a rating of 0 indicates that you would not remember DOG at test, while a rating of 100 indicates full certainty that you would remember the word DOG at test.",,Instruct14,30927,,,-1,-1,,,,,0.884
5f4808a945ed0028ede337f2,ynpggltpgk,Trevor_EX2,1,4,2020-10-23T14:57:52-07:00,16.927789926529,1,Pure_Unrelated.csv,SF_VersionA.csv,"Sans F A","Sans F A",,,,,,0,Instruct,-,10,"When making your ratings, it is criticial that you use the full range of the scale. You will be disqualified for only giving ratings of 0 or 100! After making your rating, press Enter to advance to the next pair.",,Instruct15,16387,,,-1,-1,,,,,0.862
5f4808a945ed0028ede337f2,ynpggltpgk,Trevor_EX2,1,5,2020-10-23T14:57:55-07:00,2.8299269676208,1,Pure_Unrelated.csv,SF_VersionA.csv,"Sans F A","Sans F A",,,,,,0,Instruct,User,-,"You will now begin the study. Press Enter when you are ready to begin.",,Instruct16,2239,,,-1,-1,,,,,1
5f4808a945ed0028ede337f2,ynpggltpgk,Trevor_EX2,1,6,2020-10-23T14:58:04-07:00,9.2810871601105,1,Pure_Unrelated.csv,SF_VersionA.csv,"Sans F A","Sans F A",BASEBALL,CATCHER,BUFFER1,Buffer,2,6,JOL,User,-,"How likely are you to correctly recall the second item in the pair?|Type your response on a scale from 0-100 and then press Enter.",Study/JOL,BUFFER,8781,,,7847,7919,,,,35,1
5f4808a945ed0028ede337f2,ynpggltpgk,Trevor_EX2,1,7,2020-10-23T14:58:12-07:00,8.1503667831421,1,Pure_Unrelated.csv,SF_VersionA.csv,"Sans F A","Sans F A",SCARE,HIDE,BUFFER1,Buffer,4,2,JOL_SF,User,-,"How likely are you to correctly recall the second item in the pair?|Type your response on a scale from 0-100 and then press Enter.",Study/JOL,BUFFER,7255,,,6459,6504,,,,65,1
5f4808a945ed0028ede337f2,ynpggltpgk,Trevor_EX2,1,8,2020-10-23T14:58:19-07:00,6.226410150528,1,Pure_Unrelated.csv,SF_VersionA.csv,"Sans F A","Sans F A",SPACE,JAM,BUFFER1,Buffer,5,3,JOL_SF,User,-,"How likely are you to correctly recall the second item in the pair?|Type your response on a scale from 0-100 and then press Enter.",Study/JOL,BUFFER,5721,,,4073,4168,,,,70,1
5f4808a945ed0028ede337f2,ynpggltpgk,Trevor_EX2,1,9,2020-10-23T14:58:25-07:00,6.4966309070587,1,Pure_Unrelated.csv,SF_VersionA.csv,"Sans F A","Sans F A",TREES,GREEN,BUFFER1,Buffer,1,5,JOL,User,-,"How likely are you to correctly recall the second item in the pair?|Type your response on a scale from 0-100 and then press Enter.",Study/JOL,BUFFER,6003,,,5207,5246,,,,75,1
5f4808a945ed0028ede337f2,ynpggltpgk,Trevor_EX2,1,10,2020-10-23T14:58:32-07:00,7.0461840629578,1,Pure_Unrelated.csv,SF_VersionA.csv,"Sans F A","Sans F A",PEANUT,BUTTER,BUFFER1,Buffer,3,4,JOL_SF,User,-,"How likely are you to correctly recall the second item in the pair?|Type your response on a scale from 0-100 and then press Enter.",Study/JOL,BUFFER,6563,,,2032,5779,,,,90,1
5f4808a945ed0028ede337f2,ynpggltpgk,Trevor_EX2,1,11,2020-10-23T14:58:38-07:00,6.0971200466156,1,Pure_Unrelated.csv,SF_VersionA.csv,"Sans F A","Sans F A",FUTURE,SINCERE,Study1,U,70,40,JOL,User,-,"How likely are you to correctly recall the second item in the pair?|Type your response on a scale from 0-100 and then press Enter.",Study/JOL,"Study Phase",5611,,,4422,4546,,,,25,1
5f4808a945ed0028ede337f2,ynpggltpgk,Trevor_EX2,1,12,2020-10-23T14:58:44-07:00,6.0754108428955,1,Pure_Unrelated.csv,SF_VersionA.csv,"Sans F A","Sans F A",DONKEY,LUSH,Study1,U,84,15,JOL_SF,User,-,"How likely are you to correctly recall the second item in the pair?|Type your response on a scale from 0-100 and then press Enter.",Study/JOL,"Study Phase",5409,,,4534,4577,,,,20,1
5f4808a945ed0028ede337f2,ynpggltpgk,Trevor_EX2,1,13,2020-10-23T14:58:53-07:00,8.6660871505737,1,Pure_Unrelated.csv,SF_VersionA.csv,"Sans F A","Sans F A",MAZE,ELECTION,Study1,U,9,7,JOL_SF,User,-,"How likely are you to correctly recall the second item in the pair?|Type your response on a scale from 0-100 and then press Enter.",Study/JOL,"Study Phase",8166,,,6476,6547,,,,50,1
5f4808a945ed0028ede337f2,ynpggltpgk,Trevor_EX2,1,14,2020-10-23T14:59:03-07:00,9.6781809329987,1,Pure_Unrelated.csv,SF_VersionA.csv,"Sans F A","Sans F A",DIFFICULT,POOR,Study1,U,81,34,JOL,User,-,"How likely are you to correctly recall the second item in the pair?|Type your response on a scale from 0-100 and then press Enter.",Study/JOL,"Study Phase",9068,,,6229,8318,,,,50,1
5f4808a945ed0028ede337f2,ynpggltpgk,Trevor_EX2,1,15,2020-10-23T14:59:12-07:00,8.8324029445648,1,Pure_Unrelated.csv,SF_VersionA.csv,"Sans F A","Sans F A",WARN,SEA,Study1,U,80,10,JOL_SF,User,-,"How likely are you to correctly recall the second item in the pair?|Type your response on a scale from 0-100 and then press Enter.",Study/JOL,"Study Phase",8213,,,3679,6960,,,,95,1
5f4808a945ed0028ede337f2,ynpggltpgk,Trevor_EX2,1,16,2020-10-23T14:59:56-07:00,44.945636034012,1,Pure_Unrelated.csv,SF_VersionA.csv,"Sans F A","Sans F A",GIVE,STEAK,Study1,U,8,11,JOL_SF,User,-,"How likely are you to correctly recall the second item in the pair?|Type your response on a scale from 0-100 and then press Enter.",Study/JOL,"Study Phase",44434,,,42435,43721,,,,55,0.838
5f4808a945ed0028ede337f2,ynpggltpgk,Trevor_EX2,1,17,2020-10-23T15:00:02-07:00,5.1858811378479,1,Pure_Unrelated.csv,SF_VersionA.csv,"Sans F A","Sans F A",MIRROR,CHILDREN,Study1,U,24,39,JOL,User,-,"How likely are you to correctly recall the second item in the pair?|Type your response on a scale from 0-100 and then press Enter.",Study/JOL,"Study Phase",4606,,,3847,3889,,,,15,1
5f4808a945ed0028ede337f2,ynpggltpgk,Trevor_EX2,1,18,2020-10-23T15:00:17-07:00,14.829685926437,1,Pure_Unrelated.csv,SF_VersionA.csv,"Sans F A","Sans F A",BROAD,INFECT,Study1,U,75,24,JOL_SF,User,-,"How likely are you to correctly recall the second item in the pair?|Type your response on a scale from 0-100 and then press Enter.",Study/JOL,"Study Phase",14341,,,9642,13475,,,,65,1
5f4808a945ed0028ede337f2,ynpggltpgk,Trevor_EX2,1,19,2020-10-23T15:00:37-07:00,20.719384908676,1,Pure_Unrelated.csv,SF_VersionA.csv,"Sans F A","Sans F A",ROSE,NEGLECT,Study1,U,82,31,JOL,User,-,"How likely are you to correctly recall the second item in the pair?|Type your response on a scale from 0-100 and then press Enter.",Study/JOL,"Study Phase",20100,,,16789,18901,,,,45,0.831
5f4808a945ed0028ede337f2,ynpggltpgk,Trevor_EX2,1,20,2020-10-23T15:01:04-07:00,26.886391162872,1,Pure_Unrelated.csv,SF_VersionA.csv,"Sans F A","Sans F A",PET,MOON,Study1,U,74,18,JOL_SF,User,-,"How likely are you to correctly recall the second item in the pair?|Type your response on a scale from 0-100 and then press Enter.",Study/JOL,"Study Phase",26294,,,18670,25618,,,,50,0.925
5f4808a945ed0028ede337f2,ynpggltpgk,Trevor_EX2,1,21,2020-10-23T15:01:23-07:00,19.000510931015,1,Pure_Unrelated.csv,SF_VersionA.csv,"Sans F A","Sans F A",JUSTICE,MAROON,Study1,U,6,44,JOL,User,-,"How likely are you to correctly recall the second item in the pair?|Type your response on a scale from 0-100 and then press Enter.",Study/JOL,"Study Phase",18376,,,7312,7365,,,,15,0.588
5f4808a945ed0028ede337f2,ynpggltpgk,Trevor_EX2,1,22,2020-10-23T15:01:49-07:00,25.842136859894,1,Pure_Unrelated.csv,SF_VersionA.csv,"Sans F A","Sans F A",THICK,CONTEST,Study1,U,73,33,JOL,User,-,"How likely are you to correctly recall the second item in the pair?|Type your response on a scale from 0-100 and then press Enter.",Study/JOL,"Study Phase",25225,,,24251,24307,,,,70,0.811
5f4808a945ed0028ede337f2,ynpggltpgk,Trevor_EX2,1,23,2020-10-23T15:01:56-07:00,6.9991881847382,1,Pure_Unrelated.csv,SF_VersionA.csv,"Sans F A","Sans F A",STRESS,YAM,Study1,U,68,36,JOL,User,-,"How likely are you to correctly recall the second item in the pair?|Type your response on a scale from 0-100 and then press Enter.",Study/JOL,"Study Phase",6340,,,5629,5662,,,,30,1
5f4808a945ed0028ede337f2,ynpggltpgk,Trevor_EX2,1,24,2020-10-23T15:02:01-07:00,4.9619598388672,1,Pure_Unrelated.csv,SF_VersionA.csv,"Sans F A","Sans F A",FUZZY,BANG,Study1,U,18,26,JOL_SF,User,-,"How likely are you to correctly recall the second item in the pair?|Type your response on a scale from 0-100 and then press Enter.",Study/JOL,"Study Phase",4454,,,3222,3778,,,,50,1
5f4808a945ed0028ede337f2,ynpggltpgk,Trevor_EX2,1,25,2020-10-23T15:02:17-07:00,16.13973402977,1,Pure_Unrelated.csv,SF_VersionA.csv,"Sans F A","Sans F A",PARCEL,THROAT,Study1,U,67,46,JOL,User,-,"How likely are you to correctly recall the second item in the pair?|Type your response on a scale from 0-100 and then press Enter.",Study/JOL,"Study Phase",15650,,,14617,14688,,,,20,0.957
5f4808a945ed0028ede337f2,ynpggltpgk,Trevor_EX2,1,26,2020-10-23T15:02:23-07:00,6.1650879383087,1,Pure_Unrelated.csv,SF_VersionA.csv,"Sans F A","Sans F A",MEAT,OBTAIN,Study1,U,11,21,JOL_SF,User,-,"How likely are you to correctly recall the second item in the pair?|Type your response on a scale from 0-100 and then press Enter.",Study/JOL,"Study Phase",5513,,,3407,4603,,,,75,1
5f4808a945ed0028ede337f2,ynpggltpgk,Trevor_EX2,1,27,2020-10-23T15:02:28-07:00,4.9012320041656,1,Pure_Unrelated.csv,SF_VersionA.csv,"Sans F A","Sans F A",CAKE,CLOTHES,Study1,U,16,9,JOL_SF,User,-,"How likely are you to correctly recall the second item in the pair?|Type your response on a scale from 0-100 and then press Enter.",Study/JOL,"Study Phase",4409,,,3117,3150,,,,40,1
5f4808a945ed0028ede337f2,ynpggltpgk,Trevor_EX2,1,28,2020-10-23T15:02:37-07:00,9.1497812271118,1,Pure_Unrelated.csv,SF_VersionA.csv,"Sans F A","Sans F A",BAT,SHAKY,Study1,U,66,38,JOL,User,-,"How likely are you to correctly recall the second item in the pair?|Type your response on a scale from 0-100 and then press Enter.",Study/JOL,"Study Phase",8662,,,3892,8118,,,,60,1
5f4808a945ed0028ede337f2,ynpggltpgk,Trevor_EX2,1,29,2020-10-23T15:02:51-07:00,14.100150823593,1,Pure_Unrelated.csv,SF_VersionA.csv,"Sans F A","Sans F A",DIZZY,SWEATER,Study1,U,77,16,JOL_SF,User,-,"How likely are you to correctly recall the second item in the pair?|Type your response on a scale from 0-100 and then press Enter.",Study/JOL,"Study Phase",12621,,,10590,10668,,,,20,1
5f4808a945ed0028ede337f2,ynpggltpgk,Trevor_EX2,1,30,2020-10-23T15:02:57-07:00,6.0195910930634,1,Pure_Unrelated.csv,SF_VersionA.csv,"Sans F A","Sans F A",MAIN,SCAR,Study1,U,25,20,JOL_SF,User,-,"How likely are you to correctly recall the second item in the pair?|Type your response on a scale from 0-100 and then press Enter.",Study/JOL,"Study Phase",5395,,,4487,4563,,,,60,1
5f4808a945ed0028ede337f2,ynpggltpgk,Trevor_EX2,1,31,2020-10-23T15:03:05-07:00,7.5735309123993,1,Pure_Unrelated.csv,SF_VersionA.csv,"Sans F A","Sans F A",DEGREE,CHAIR,Study1,U,71,25,JOL_SF,User,-,"How likely are you to correctly recall the second item in the pair?|Type your response on a scale from 0-100 and then press Enter.",Study/JOL,"Study Phase",7060,,,6225,6275,,,,80,0.931
5f4808a945ed0028ede337f2,ynpggltpgk,Trevor_EX2,1,32,2020-10-23T15:04:41-07:00,96.202141046524,1,Pure_Unrelated.csv,SF_VersionA.csv,"Sans F A","Sans F A",SHELL,SHAKE,Study1,U,13,28,JOL,User,-,"How likely are you to correctly recall the second item in the pair?|Type your response on a scale from 0-100 and then press Enter.",Study/JOL,"Study Phase",95672,,,94541,94638,,,,50,0.308
5f4808a945ed0028ede337f2,ynpggltpgk,Trevor_EX2,1,33,2020-10-23T15:05:01-07:00,19.9501080513,1,Pure_Unrelated.csv,SF_VersionA.csv,"Sans F A","Sans F A",INFLATE,DISGUST,Study1,U,76,30,JOL,User,-,"How likely are you to correctly recall the second item in the pair?|Type your response on a scale from 0-100 and then press Enter.",Study/JOL,"Study Phase",19337,,,16558,16667,,,,40,1
5f4808a945ed0028ede337f2,ynpggltpgk,Trevor_EX2,1,34,2020-10-23T15:05:41-07:00,40.318402051926,1,Pure_Unrelated.csv,SF_VersionA.csv,"Sans F A","Sans F A",VEHICLE,CHARM,Study1,U,10,8,JOL_SF,User,-,"How likely are you to correctly recall the second item in the pair?|Type your response on a scale from 0-100 and then press Enter.",Study/JOL,"Study Phase",39712,,,33897,38412,,,,73,0.462
5f4808a945ed0028ede337f2,ynpggltpgk,Trevor_EX2,1,35,2020-10-23T15:05:46-07:00,4.4768018722534,1,Pure_Unrelated.csv,SF_VersionA.csv,"Sans F A","Sans F A",NUMBER,HARD,Study1,U,78,32,JOL,User,-,"How likely are you to correctly recall the second item in the pair?|Type your response on a scale from 0-100 and then press Enter.",Study/JOL,"Study Phase",3801,,,2886,2949,,,,90,1
5f4808a945ed0028ede337f2,ynpggltpgk,Trevor_EX2,1,36,2020-10-23T15:05:51-07:00,4.6539759635925,1,Pure_Unrelated.csv,SF_VersionA.csv,"Sans F A","Sans F A",MOAT,CLEAR,Study1,U,19,29,JOL,User,-,"How likely are you to correctly recall the second item in the pair?|Type your response on a scale from 0-100 and then press Enter.",Study/JOL,"Study Phase",4169,,,3241,3296,,,,80,1
5f4808a945ed0028ede337f2,ynpggltpgk,Trevor_EX2,1,37,2020-10-23T15:06:41-07:00,50.927329063416,1,Pure_Unrelated.csv,SF_VersionA.csv,"Sans F A","Sans F A",CRAYON,RATE,Study1,U,79,35,JOL,User,-,"How likely are you to correctly recall the second item in the pair?|Type your response on a scale from 0-100 and then press Enter.",Study/JOL,"Study Phase",50433,,,46767,46841,,,,30,0.159
5f4808a945ed0028ede337f2,ynpggltpgk,Trevor_EX2,1,38,2020-10-23T15:06:48-07:00,6.4177289009094,1,Pure_Unrelated.csv,SF_VersionA.csv,"Sans F A","Sans F A",BOTH,OUNCE,Study1,U,22,13,JOL_SF,User,-,"How likely are you to correctly recall the second item in the pair?|Type your response on a scale from 0-100 and then press Enter.",Study/JOL,"Study Phase",5750,,,4200,4276,,,,10,1
5f4808a945ed0028ede337f2,ynpggltpgk,Trevor_EX2,1,39,2020-10-23T15:07:42-07:00,54.187674999237,1,Pure_Unrelated.csv,SF_VersionA.csv,"Sans F A","Sans F A",LISTEN,FICTION,Study1,U,14,19,JOL_SF,User,-,"How likely are you to correctly recall the second item in the pair?|Type your response on a scale from 0-100 and then press Enter.",Study/JOL,"Study Phase",53699,,,3197,3247,,,,40,1
5f4808a945ed0028ede337f2,ynpggltpgk,Trevor_EX2,1,40,2020-10-23T15:07:47-07:00,4.8165981769562,1,Pure_Unrelated.csv,SF_VersionA.csv,"Sans F A","Sans F A",TEMPERATURE,MORNING,Study1,U,23,43,JOL,User,-,"How likely are you to correctly recall the second item in the pair?|Type your response on a scale from 0-100 and then press Enter.",Study/JOL,"Study Phase",4150,,,3065,3182,,,,55,1
5f4808a945ed0028ede337f2,ynpggltpgk,Trevor_EX2,1,41,2020-10-23T15:08:13-07:00,25.68069601059,1,Pure_Unrelated.csv,SF_VersionA.csv,"Sans F A","Sans F A",TAX,OWL,Study1,U,72,17,JOL_SF,User,-,"How likely are you to correctly recall the second item in the pair?|Type your response on a scale from 0-100 and then press Enter.",Study/JOL,"Study Phase",25146,,,24068,24109,,,,10,0.889
5f4808a945ed0028ede337f2,ynpggltpgk,Trevor_EX2,1,42,2020-10-23T15:08:36-07:00,23.378916978836,1,Pure_Unrelated.csv,SF_VersionA.csv,"Sans F A","Sans F A",STRETCH,CLOTH,Study1,U,7,23,JOL_SF,User,-,"How likely are you to correctly recall the second item in the pair?|Type your response on a scale from 0-100 and then press Enter.",Study/JOL,"Study Phase",22756,,,3178,3750,,,,95,1
5f4808a945ed0028ede337f2,ynpggltpgk,Trevor_EX2,1,43,2020-10-23T15:08:48-07:00,12.274436950684,1,Pure_Unrelated.csv,SF_VersionA.csv,"Sans F A","Sans F A",NAME,HATE,Study1,U,17,14,JOL_SF,User,-,"How likely are you to correctly recall the second item in the pair?|Type your response on a scale from 0-100 and then press Enter.",Study/JOL,"Study Phase",11667,,,2790,10980,,,,70,1
5f4808a945ed0028ede337f2,ynpggltpgk,Trevor_EX2,1,44,2020-10-23T15:08:55-07:00,6.6666629314423,1,Pure_Unrelated.csv,SF_VersionA.csv,"Sans F A","Sans F A",CRACKLE,ABLE,Study1,U,12,37,JOL,User,-,"How likely are you to correctly recall the second item in the pair?|Type your response on a scale from 0-100 and then press Enter.",Study/JOL,"Study Phase",6002,,,5170,5223,,,,60,1
5f4808a945ed0028ede337f2,ynpggltpgk,Trevor_EX2,1,45,2020-10-23T15:09:52-07:00,57.453043937683,1,Pure_Unrelated.csv,SF_VersionA.csv,"Sans F A","Sans F A",GRIND,STAND,Study1,U,85,27,JOL,User,-,"How likely are you to correctly recall the second item in the pair?|Type your response on a scale from 0-100 and then press Enter.",Study/JOL,"Study Phase",56971,,,47411,47452,,,,30,1
5f4808a945ed0028ede337f2,ynpggltpgk,Trevor_EX2,1,46,2020-10-23T15:09:57-07:00,4.3415122032166,1,Pure_Unrelated.csv,SF_VersionA.csv,"Sans F A","Sans F A",LEASE,TOIL,Study1,U,20,41,JOL,User,-,"How likely are you to correctly recall the second item in the pair?|Type your response on a scale from 0-100 and then press Enter.",Study/JOL,"Study Phase",3683,,,2319,2319,,,,5,1
5f4808a945ed0028ede337f2,ynpggltpgk,Trevor_EX2,1,47,2020-10-23T15:10:01-07:00,4.122279882431,1,Pure_Unrelated.csv,SF_VersionA.csv,"Sans F A","Sans F A",KEYS,JOKE,Study1,U,15,12,JOL_SF,User,-,"How likely are you to correctly recall the second item in the pair?|Type your response on a scale from 0-100 and then press Enter.",Study/JOL,"Study Phase",3634,,,2919,2965,,,,70,1
5f4808a945ed0028ede337f2,ynpggltpgk,Trevor_EX2,1,48,2020-10-23T15:10:15-07:00,14.62109708786,1,Pure_Unrelated.csv,SF_VersionA.csv,"Sans F A","Sans F A",LOAN,SIGN,Study1,U,21,45,JOL,User,-,"How likely are you to correctly recall the second item in the pair?|Type your response on a scale from 0-100 and then press Enter.",Study/JOL,"Study Phase",14145,,,12898,12941,,,,70,0.844
5f4808a945ed0028ede337f2,ynpggltpgk,Trevor_EX2,1,49,2020-10-23T15:10:27-07:00,11.356276988983,1,Pure_Unrelated.csv,SF_VersionA.csv,"Sans F A","Sans F A",RIPE,VERIFY,Study1,U,83,42,JOL,User,-,"How likely are you to correctly recall the second item in the pair?|Type your response on a scale from 0-100 and then press Enter.",Study/JOL,"Study Phase",10755,,,9776,9826,,,,30,0.667
5f4808a945ed0028ede337f2,ynpggltpgk,Trevor_EX2,1,50,2020-10-23T15:10:33-07:00,6.3450300693512,1,Pure_Unrelated.csv,SF_VersionA.csv,"Sans F A","Sans F A",RESIST,GLUE,Study1,U,69,22,JOL_SF,User,-,"How likely are you to correctly recall the second item in the pair?|Type your response on a scale from 0-100 and then press Enter.",Study/JOL,"Study Phase",5724,,,4357,4396,,,,80,1
5f4808a945ed0028ede337f2,ynpggltpgk,Trevor_EX2,1,51,2020-10-23T15:11:48-07:00,75.094965934753,1,Pure_Unrelated.csv,SF_VersionA.csv,"Sans F A","Sans F A",MALT,CHOCOLATE,BUFFER2,Buffer,88,48,JOL_SF,User,-,"How likely are you to correctly recall the second item in the pair?|Type your response on a scale from 0-100 and then press Enter.",Study/JOL,BUFFER2,74597,,,73743,73807,,,,65,0.971
5f4808a945ed0028ede337f2,ynpggltpgk,Trevor_EX2,1,52,2020-10-23T15:11:59-07:00,10.703668832779,1,Pure_Unrelated.csv,SF_VersionA.csv,"Sans F A","Sans F A",GEESE,GOOSE,BUFFER2,Buffer,86,47,JOL_SF,User,-,"How likely are you to correctly recall the second item in the pair?|Type your response on a scale from 0-100 and then press Enter.",Study/JOL,BUFFER2,10005,,,8531,8753,,,,100,0.76
5f4808a945ed0028ede337f2,ynpggltpgk,Trevor_EX2,1,53,2020-10-23T15:12:02-07:00,2.9661870002747,1,Pure_Unrelated.csv,SF_VersionA.csv,"Sans F A","Sans F A",SHERRIF,POLICE,BUFFER2,Buffer,87,50,JOL,User,-,"How likely are you to correctly recall the second item in the pair?|Type your response on a scale from 0-100 and then press Enter.",Study/JOL,BUFFER2,2340,,,1494,1681,,,,100,1
5f4808a945ed0028ede337f2,ynpggltpgk,Trevor_EX2,1,54,2020-10-23T15:12:05-07:00,2.640575170517,1,Pure_Unrelated.csv,SF_VersionA.csv,"Sans F A","Sans F A",MOON,SPACE,BUFFER2,Buffer,89,49,JOL,User,-,"How likely are you to correctly recall the second item in the pair?|Type your response on a scale from 0-100 and then press Enter.",Study/JOL,BUFFER2,2154,,,1171,1371,,,,100,1
5f4808a945ed0028ede337f2,ynpggltpgk,Trevor_EX2,1,55,2020-10-23T15:12:11-07:00,6.1272058486938,1,Pure_Unrelated.csv,SF_VersionA.csv,"Sans F A","Sans F A",THING,STUFF,BUFFER2,Buffer,90,51,JOL,User,-,"How likely are you to correctly recall the second item in the pair?|Type your response on a scale from 0-100 and then press Enter.",Study/JOL,BUFFER2,5632,,,1653,4640,,,,95,1
5f4808a945ed0028ede337f2,ynpggltpgk,Trevor_EX2,1,56,2020-10-23T15:12:12-07:00,1.4021780490875,1,Pure_Unrelated.csv,SF_VersionA.csv,"Sans F A","Sans F A",,,,,,0,Instruct,User,-,"You have completed this section. Please press Enter.",Filler_Instruction,Instruct2,1017,,,-1,-1,,,,,1
5f4808a945ed0028ede337f2,ynpggltpgk,Trevor_EX2,1,57,2020-10-23T15:14:13-07:00,120.53134608269,1,Pure_Unrelated.csv,SF_VersionA.csv,"Sans F A","Sans F A",,,,,,0,FreeRecall,120,120,"Please list the 50 US states in alphabetical order. The task will automatically advance to the next screen after two minutes.",,Filler1,120003,"Alabama, Alaska, Arizona, California, Arkansas, Colorado, Washington, Iowa, Ohio, Texas, Florida, New York, Montana, Hawaii, Massachusetts, ",0,15192,119235,0,0,,,0.848
5f4808a945ed0028ede337f2,ynpggltpgk,Trevor_EX2,1,58,2020-10-23T15:14:35-07:00,22.257513999939,1,Pure_Unrelated.csv,SF_VersionA.csv,"Sans F A","Sans F A",,,,,,0,Instruct,-,10,"You will now be presented with the first word from each of the previously studied item pairs. Please type the missing word. If you do not know the word, you may guess or press Enter to skip forward to the next pair.",,Instruct3,21619,,,-1,-1,,,,,0.769
5f4808a945ed0028ede337f2,ynpggltpgk,Trevor_EX2,1,59,2020-10-23T15:14:40-07:00,5.5361549854279,1,Pure_Unrelated.csv,SF_VersionA.csv,"Sans F A","Sans F A",RESIST,GLUE,Study1,U,69,22,Test,User,-,,Recall,Recall1,4878,Glue,100,3072,3368,1,1,,,1
5f4808a945ed0028ede337f2,ynpggltpgk,Trevor_EX2,1,60,2020-10-23T15:14:47-07:00,6.5009589195251,1,Pure_Unrelated.csv,SF_VersionA.csv,"Sans F A","Sans F A",JUSTICE,MAROON,Study1,U,6,44,Test,User,-,,Recall,Recall1,6018,"Sherriff ",14.285714285714,1812,3871,0,0,,,1
5f4808a945ed0028ede337f2,ynpggltpgk,Trevor_EX2,1,61,2020-10-23T15:14:51-07:00,3.9060940742493,1,Pure_Unrelated.csv,SF_VersionA.csv,"Sans F A","Sans F A",MOAT,CLEAR,Study1,U,19,29,Test,User,-,,Recall,Recall1,3422,Clear,100,2151,2776,1,1,,,1
5f4808a945ed0028ede337f2,ynpggltpgk,Trevor_EX2,1,62,2020-10-23T15:14:57-07:00,5.8762619495392,1,Pure_Unrelated.csv,SF_VersionA.csv,"Sans F A","Sans F A",TEMPERATURE,MORNING,Study1,U,23,43,Test,User,-,,Recall,Recall1,5394,Cold,18.181818181818,3886,4383,0,0,,,1
5f4808a945ed0028ede337f2,ynpggltpgk,Trevor_EX2,1,63,2020-10-23T15:15:38-07:00,41.612411022186,1,Pure_Unrelated.csv,SF_VersionA.csv,"Sans F A","Sans F A",DIZZY,SWEATER,Study1,U,77,16,Test,User,-,,Recall,Recall1,41126,Stable,46.153846153846,36957,40087,0,0,,,1
5f4808a945ed0028ede337f2,ynpggltpgk,Trevor_EX2,1,64,2020-10-23T15:15:49-07:00,10.617209911346,1,Pure_Unrelated.csv,SF_VersionA.csv,"Sans F A","Sans F A",PARCEL,THROAT,Study1,U,67,46,Test,User,-,,Recall,Recall1,9961,Delivery,14.285714285714,7900,8625,0,0,,,1
5f4808a945ed0028ede337f2,ynpggltpgk,Trevor_EX2,1,65,2020-10-23T15:16:30-07:00,40.716518163681,1,Pure_Unrelated.csv,SF_VersionA.csv,"Sans F A","Sans F A",LOAN,SIGN,Study1,U,21,45,Test,User,-,,Recall,Recall1,40096,Sign,100,38782,39060,1,1,,,0.863
5f4808a945ed0028ede337f2,ynpggltpgk,Trevor_EX2,1,66,2020-10-23T15:16:38-07:00,8.0744578838348,1,Pure_Unrelated.csv,SF_VersionA.csv,"Sans F A","Sans F A",CRAYON,RATE,Study1,U,79,35,Test,User,-,,Recall,Recall1,7472,Fun,0,5417,5658,0,0,,,1
5f4808a945ed0028ede337f2,ynpggltpgk,Trevor_EX2,1,67,2020-10-23T15:16:46-07:00,8.0484430789948,1,Pure_Unrelated.csv,SF_VersionA.csv,"Sans F A","Sans F A",BOTH,OUNCE,Study1,U,22,13,Test,User,-,,Recall,Recall1,7546,None,44.444444444444,6439,6615,0,0,,,1
5f4808a945ed0028ede337f2,ynpggltpgk,Trevor_EX2,1,68,2020-10-23T15:16:57-07:00,10.9614610672,1,Pure_Unrelated.csv,SF_VersionA.csv,"Sans F A","Sans F A",VEHICLE,CHARM,Study1,U,10,8,Test,User,-,,Recall,Recall1,10301,Wheel,20,9701,10124,0,0,,,1
5f4808a945ed0028ede337f2,ynpggltpgk,Trevor_EX2,1,69,2020-10-23T15:17:01-07:00,4.4752299785614,1,Pure_Unrelated.csv,SF_VersionA.csv,"Sans F A","Sans F A",NUMBER,HARD,Study1,U,78,32,Test,User,-,,Recall,Recall1,3871,HARD,100,2888,3242,1,1,,,1
5f4808a945ed0028ede337f2,ynpggltpgk,Trevor_EX2,1,70,2020-10-23T15:17:38-07:00,36.700078010559,1,Pure_Unrelated.csv,SF_VersionA.csv,"Sans F A","Sans F A",CRACKLE,ABLE,Study1,U,12,37,Test,User,-,,Recall,Recall1,36192,Cold,25,33507,35170,0,0,,,0.602
5f4808a945ed0028ede337f2,ynpggltpgk,Trevor_EX2,1,71,2020-10-23T15:17:44-07:00,5.7781729698181,1,Pure_Unrelated.csv,SF_VersionA.csv,"Sans F A","Sans F A",SHELL,SHAKE,Study1,U,13,28,Test,User,-,,Recall,Recall1,5159,Sea,50,3880,4191,0,0,,,1
5f4808a945ed0028ede337f2,ynpggltpgk,Trevor_EX2,1,72,2020-10-23T15:18:02-07:00,18.452518939972,1,Pure_Unrelated.csv,SF_VersionA.csv,"Sans F A","Sans F A",DEGREE,CHAIR,Study1,U,71,25,Test,User,-,,Recall,Recall1,17948,Chair,100,16583,16999,1,1,,,0.544
5f4808a945ed0028ede337f2,ynpggltpgk,Trevor_EX2,1,73,2020-10-23T15:18:09-07:00,7.0117061138153,1,Pure_Unrelated.csv,SF_VersionA.csv,"Sans F A","Sans F A",WARN,SEA,Study1,U,80,10,Test,User,-,,Recall,Recall1,6347,Aware,25,5251,5890,0,0,,,1
5f4808a945ed0028ede337f2,ynpggltpgk,Trevor_EX2,1,74,2020-10-23T15:18:31-07:00,21.849216938019,1,Pure_Unrelated.csv,SF_VersionA.csv,"Sans F A","Sans F A",MAZE,ELECTION,Study1,U,9,7,Test,User,-,,Recall,Recall1,21341,Election,100,11124,20827,1,1,,,1
5f4808a945ed0028ede337f2,ynpggltpgk,Trevor_EX2,1,75,2020-10-23T15:18:47-07:00,16.462557077408,1,Pure_Unrelated.csv,SF_VersionA.csv,"Sans F A","Sans F A",MAIN,SCAR,Study1,U,25,20,Test,User,-,,Recall,Recall1,15855,Easy,25,14149,15087,0,0,,,1
5f4808a945ed0028ede337f2,ynpggltpgk,Trevor_EX2,1,76,2020-10-23T15:19:39-07:00,51.452971935272,1,Pure_Unrelated.csv,SF_VersionA.csv,"Sans F A","Sans F A",GRIND,STAND,Study1,U,85,27,Test,User,-,,Recall,Recall1,50826,Rock,0,50411,50667,0,0,,,0.374
5f4808a945ed0028ede337f2,ynpggltpgk,Trevor_EX2,1,77,2020-10-23T15:19:50-07:00,11.274034023285,1,Pure_Unrelated.csv,SF_VersionA.csv,"Sans F A","Sans F A",CAKE,CLOTHES,Study1,U,16,9,Test,User,-,,Recall,Recall1,10617,Play,18.181818181818,5886,10443,0,0,,,1
5f4808a945ed0028ede337f2,ynpggltpgk,Trevor_EX2,1,78,2020-10-23T15:19:58-07:00,8.2235839366913,1,Pure_Unrelated.csv,SF_VersionA.csv,"Sans F A","Sans F A",INFLATE,DISGUST,Study1,U,76,30,Test,User,-,,Recall,Recall1,7592,Toy,20,6969,7179,0,0,,,1
5f4808a945ed0028ede337f2,ynpggltpgk,Trevor_EX2,1,79,2020-10-23T15:20:35-07:00,36.365124940872,1,Pure_Unrelated.csv,SF_VersionA.csv,"Sans F A","Sans F A",LISTEN,FICTION,Study1,U,14,19,Test,User,-,,Recall,Recall1,35868,Liar,18.181818181818,3155,35003,0,0,,,0.606
5f4808a945ed0028ede337f2,ynpggltpgk,Trevor_EX2,1,80,2020-10-23T15:20:43-07:00,7.7608389854431,1,Pure_Unrelated.csv,SF_VersionA.csv,"Sans F A","Sans F A",TAX,OWL,Study1,U,72,17,Test,User,-,,Recall,Recall1,7143,Effect,0,5398,6944,0,0,,,1
5f4808a945ed0028ede337f2,ynpggltpgk,Trevor_EX2,1,81,2020-10-23T15:20:46-07:00,3.5688471794128,1,Pure_Unrelated.csv,SF_VersionA.csv,"Sans F A","Sans F A",MIRROR,CHILDREN,Study1,U,24,39,Test,User,-,,Recall,Recall1,3027,Child,76.923076923077,2372,2624,0,1,,,1
5f4808a945ed0028ede337f2,ynpggltpgk,Trevor_EX2,1,82,2020-10-23T15:20:53-07:00,6.4271137714386,1,Pure_Unrelated.csv,SF_VersionA.csv,"Sans F A","Sans F A",LEASE,TOIL,Study1,U,20,41,Test,User,-,,Recall,Recall1,5817,Lease,22.222222222222,3224,5430,0,0,,,1
5f4808a945ed0028ede337f2,ynpggltpgk,Trevor_EX2,1,83,2020-10-23T15:21:20-07:00,27.921429157257,1,Pure_Unrelated.csv,SF_VersionA.csv,"Sans F A","Sans F A",GIVE,STEAK,Study1,U,8,11,Test,User,-,,Recall,Recall1,27424,Money,20,8123,26994,0,0,,,1
5f4808a945ed0028ede337f2,ynpggltpgk,Trevor_EX2,1,84,2020-10-23T15:21:25-07:00,4.8373889923096,1,Pure_Unrelated.csv,SF_VersionA.csv,"Sans F A","Sans F A",RIPE,VERIFY,Study1,U,83,42,Test,User,-,,Recall,Recall1,4208,Skin,20,3699,3988,0,0,,,1
5f4808a945ed0028ede337f2,ynpggltpgk,Trevor_EX2,1,85,2020-10-23T15:21:34-07:00,8.5870389938354,1,Pure_Unrelated.csv,SF_VersionA.csv,"Sans F A","Sans F A",BAT,SHAKY,Study1,U,66,38,Test,User,-,,Recall,Recall1,8089,Catcher,16.666666666667,7246,7914,0,0,,,1
5f4808a945ed0028ede337f2,ynpggltpgk,Trevor_EX2,1,86,2020-10-23T15:21:37-07:00,3.5856790542603,1,Pure_Unrelated.csv,SF_VersionA.csv,"Sans F A","Sans F A",MEAT,OBTAIN,Study1,U,11,21,Test,User,-,,Recall,Recall1,2972,Bone,40,2552,2812,0,0,,,1
5f4808a945ed0028ede337f2,ynpggltpgk,Trevor_EX2,1,87,2020-10-23T15:21:42-07:00,4.8799948692322,1,Pure_Unrelated.csv,SF_VersionA.csv,"Sans F A","Sans F A",STRETCH,CLOTH,Study1,U,7,23,Test,User,-,,Recall,Recall1,4396,Clothes,83.333333333333,3397,4012,0,1,,,1
5f4808a945ed0028ede337f2,ynpggltpgk,Trevor_EX2,1,88,2020-10-23T15:21:50-07:00,7.4807081222534,1,Pure_Unrelated.csv,SF_VersionA.csv,"Sans F A","Sans F A",STRESS,YAM,Study1,U,68,36,Test,User,-,,Recall,Recall1,6991,Steel,0,5958,6611,0,0,,,1
5f4808a945ed0028ede337f2,ynpggltpgk,Trevor_EX2,1,89,2020-10-23T15:21:53-07:00,3.3384358882904,1,Pure_Unrelated.csv,SF_VersionA.csv,"Sans F A","Sans F A",PET,MOON,Study1,U,74,18,Test,User,-,,Recall,Recall1,2799,Food,50,2182,2493,0,0,,,1
5f4808a945ed0028ede337f2,ynpggltpgk,Trevor_EX2,1,90,2020-10-23T15:21:58-07:00,4.4517359733582,1,Pure_Unrelated.csv,SF_VersionA.csv,"Sans F A","Sans F A",KEYS,JOKE,Study1,U,15,12,Test,User,-,,Recall,Recall1,3947,Cut,0,2376,3668,0,0,,,1
5f4808a945ed0028ede337f2,ynpggltpgk,Trevor_EX2,1,91,2020-10-23T15:22:04-07:00,6.3362369537354,1,Pure_Unrelated.csv,SF_VersionA.csv,"Sans F A","Sans F A",BROAD,INFECT,Study1,U,75,24,Test,User,-,,Recall,Recall1,5855,Infection,80,4121,5538,0,1,,,1
5f4808a945ed0028ede337f2,ynpggltpgk,Trevor_EX2,1,92,2020-10-23T15:22:08-07:00,4.5342710018158,1,Pure_Unrelated.csv,SF_VersionA.csv,"Sans F A","Sans F A",DIFFICULT,POOR,Study1,U,81,34,Test,User,-,,Recall,Recall1,4051,Math,0,1611,1895,0,0,,,1
5f4808a945ed0028ede337f2,ynpggltpgk,Trevor_EX2,1,93,2020-10-23T15:23:30-07:00,81.507996082306,1,Pure_Unrelated.csv,SF_VersionA.csv,"Sans F A","Sans F A",THICK,CONTEST,Study1,U,73,33,Test,User,-,,Recall,Recall1,81016,Buffoon,28.571428571429,75167,79665,0,0,,,0.188
5f4808a945ed0028ede337f2,ynpggltpgk,Trevor_EX2,1,94,2020-10-23T15:23:33-07:00,3.2965080738068,1,Pure_Unrelated.csv,SF_VersionA.csv,"Sans F A","Sans F A",FUZZY,BANG,Study1,U,18,26,Test,User,-,,Recall,Recall1,2635,Glove,22.222222222222,2120,2531,0,0,,,1
5f4808a945ed0028ede337f2,ynpggltpgk,Trevor_EX2,1,95,2020-10-23T15:24:36-07:00,62.951611042023,1,Pure_Unrelated.csv,SF_VersionA.csv,"Sans F A","Sans F A",DONKEY,LUSH,Study1,U,84,15,Test,User,-,,Recall,Recall1,62458,Hat,28.571428571429,62177,62373,0,0,,,0.805
5f4808a945ed0028ede337f2,ynpggltpgk,Trevor_EX2,1,96,2020-10-23T15:24:39-07:00,2.9868679046631,1,Pure_Unrelated.csv,SF_VersionA.csv,"Sans F A","Sans F A",ROSE,NEGLECT,Study1,U,82,31,Test,User,-,,Recall,Recall1,2321,Thorn,16.666666666667,1712,2123,0,0,,,1
5f4808a945ed0028ede337f2,ynpggltpgk,Trevor_EX2,1,97,2020-10-23T15:24:46-07:00,6.6221370697021,1,Pure_Unrelated.csv,SF_VersionA.csv,"Sans F A","Sans F A",NAME,HATE,Study1,U,17,14,Test,User,-,,Recall,Recall1,6108,Plate,66.666666666667,3863,6028,0,0,,,1
5f4808a945ed0028ede337f2,ynpggltpgk,Trevor_EX2,1,98,2020-10-23T15:24:48-07:00,2.390350818634,1,Pure_Unrelated.csv,SF_VersionA.csv,"Sans F A","Sans F A",FUTURE,SINCERE,Study1,U,70,40,Test,User,-,,Recall,Recall1,1911,Past,18.181818181818,1558,1840,0,0,,,1
5f4808a945ed0028ede337f2,ynpggltpgk,Trevor_EX2,1,99,2020-10-23T15:25:00-07:00,11.307801008224,1,Pure_Unrelated.csv,SF_VersionA.csv,"Sans F A","Sans F A",,,,,,0,Instruct,-,10,"You will now be presented with a new set of word pairs. Please study each pair. Remember that your memory will be tested! When finished, press Enter to move to the next pair.",Initial_Instruct,Instruct4,10780,,,-1,-1,,,,,0.794
5f4808a945ed0028ede337f2,ynpggltpgk,Trevor_EX2,1,100,2020-10-23T15:25:14-07:00,14.260837078094,1,Pure_Unrelated.csv,SF_VersionA.csv,"Sans F A","Sans F A",,,,,,0,Instruct,,10,"You will again be asked to rate your ability to remember these items using a 0 to 100 scale. Remember to use the full range of the scale!",,Instruct10,13600,,,-1,-1,,,,,1
5f4808a945ed0028ede337f2,ynpggltpgk,Trevor_EX2,1,101,2020-10-23T15:25:15-07:00,1.2565689086914,1,Pure_Unrelated.csv,SF_VersionA.csv,"Sans F A","Sans F A",,,,,,0,Instruct,User,-,"Press Enter when you are readty to begin",,Instruct11,734,,,-1,-1,,,,,1
5f4808a945ed0028ede337f2,ynpggltpgk,Trevor_EX2,1,102,2020-10-23T15:25:21-07:00,6.3431401252747,1,Pure_Unrelated.csv,SF_VersionA.csv,"Sans F A","Sans F A",SHRIMP,FISH,BUFFER3,Buffer,93,55,JOL,User,-,"How likely are you to correctly recall the second item in the pair?|Type your response on a scale from 0-100 and then press Enter.",Study/JOL,BUFFER3,5840,,,4084,4233,,,,85,1
5f4808a945ed0028ede337f2,ynpggltpgk,Trevor_EX2,1,103,2020-10-23T15:25:38-07:00,16.281464099884,1,Pure_Unrelated.csv,SF_VersionA.csv,"Sans F A","Sans F A",CARROT,POTATO,BUFFER3,Buffer,91,52,JOL_SF,User,-,"How likely are you to correctly recall the second item in the pair?|Type your response on a scale from 0-100 and then press Enter.",Study/JOL,BUFFER3,15787,,,15003,15063,,,,75,0.228
5f4808a945ed0028ede337f2,ynpggltpgk,Trevor_EX2,1,104,2020-10-23T15:25:41-07:00,3.6984088420868,1,Pure_Unrelated.csv,SF_VersionA.csv,"Sans F A","Sans F A",CAMP,ADVENTURE,BUFFER3,Buffer,95,53,JOL_SF,User,-,"How likely are you to correctly recall the second item in the pair?|Type your response on a scale from 0-100 and then press Enter.",Study/JOL,BUFFER3,3035,,,2124,2191,,,,75,1
5f4808a945ed0028ede337f2,ynpggltpgk,Trevor_EX2,1,105,2020-10-23T15:25:49-07:00,7.2617001533508,1,Pure_Unrelated.csv,SF_VersionA.csv,"Sans F A","Sans F A",ICE,FROZEN,BUFFER3,Buffer,94,54,JOL,User,-,"How likely are you to correctly recall the second item in the pair?|Type your response on a scale from 0-100 and then press Enter.",Study/JOL,BUFFER3,6773,,,5627,5835,,,,100,0.235
5f4808a945ed0028ede337f2,ynpggltpgk,Trevor_EX2,1,106,2020-10-23T15:25:58-07:00,8.8634209632874,1,Pure_Unrelated.csv,SF_VersionA.csv,"Sans F A","Sans F A",NOODLE,STRING,BUFFER3,Buffer,92,56,JOL_SF,User,-,"How likely are you to correctly recall the second item in the pair?|Type your response on a scale from 0-100 and then press Enter.",Study/JOL,BUFFER3,8377,,,5675,7576,,,,50,0.5
5f4808a945ed0028ede337f2,ynpggltpgk,Trevor_EX2,1,107,2020-10-23T15:26:03-07:00,5.866977930069,1,Pure_Unrelated.csv,SF_VersionA.csv,"Sans F A","Sans F A",TUCK,ALLOW,Study2,U,108,77,JOL,User,-,"How likely are you to correctly recall the second item in the pair?|Type your response on a scale from 0-100 and then press Enter.",Study/JOL,"Study Phase2",5333,,,4566,4608,,,,30,0.296
5f4808a945ed0028ede337f2,ynpggltpgk,Trevor_EX2,1,108,2020-10-23T15:26:11-07:00,7.7331900596619,1,Pure_Unrelated.csv,SF_VersionA.csv,"Sans F A","Sans F A",SLIM,KNOW,Study2,U,164,64,JOL_SF,User,-,"How likely are you to correctly recall the second item in the pair?|Type your response on a scale from 0-100 and then press Enter.",Study/JOL,"Study Phase2",7247,,,6063,6063,,,,5,0.324
5f4808a945ed0028ede337f2,ynpggltpgk,Trevor_EX2,1,109,2020-10-23T15:26:19-07:00,7.9042990207672,1,Pure_Unrelated.csv,SF_VersionA.csv,"Sans F A","Sans F A",ACCIDENT,STRONG,Study2,U,110,75,JOL_SF,User,-,"How likely are you to correctly recall the second item in the pair?|Type your response on a scale from 0-100 and then press Enter.",Study/JOL,"Study Phase2",7404,,,6406,6488,,,,65,0.514
5f4808a945ed0028ede337f2,ynpggltpgk,Trevor_EX2,1,110,2020-10-23T15:26:26-07:00,7.4482660293579,1,Pure_Unrelated.csv,SF_VersionA.csv,"Sans F A","Sans F A",LION,ART,Study2,U,109,69,JOL_SF,User,-,"How likely are you to correctly recall the second item in the pair?|Type your response on a scale from 0-100 and then press Enter.",Study/JOL,"Study Phase2",6969,,,5405,5486,,,,40,0.286
5f4808a945ed0028ede337f2,ynpggltpgk,Trevor_EX2,1,111,2020-10-23T15:26:41-07:00,14.631588935852,1,Pure_Unrelated.csv,SF_VersionA.csv,"Sans F A","Sans F A",PUFF,NUMBER,Study2,U,171,68,JOL_SF,User,-,"How likely are you to correctly recall the second item in the pair?|Type your response on a scale from 0-100 and then press Enter.",Study/JOL,"Study Phase2",14116,,,13230,13288,,,,35,0.423
5f4808a945ed0028ede337f2,ynpggltpgk,Trevor_EX2,1,112,2020-10-23T15:27:37-07:00,55.863947868347,1,Pure_Unrelated.csv,SF_VersionA.csv,"Sans F A","Sans F A",RIDDLE,SUGAR,Study2,U,111,59,JOL_SF,User,-,"How likely are you to correctly recall the second item in the pair?|Type your response on a scale from 0-100 and then press Enter.",Study/JOL,"Study Phase2",55182,,,54184,54238,,,,20,0.076
5f4808a945ed0028ede337f2,ynpggltpgk,Trevor_EX2,1,113,2020-10-23T15:27:48-07:00,11.10386300087,1,Pure_Unrelated.csv,SF_VersionA.csv,"Sans F A","Sans F A",SIGHT,DEBATE,Study2,U,103,62,JOL_SF,User,-,"How likely are you to correctly recall the second item in the pair?|Type your response on a scale from 0-100 and then press Enter.",Study/JOL,"Study Phase2",9215,,,2829,2872,,,,10,0.617
5f4808a945ed0028ede337f2,ynpggltpgk,Trevor_EX2,1,114,2020-10-23T15:27:54-07:00,5.9021689891815,1,Pure_Unrelated.csv,SF_VersionA.csv,"Sans F A","Sans F A",BRONZE,ARTERY,Study2,U,104,86,JOL,User,-,"How likely are you to correctly recall the second item in the pair?|Type your response on a scale from 0-100 and then press Enter.",Study/JOL,"Study Phase2",5248,,,3426,4081,,,,50,1
5f4808a945ed0028ede337f2,ynpggltpgk,Trevor_EX2,1,115,2020-10-23T15:28:03-07:00,9.3935811519623,1,Pure_Unrelated.csv,SF_VersionA.csv,"Sans F A","Sans F A",WOULD,CASH,Study2,U,113,65,JOL_SF,User,-,"How likely are you to correctly recall the second item in the pair?|Type your response on a scale from 0-100 and then press Enter.",Study/JOL,"Study Phase2",8915,,,8030,8072,,,,65,0.244
5f4808a945ed0028ede337f2,ynpggltpgk,Trevor_EX2,1,116,2020-10-23T15:28:10-07:00,6.5633218288422,1,Pure_Unrelated.csv,SF_VersionA.csv,"Sans F A","Sans F A",SACKING,DIETARY,Study2,U,97,92,JOL,User,-,"How likely are you to correctly recall the second item in the pair?|Type your response on a scale from 0-100 and then press Enter.",Study/JOL,"Study Phase2",6078,,,5196,5244,,,,20,0.484
5f4808a945ed0028ede337f2,ynpggltpgk,Trevor_EX2,1,117,2020-10-23T15:28:22-07:00,11.864294052124,1,Pure_Unrelated.csv,SF_VersionA.csv,"Sans F A","Sans F A",ZOO,THUMB,Study2,U,168,61,JOL_SF,User,-,"How likely are you to correctly recall the second item in the pair?|Type your response on a scale from 0-100 and then press Enter.",Study/JOL,"Study Phase2",11351,,,10324,10382,,,,70,0.421
5f4808a945ed0028ede337f2,ynpggltpgk,Trevor_EX2,1,118,2020-10-23T15:28:31-07:00,8.7346830368042,1,Pure_Unrelated.csv,SF_VersionA.csv,"Sans F A","Sans F A",PUT,ROLL,Study2,U,163,57,JOL_SF,User,-,"How likely are you to correctly recall the second item in the pair?|Type your response on a scale from 0-100 and then press Enter.",Study/JOL,"Study Phase2",8107,,,7732,7784,,,,80,0.61
5f4808a945ed0028ede337f2,ynpggltpgk,Trevor_EX2,1,119,2020-10-23T15:28:43-07:00,11.983017921448,1,Pure_Unrelated.csv,SF_VersionA.csv,"Sans F A","Sans F A",DETECT,FREE,Study2,U,162,73,JOL_SF,User,-,"How likely are you to correctly recall the second item in the pair?|Type your response on a scale from 0-100 and then press Enter.",Study/JOL,"Study Phase2",11466,,,9639,9780,,,,55,0.586
5f4808a945ed0028ede337f2,ynpggltpgk,Trevor_EX2,1,120,2020-10-23T15:29:18-07:00,35.946274995804,1,Pure_Unrelated.csv,SF_VersionA.csv,"Sans F A","Sans F A",LAKE,OPINION,Study2,U,160,72,JOL_SF,User,-,"How likely are you to correctly recall the second item in the pair?|Type your response on a scale from 0-100 and then press Enter.",Study/JOL,"Study Phase2",34228,,,33598,33666,,,,30,0.401
5f4808a945ed0028ede337f2,ynpggltpgk,Trevor_EX2,1,121,2020-10-23T15:29:26-07:00,7.2952191829681,1,Pure_Unrelated.csv,SF_VersionA.csv,"Sans F A","Sans F A",CAR,HAPPY,Study2,U,107,90,JOL,User,-,"How likely are you to correctly recall the second item in the pair?|Type your response on a scale from 0-100 and then press Enter.",Study/JOL,"Study Phase2",6673,,,2598,4905,,,,66,0.824
5f4808a945ed0028ede337f2,ynpggltpgk,Trevor_EX2,1,122,2020-10-23T15:29:33-07:00,7.5362520217896,1,Pure_Unrelated.csv,SF_VersionA.csv,"Sans F A","Sans F A",WOMAN,LIFT,Study2,U,99,83,JOL,User,-,"How likely are you to correctly recall the second item in the pair?|Type your response on a scale from 0-100 and then press Enter.",Study/JOL,"Study Phase2",7026,,,6256,6317,,,,75,0.528
5f4808a945ed0028ede337f2,ynpggltpgk,Trevor_EX2,1,123,2020-10-23T15:29:41-07:00,8.0702159404755,1,Pure_Unrelated.csv,SF_VersionA.csv,"Sans F A","Sans F A",ADD,VALLEY,Study2,U,112,63,JOL_SF,User,-,"How likely are you to correctly recall the second item in the pair?|Type your response on a scale from 0-100 and then press Enter.",Study/JOL,"Study Phase2",7566,,,5862,5862,,,,5,0.553
5f4808a945ed0028ede337f2,ynpggltpgk,Trevor_EX2,1,124,2020-10-23T15:29:50-07:00,8.7631049156189,1,Pure_Unrelated.csv,SF_VersionA.csv,"Sans F A","Sans F A",POSITION,MACHINE,Study2,U,106,84,JOL,User,-,"How likely are you to correctly recall the second item in the pair?|Type your response on a scale from 0-100 and then press Enter.",Study/JOL,"Study Phase2",8134,,,4679,7311,,,,90,0.561
5f4808a945ed0028ede337f2,ynpggltpgk,Trevor_EX2,1,125,2020-10-23T15:29:56-07:00,6.2869119644165,1,Pure_Unrelated.csv,SF_VersionA.csv,"Sans F A","Sans F A",SYSTEM,LICK,Study2,U,167,71,JOL_SF,User,-,"How likely are you to correctly recall the second item in the pair?|Type your response on a scale from 0-100 and then press Enter.",Study/JOL,"Study Phase2",5801,,,5368,5395,,,,80,0.379
5f4808a945ed0028ede337f2,ynpggltpgk,Trevor_EX2,1,126,2020-10-23T15:30:01-07:00,4.9504539966583,1,Pure_Unrelated.csv,SF_VersionA.csv,"Sans F A","Sans F A",ROAD,SCENT,Study2,U,166,96,JOL,User,-,"How likely are you to correctly recall the second item in the pair?|Type your response on a scale from 0-100 and then press Enter.",Study/JOL,"Study Phase2",4327,,,4006,4017,,,,50,0.364
5f4808a945ed0028ede337f2,ynpggltpgk,Trevor_EX2,1,127,2020-10-23T15:30:11-07:00,9.3605191707611,1,Pure_Unrelated.csv,SF_VersionA.csv,"Sans F A","Sans F A",JELLY,NAUGHTY,Study2,U,172,87,JOL,User,-,"How likely are you to correctly recall the second item in the pair?|Type your response on a scale from 0-100 and then press Enter.",Study/JOL,"Study Phase2",8876,,,8455,8632,,,,75,0.2
5f4808a945ed0028ede337f2,ynpggltpgk,Trevor_EX2,1,128,2020-10-23T15:30:29-07:00,18.113382816315,1,Pure_Unrelated.csv,SF_VersionA.csv,"Sans F A","Sans F A",RIDDLE,SUGAR,Study2,U,111,59,JOL_SF,User,-,"How likely are you to correctly recall the second item in the pair?|Type your response on a scale from 0-100 and then press Enter.",Study/JOL,"Study Phase2",17443,,,17170,17212,,,,50,0.466
5f4808a945ed0028ede337f2,ynpggltpgk,Trevor_EX2,1,129,2020-10-23T15:30:35-07:00,5.9315400123596,1,Pure_Unrelated.csv,SF_VersionA.csv,"Sans F A","Sans F A",SICK,HIDE,Study2,U,114,91,JOL,User,-,"How likely are you to correctly recall the second item in the pair?|Type your response on a scale from 0-100 and then press Enter.",Study/JOL,"Study Phase2",5316,,,3369,5124,,,,70,1
5f4808a945ed0028ede337f2,ynpggltpgk,Trevor_EX2,1,130,2020-10-23T15:30:48-07:00,12.812903165817,1,Pure_Unrelated.csv,SF_VersionA.csv,"Sans F A","Sans F A",CLUTTER,PUSHER,Study2,U,96,94,JOL,User,-,"How likely are you to correctly recall the second item in the pair?|Type your response on a scale from 0-100 and then press Enter.",Study/JOL,"Study Phase2",11214,,,8369,10360,,,,10,0.333
5f4808a945ed0028ede337f2,ynpggltpgk,Trevor_EX2,1,131,2020-10-23T15:30:52-07:00,4.402801990509,1,Pure_Unrelated.csv,SF_VersionA.csv,"Sans F A","Sans F A",BELT,SOON,Study2,U,100,78,JOL,User,-,"How likely are you to correctly recall the second item in the pair?|Type your response on a scale from 0-100 and then press Enter.",Study/JOL,"Study Phase2",3789,,,2823,2877,,,,75,1
5f4808a945ed0028ede337f2,ynpggltpgk,Trevor_EX2,1,132,2020-10-23T15:31:06-07:00,14.376361846924,1,Pure_Unrelated.csv,SF_VersionA.csv,"Sans F A","Sans F A",READY,CORN,Study2,U,158,95,JOL,User,-,"How likely are you to correctly recall the second item in the pair?|Type your response on a scale from 0-100 and then press Enter.",Study/JOL,"Study Phase2",13878,,,12809,12873,,,,30,0.557
5f4808a945ed0028ede337f2,ynpggltpgk,Trevor_EX2,1,133,2020-10-23T15:31:19-07:00,12.784524202347,1,Pure_Unrelated.csv,SF_VersionA.csv,"Sans F A","Sans F A",HAND,FIX,Study2,U,105,70,JOL_SF,User,-,"How likely are you to correctly recall the second item in the pair?|Type your response on a scale from 0-100 and then press Enter.",Study/JOL,"Study Phase2",12153,,,11765,11902,,,,85,0.639
5f4808a945ed0028ede337f2,ynpggltpgk,Trevor_EX2,1,134,2020-10-23T15:31:38-07:00,19.055981874466,1,Pure_Unrelated.csv,SF_VersionA.csv,"Sans F A","Sans F A",Business,Death,Study2,U,102,81,JOL,User,-,"How likely are you to correctly recall the second item in the pair?|Type your response on a scale from 0-100 and then press Enter.",Study/JOL,"Study Phase2",18363,,,18109,18157,,,,60,0.424
5f4808a945ed0028ede337f2,ynpggltpgk,Trevor_EX2,1,135,2020-10-23T15:31:41-07:00,2.7900350093842,1,Pure_Unrelated.csv,SF_VersionA.csv,"Sans F A","Sans F A",FLOOR,DISCOVER,Study2,U,101,82,JOL,User,-,"How likely are you to correctly recall the second item in the pair?|Type your response on a scale from 0-100 and then press Enter.",Study/JOL,"Study Phase2",2180,,,1981,2022,,,,60,1
5f4808a945ed0028ede337f2,ynpggltpgk,Trevor_EX2,1,136,2020-10-23T15:31:55-07:00,14.124193906784,1,Pure_Unrelated.csv,SF_VersionA.csv,"Sans F A","Sans F A",SMOOTH,OMIT,Study2,U,157,76,JOL_SF,User,-,"How likely are you to correctly recall the second item in the pair?|Type your response on a scale from 0-100 and then press Enter.",Study/JOL,"Study Phase2",13632,,,11012,12756,,,,40,0.391
5f4808a945ed0028ede337f2,ynpggltpgk,Trevor_EX2,1,137,2020-10-23T15:31:59-07:00,3.5289711952209,1,Pure_Unrelated.csv,SF_VersionA.csv,"Sans F A","Sans F A",SPELL,BONE,Study2,U,174,89,JOL,User,-,"How likely are you to correctly recall the second item in the pair?|Type your response on a scale from 0-100 and then press Enter.",Study/JOL,"Study Phase2",2921,,,2628,2662,,,,75,1
5f4808a945ed0028ede337f2,ynpggltpgk,Trevor_EX2,1,138,2020-10-23T15:32:05-07:00,6.451840877533,1,Pure_Unrelated.csv,SF_VersionA.csv,"Sans F A","Sans F A",MUTE,WAVE,Study2,U,173,85,JOL,User,-,"How likely are you to correctly recall the second item in the pair?|Type your response on a scale from 0-100 and then press Enter.",Study/JOL,"Study Phase2",5923,,,5642,5721,,,,70,0.267
5f4808a945ed0028ede337f2,ynpggltpgk,Trevor_EX2,1,139,2020-10-23T15:32:11-07:00,6.1995139122009,1,Pure_Unrelated.csv,SF_VersionA.csv,"Sans F A","Sans F A",SWING,FOG,Study2,U,175,66,JOL_SF,User,-,"How likely are you to correctly recall the second item in the pair?|Type your response on a scale from 0-100 and then press Enter.",Study/JOL,"Study Phase2",5720,,,5510,5562,,,,50,0.483
5f4808a945ed0028ede337f2,ynpggltpgk,Trevor_EX2,1,140,2020-10-23T15:32:23-07:00,11.373603105545,1,Pure_Unrelated.csv,SF_VersionA.csv,"Sans F A","Sans F A",STOMACH,TOWN,Study2,U,159,74,JOL_SF,User,-,"How likely are you to correctly recall the second item in the pair?|Type your response on a scale from 0-100 and then press Enter.",Study/JOL,"Study Phase2",10865,,,2635,5591,,,,30,0.618
5f4808a945ed0028ede337f2,ynpggltpgk,Trevor_EX2,1,141,2020-10-23T15:32:35-07:00,11.923147916794,1,Pure_Unrelated.csv,SF_VersionA.csv,"Sans F A","Sans F A",DESIRE,NOISE,Study2,U,169,67,JOL_SF,User,-,"How likely are you to correctly recall the second item in the pair?|Type your response on a scale from 0-100 and then press Enter.",Study/JOL,"Study Phase2",11235,,,3742,9674,,,,60,0.614
5f4808a945ed0028ede337f2,ynpggltpgk,Trevor_EX2,1,142,2020-10-23T15:32:44-07:00,9.4641060829163,1,Pure_Unrelated.csv,SF_VersionA.csv,"Sans F A","Sans F A",GUARD,WHEEL,Study2,U,170,88,JOL,User,-,"How likely are you to correctly recall the second item in the pair?|Type your response on a scale from 0-100 and then press Enter.",Study/JOL,"Study Phase2",8835,,,3001,3051,,,,70,0.444
5f4808a945ed0028ede337f2,ynpggltpgk,Trevor_EX2,1,143,2020-10-23T15:32:56-07:00,12.200912952423,1,Pure_Unrelated.csv,SF_VersionA.csv,"Sans F A","Sans F A",VASE,KING,Study2,U,115,60,JOL_SF,User,-,"How likely are you to correctly recall the second item in the pair?|Type your response on a scale from 0-100 and then press Enter.",Study/JOL,"Study Phase2",11675,,,7089,7163,,,,80,0.678
5f4808a945ed0028ede337f2,ynpggltpgk,Trevor_EX2,1,144,2020-10-23T15:33:18-07:00,21.470989942551,1,Pure_Unrelated.csv,SF_VersionA.csv,"Sans F A","Sans F A",WASTE,SEDATE,Study2,U,165,80,JOL,User,-,"How likely are you to correctly recall the second item in the pair?|Type your response on a scale from 0-100 and then press Enter.",Study/JOL,"Study Phase2",20964,,,16252,16441,,,,75,0.645
5f4808a945ed0028ede337f2,ynpggltpgk,Trevor_EX2,1,145,2020-10-23T15:33:35-07:00,17.568695068359,1,Pure_Unrelated.csv,SF_VersionA.csv,"Sans F A","Sans F A",NULL,COUGH,Study2,U,156,79,JOL,User,-,"How likely are you to correctly recall the second item in the pair?|Type your response on a scale from 0-100 and then press Enter.",Study/JOL,"Study Phase2",16957,,,16067,16081,,,,35,0.506
5f4808a945ed0028ede337f2,ynpggltpgk,Trevor_EX2,1,146,2020-10-23T15:33:46-07:00,10.719040155411,1,Pure_Unrelated.csv,SF_VersionA.csv,"Sans F A","Sans F A",HUNGRY,PARK,Study2,U,98,93,JOL,User,-,"How likely are you to correctly recall the second item in the pair?|Type your response on a scale from 0-100 and then press Enter.",Study/JOL,"Study Phase2",9980,,,9208,9247,,,,30,0.58
5f4808a945ed0028ede337f2,ynpggltpgk,Trevor_EX2,1,147,2020-10-23T15:33:54-07:00,8.0081658363342,1,Pure_Unrelated.csv,SF_VersionA.csv,"Sans F A","Sans F A",OCTOBER,SPOOKY,BUFFER4,Buffer,180,98,JOL_SF,User,-,"How likely are you to correctly recall the second item in the pair?|Type your response on a scale from 0-100 and then press Enter.",Study/JOL,BUFFER4,7390,,,1855,2039,,,,100,0.432
5f4808a945ed0028ede337f2,ynpggltpgk,Trevor_EX2,1,148,2020-10-23T15:34:00-07:00,6.236102104187,1,Pure_Unrelated.csv,SF_VersionA.csv,"Sans F A","Sans F A",TOOL,SHED,BUFFER4,Buffer,178,99,JOL,User,-,"How likely are you to correctly recall the second item in the pair?|Type your response on a scale from 0-100 and then press Enter.",Study/JOL,BUFFER4,5736,,,1626,1815,,,,100,0.448
5f4808a945ed0028ede337f2,ynpggltpgk,Trevor_EX2,1,149,2020-10-23T15:34:06-07:00,5.7781898975372,1,Pure_Unrelated.csv,SF_VersionA.csv,"Sans F A","Sans F A",MONTH,YEAR,BUFFER4,Buffer,177,97,JOL_SF,User,-,"How likely are you to correctly recall the second item in the pair?|Type your response on a scale from 0-100 and then press Enter.",Study/JOL,BUFFER4,5163,,,1229,1416,,,,100,0.423
5f4808a945ed0028ede337f2,ynpggltpgk,Trevor_EX2,1,150,2020-10-23T15:34:10-07:00,3.8437919616699,1,Pure_Unrelated.csv,SF_VersionA.csv,"Sans F A","Sans F A",DAYS,WEEKS,BUFFER4,Buffer,176,100,JOL,User,-,"How likely are you to correctly recall the second item in the pair?|Type your response on a scale from 0-100 and then press Enter.",Study/JOL,BUFFER4,3337,,,2247,2579,,,,100,1
5f4808a945ed0028ede337f2,ynpggltpgk,Trevor_EX2,1,151,2020-10-23T15:34:21-07:00,11.622943162918,1,Pure_Unrelated.csv,SF_VersionA.csv,"Sans F A","Sans F A",SPRING,MARCH,BUFFER4,Buffer,179,101,JOL,User,-,"How likely are you to correctly recall the second item in the pair?|Type your response on a scale from 0-100 and then press Enter.",Study/JOL,BUFFER4,11129,,,4628,4693,,,,70,0.661
5f4808a945ed0028ede337f2,ynpggltpgk,Trevor_EX2,1,152,2020-10-23T15:34:23-07:00,1.5240340232849,1,Pure_Unrelated.csv,SF_VersionA.csv,"Sans F A","Sans F A",,,,,,0,Instruct,User,-,"You have completed this section. Please press Enter.",Filler_Instruction,Instruct5,1005,,,-1,-1,,,,,1
5f4808a945ed0028ede337f2,ynpggltpgk,Trevor_EX2,1,153,2020-10-23T15:36:24-07:00,120.95195889473,1,Pure_Unrelated.csv,SF_VersionA.csv,"Sans F A","Sans F A",,,,,,0,FreeRecall,120,120,"Please list the 50 US states in reverse alphabetical order (z - a). The task will automatically advance to the next screen after two minutes.",,Filler2,120429,"West Virginia, Washington, Virginia, Texas, South Carolina, Oklahoma, Ohio, North Carolina, New York, Nevada, Montana, Iowa, Hawaii, Florida, ",0,8224,117007,0,0,,,0.564
5f4808a945ed0028ede337f2,ynpggltpgk,Trevor_EX2,1,154,2020-10-23T15:36:35-07:00,11.452483892441,1,Pure_Unrelated.csv,SF_VersionA.csv,"Sans F A","Sans F A",,,,,,0,Instruct,-,10,"You will now be presented with the first word from each of the previously studied item pairs. Please type the missing word. If you do not know the word, you may guess or press Enter to skip forward to the next pair.",,Instruct6,10842,,,-1,-1,,,,,1
5f4808a945ed0028ede337f2,ynpggltpgk,Trevor_EX2,1,155,2020-10-23T15:36:43-07:00,7.7787861824036,1,Pure_Unrelated.csv,SF_VersionA.csv,"Sans F A","Sans F A",HAND,FIX,Study2,U,105,70,Test,User,-,,Recall,Recall2,7169,Fix,100,6567,6796,1,1,,,1
5f4808a945ed0028ede337f2,ynpggltpgk,Trevor_EX2,1,156,2020-10-23T15:36:55-07:00,11.546568870544,1,Pure_Unrelated.csv,SF_VersionA.csv,"Sans F A","Sans F A",DESIRE,NOISE,Study2,U,169,67,Test,User,-,,Recall,Recall2,11057,Loud,22.222222222222,9275,10156,0,0,,,1
5f4808a945ed0028ede337f2,ynpggltpgk,Trevor_EX2,1,157,2020-10-23T15:37:07-07:00,11.869308948517,1,Pure_Unrelated.csv,SF_VersionA.csv,"Sans F A","Sans F A",SIGHT,DEBATE,Study2,U,103,62,Test,User,-,,Recall,Recall2,11269,Delegate,71.428571428571,8897,10727,0,0,,,1
5f4808a945ed0028ede337f2,ynpggltpgk,Trevor_EX2,1,158,2020-10-23T15:37:09-07:00,2.4643750190735,1,Pure_Unrelated.csv,SF_VersionA.csv,"Sans F A","Sans F A",HUNGRY,PARK,Study2,U,98,93,Test,User,-,,Recall,Recall2,1754,Park,100,1368,1612,1,1,,,1
5f4808a945ed0028ede337f2,ynpggltpgk,Trevor_EX2,1,159,2020-10-23T15:37:15-07:00,6.2164599895477,1,Pure_Unrelated.csv,SF_VersionA.csv,"Sans F A","Sans F A",RIDDLE,SUGAR,Study2,U,111,59,Test,User,-,,Recall,Recall2,5732,Sugar,100,1568,2217,1,1,,,1
5f4808a945ed0028ede337f2,ynpggltpgk,Trevor_EX2,1,160,2020-10-23T15:37:26-07:00,10.983355045319,1,Pure_Unrelated.csv,SF_VersionA.csv,"Sans F A","Sans F A",POSITION,MACHINE,Study2,U,106,84,Test,User,-,,Recall,Recall2,10495,Machine,100,9794,10311,1,1,,,1
5f4808a945ed0028ede337f2,ynpggltpgk,Trevor_EX2,1,161,2020-10-23T15:37:31-07:00,4.8717110157013,1,Pure_Unrelated.csv,SF_VersionA.csv,"Sans F A","Sans F A",GUARD,WHEEL,Study2,U,170,88,Test,User,-,,Recall,Recall2,4269,Wheel,100,1738,4107,1,1,,,1
5f4808a945ed0028ede337f2,ynpggltpgk,Trevor_EX2,1,162,2020-10-23T15:37:34-07:00,2.8434381484985,1,Pure_Unrelated.csv,SF_VersionA.csv,"Sans F A","Sans F A",MUTE,WAVE,Study2,U,173,85,Test,User,-,,Recall,Recall2,2347,Wave,100,1643,1991,1,1,,,1
5f4808a945ed0028ede337f2,ynpggltpgk,Trevor_EX2,1,163,2020-10-23T15:37:45-07:00,11.165616989136,1,Pure_Unrelated.csv,SF_VersionA.csv,"Sans F A","Sans F A",WOMAN,LIFT,Study2,U,99,83,Test,User,-,,Recall,Recall2,10676,light,66.666666666667,8342,10473,0,0,,,1
5f4808a945ed0028ede337f2,ynpggltpgk,Trevor_EX2,1,164,2020-10-23T15:37:57-07:00,11.355536937714,1,Pure_Unrelated.csv,SF_VersionA.csv,"Sans F A","Sans F A",BRONZE,ARTERY,Study2,U,104,86,Test,User,-,,Recall,Recall2,10710,Artery,100,7935,9274,1,1,,,1
5f4808a945ed0028ede337f2,ynpggltpgk,Trevor_EX2,1,165,2020-10-23T15:38:03-07:00,6.2544100284576,1,Pure_Unrelated.csv,SF_VersionA.csv,"Sans F A","Sans F A",JELLY,NAUGHTY,Study2,U,172,87,Test,User,-,,Recall,Recall2,5639,Naughty,100,4669,5336,1,1,,,1
5f4808a945ed0028ede337f2,ynpggltpgk,Trevor_EX2,1,166,2020-10-23T15:38:08-07:00,5.6182188987732,1,Pure_Unrelated.csv,SF_VersionA.csv,"Sans F A","Sans F A",RIDDLE,SUGAR,Study2,U,111,59,Test,User,-,,Recall,Recall2,5120,Sugar,100,3817,4732,1,1,,,1
5f4808a945ed0028ede337f2,ynpggltpgk,Trevor_EX2,1,167,2020-10-23T15:38:15-07:00,6.5889151096344,1,Pure_Unrelated.csv,SF_VersionA.csv,"Sans F A","Sans F A",READY,CORN,Study2,U,158,95,Test,User,-,,Recall,Recall2,5895,Carrot,40,4183,5544,0,0,,,1
5f4808a945ed0028ede337f2,ynpggltpgk,Trevor_EX2,1,168,2020-10-23T15:38:22-07:00,7.2956559658051,1,Pure_Unrelated.csv,SF_VersionA.csv,"Sans F A","Sans F A",SWING,FOG,Study2,U,175,66,Test,User,-,,Recall,Recall2,6799,Fog,100,6171,6424,1,1,,,1
5f4808a945ed0028ede337f2,ynpggltpgk,Trevor_EX2,1,169,2020-10-23T15:38:27-07:00,4.9668419361115,1,Pure_Unrelated.csv,SF_VersionA.csv,"Sans F A","Sans F A",Business,Death,Study2,U,102,81,Test,User,-,,Recall,Recall2,4469,Death,100,1207,1590,1,1,,,1
5f4808a945ed0028ede337f2,ynpggltpgk,Trevor_EX2,1,170,2020-10-23T15:38:44-07:00,16.843548059464,1,Pure_Unrelated.csv,SF_VersionA.csv,"Sans F A","Sans F A",ADD,VALLEY,Study2,U,112,63,Test,User,-,,Recall,Recall2,16218,Valiant,46.153846153846,6338,15491,0,0,,,1
5f4808a945ed0028ede337f2,ynpggltpgk,Trevor_EX2,1,171,2020-10-23T15:38:48-07:00,4.0556168556213,1,Pure_Unrelated.csv,SF_VersionA.csv,"Sans F A","Sans F A",CLUTTER,PUSHER,Study2,U,96,94,Test,User,-,,Recall,Recall2,3438,Mess,20,2954,3310,0,0,,,1
5f4808a945ed0028ede337f2,ynpggltpgk,Trevor_EX2,1,172,2020-10-23T15:39:01-07:00,13.244083166122,1,Pure_Unrelated.csv,SF_VersionA.csv,"Sans F A","Sans F A",ACCIDENT,STRONG,Study2,U,110,75,Test,User,-,,Recall,Recall2,12720,Stance,50,11297,12613,0,0,,,1
5f4808a945ed0028ede337f2,ynpggltpgk,Trevor_EX2,1,173,2020-10-23T15:39:06-07:00,4.720104932785,1,Pure_Unrelated.csv,SF_VersionA.csv,"Sans F A","Sans F A",CAR,HAPPY,Study2,U,107,90,Test,User,-,,Recall,Recall2,4108,Happy,100,3174,3764,1,1,,,1
5f4808a945ed0028ede337f2,ynpggltpgk,Trevor_EX2,1,174,2020-10-23T15:39:15-07:00,8.8289399147034,1,Pure_Unrelated.csv,SF_VersionA.csv,"Sans F A","Sans F A",SYSTEM,LICK,Study2,U,167,71,Test,User,-,,Recall,Recall2,7338,Lick,100,6807,7131,1,1,,,1
5f4808a945ed0028ede337f2,ynpggltpgk,Trevor_EX2,1,175,2020-10-23T15:39:25-07:00,9.8169012069702,1,Pure_Unrelated.csv,SF_VersionA.csv,"Sans F A","Sans F A",ZOO,THUMB,Study2,U,168,61,Test,User,-,,Recall,Recall2,9266,Bite,22.222222222222,7914,9046,0,0,,,1
5f4808a945ed0028ede337f2,ynpggltpgk,Trevor_EX2,1,176,2020-10-23T15:39:51-07:00,26.137216806412,1,Pure_Unrelated.csv,SF_VersionA.csv,"Sans F A","Sans F A",SACKING,DIETARY,Study2,U,97,92,Test,User,-,,Recall,Recall2,25644,Bag,20,25254,25419,0,0,,,1
5f4808a945ed0028ede337f2,ynpggltpgk,Trevor_EX2,1,177,2020-10-23T15:40:02-07:00,11.390109062195,1,Pure_Unrelated.csv,SF_VersionA.csv,"Sans F A","Sans F A",FLOOR,DISCOVER,Study2,U,101,82,Test,User,-,,Recall,Recall2,10772,Trap,16.666666666667,9090,10624,0,0,,,1
5f4808a945ed0028ede337f2,ynpggltpgk,Trevor_EX2,1,178,2020-10-23T15:40:17-07:00,14.238847970963,1,Pure_Unrelated.csv,SF_VersionA.csv,"Sans F A","Sans F A",SICK,HIDE,Study2,U,114,91,Test,User,-,,Recall,Recall2,11845,room,0,11179,11693,0,0,,,1
5f4808a945ed0028ede337f2,ynpggltpgk,Trevor_EX2,1,179,2020-10-23T15:40:20-07:00,3.0945961475372,1,Pure_Unrelated.csv,SF_VersionA.csv,"Sans F A","Sans F A",BELT,SOON,Study2,U,100,78,Test,User,-,,Recall,Recall2,2434,Soon,100,1463,1782,1,1,,,1
5f4808a945ed0028ede337f2,ynpggltpgk,Trevor_EX2,1,180,2020-10-23T15:40:29-07:00,8.9075479507446,1,Pure_Unrelated.csv,SF_VersionA.csv,"Sans F A","Sans F A",LION,ART,Study2,U,109,69,Test,User,-,,Recall,Recall2,8398,Cat,66.666666666667,7835,8118,0,0,,,1
5f4808a945ed0028ede337f2,ynpggltpgk,Trevor_EX2,1,181,2020-10-23T15:40:44-07:00,15.396379947662,1,Pure_Unrelated.csv,SF_VersionA.csv,"Sans F A","Sans F A",ROAD,SCENT,Study2,U,166,96,Test,User,-,,Recall,Recall2,14898,Grass,20,14222,14808,0,0,,,1
5f4808a945ed0028ede337f2,ynpggltpgk,Trevor_EX2,1,182,2020-10-23T15:40:53-07:00,9.3504509925842,1,Pure_Unrelated.csv,SF_VersionA.csv,"Sans F A","Sans F A",LAKE,OPINION,Study2,U,160,72,Test,User,-,,Recall,Recall2,8852,Talk,0,6948,8462,0,0,,,1
5f4808a945ed0028ede337f2,ynpggltpgk,Trevor_EX2,1,183,2020-10-23T15:41:11-07:00,17.293627977371,1,Pure_Unrelated.csv,SF_VersionA.csv,"Sans F A","Sans F A",TUCK,ALLOW,Study2,U,108,77,Test,User,-,,Recall,Recall2,16791,All,75,15735,16053,0,1,,,1
5f4808a945ed0028ede337f2,ynpggltpgk,Trevor_EX2,1,184,2020-10-23T15:41:16-07:00,5.3042659759521,1,Pure_Unrelated.csv,SF_VersionA.csv,"Sans F A","Sans F A",NULL,COUGH,Study2,U,156,79,Test,User,-,,Recall,Recall2,4676,Cough,100,4108,4457,1,1,,,1
5f4808a945ed0028ede337f2,ynpggltpgk,Trevor_EX2,1,185,2020-10-23T15:41:27-07:00,11.028217077255,1,Pure_Unrelated.csv,SF_VersionA.csv,"Sans F A","Sans F A",PUFF,NUMBER,Study2,U,171,68,Test,User,-,,Recall,Recall2,10536,Mist,20,8097,10267,0,0,,,1
5f4808a945ed0028ede337f2,ynpggltpgk,Trevor_EX2,1,186,2020-10-23T15:41:33-07:00,5.7438220977783,1,Pure_Unrelated.csv,SF_VersionA.csv,"Sans F A","Sans F A",WASTE,SEDATE,Study2,U,165,80,Test,User,-,,Recall,Recall2,5071,Person,16.666666666667,4398,4903,0,0,,,1
5f4808a945ed0028ede337f2,ynpggltpgk,Trevor_EX2,1,187,2020-10-23T15:41:36-07:00,3.3713757991791,1,Pure_Unrelated.csv,SF_VersionA.csv,"Sans F A","Sans F A",VASE,KING,Study2,U,115,60,Test,User,-,,Recall,Recall2,2864,King,100,2435,2725,1,1,,,1
5f4808a945ed0028ede337f2,ynpggltpgk,Trevor_EX2,1,188,2020-10-23T15:42:09-07:00,32.955514192581,1,Pure_Unrelated.csv,SF_VersionA.csv,"Sans F A","Sans F A",STOMACH,TOWN,Study2,U,159,74,Test,User,-,,Recall,Recall2,32461,Pain,25,21563,32274,0,0,,,1
5f4808a945ed0028ede337f2,ynpggltpgk,Trevor_EX2,1,189,2020-10-23T15:42:14-07:00,5.5128259658813,1,Pure_Unrelated.csv,SF_VersionA.csv,"Sans F A","Sans F A",PUT,ROLL,Study2,U,163,57,Test,User,-,,Recall,Recall2,5026,Down,25,4519,4813,0,0,,,1
5f4808a945ed0028ede337f2,ynpggltpgk,Trevor_EX2,1,190,2020-10-23T15:42:37-07:00,22.379151821136,1,Pure_Unrelated.csv,SF_VersionA.csv,"Sans F A","Sans F A",SLIM,KNOW,Study2,U,164,64,Test,User,-,,Recall,Recall2,21879,Chance,20,11541,21712,0,0,,,1
5f4808a945ed0028ede337f2,ynpggltpgk,Trevor_EX2,1,191,2020-10-23T15:42:55-07:00,17.820260047913,1,Pure_Unrelated.csv,SF_VersionA.csv,"Sans F A","Sans F A",SMOOTH,OMIT,Study2,U,157,76,Test,User,-,,Recall,Recall2,17154,Bird,25,10749,16832,0,0,,,1
5f4808a945ed0028ede337f2,ynpggltpgk,Trevor_EX2,1,192,2020-10-23T15:43:03-07:00,8.7938930988312,1,Pure_Unrelated.csv,SF_VersionA.csv,"Sans F A","Sans F A",WOULD,CASH,Study2,U,113,65,Test,User,-,,Recall,Recall2,8147,Dance,22.222222222222,7036,7865,0,0,,,1
5f4808a945ed0028ede337f2,ynpggltpgk,Trevor_EX2,1,193,2020-10-23T15:43:18-07:00,14.280168056488,1,Pure_Unrelated.csv,SF_VersionA.csv,"Sans F A","Sans F A",DETECT,FREE,Study2,U,162,73,Test,User,-,,Recall,Recall2,13756,Window,0,10994,13646,0,0,,,1
5f4808a945ed0028ede337f2,ynpggltpgk,Trevor_EX2,1,194,2020-10-23T15:43:33-07:00,15.422845840454,1,Pure_Unrelated.csv,SF_VersionA.csv,"Sans F A","Sans F A",SPELL,BONE,Study2,U,174,89,Test,User,-,,Recall,Recall2,14802,Bone,100,9691,14514,1,1,,,1
5f4808a945ed0028ede337f2,ynpggltpgk,Trevor_EX2,1,195,2020-10-23T15:43:34-07:00,1.2387571334839,1,Pure_Unrelated.csv,SF_VersionA.csv,"Sans F A","Sans F A",,,,,,0,Instruct,User,-,"You have completed this section. Please press Enter.",,Instruct7,746,,,-1,-1,,,,,1
5f4808a945ed0028ede337f2,ynpggltpgk,Trevor_EX2,1,196,2020-10-23T15:43:37-07:00,2.7015759944916,1,Pure_Unrelated.csv,SF_VersionA.csv,"Sans F A","Sans F A",,,,,,0,Instruct,User,-,"The following screen will ask you a few questions abour your experience today. You must complete these questions to receive credit.",,Instruct8,2212,,,-1,-1,,,,,1
