Username,Condition.Number,Condition.Description,Stimuli.Cue,Stimuli.Answer,Stimuli.Shuffle,Stimuli.Stimuli.Notes,Procedure.Trial.Type,JOL.RT,Response.JOL,Response.RT.1,Response.Response,Response.Accuracy,trial_num
5c4764aca7b7980001713a73,1,Sans F A,CRACKLE,able,Study1,U,JOL,5970,0,6153,fizz,0,1
5c4764aca7b7980001713a73,1,Sans F A,TUCK,allow,Study2,U,JOL_SF,4181,12,5229,pull,44.44444444,2
5c4764aca7b7980001713a73,1,Sans F A,LION,art,Study2,U,JOL_SF,6623,20,12405,heart,75,3
5c4764aca7b7980001713a73,1,Sans F A,BRONZE,artery,Study2,U,JOL_SF,3234,33,5017,heart,75,4
5c4764aca7b7980001713a73,1,Sans F A,FUZZY,bang,Study2,U,JOL,5086,22,13363,,100,5
5c4764aca7b7980001713a73,1,Sans F A,SPELL,bone,Study1,U,JOL_SF,4961,19,13566,moon,25,6
5c4764aca7b7980001713a73,1,Sans F A,WOULD,cash,Study2,U,JOL,5197,20,3458,check,22.22222222,7
5c4764aca7b7980001713a73,1,Sans F A,DEGREE,chair,Study2,U,JOL,5612,35,7201,wouldnt,0,8
5c4764aca7b7980001713a73,1,Sans F A,VEHICLE,charm,Study1,U,JOL_SF,3467,22,6340,hard,66.66666667,9
5c4764aca7b7980001713a73,1,Sans F A,MIRROR,children,Study1,U,JOL,3274,0,3315,car,75,10
5c4764aca7b7980001713a73,1,Sans F A,MOAT,clear,Study1,U,JOL,4856,50,5120,children ,100,11
5c4764aca7b7980001713a73,1,Sans F A,STRETCH,cloth,Study1,U,JOL_SF,3523,25,5076,clear,100,12
5c4764aca7b7980001713a73,1,Sans F A,CAKE,clothes,Study1,U,JOL,4657,35,4281,clothes,83.33333333,13
5c4764aca7b7980001713a73,1,Sans F A,THICK,contest,Study1,U,JOL,7162,15,6067,clothes,100,14
5c4764aca7b7980001713a73,1,Sans F A,READY,corn,Study1,U,JOL,6171,50,7876,page,18.18181818,15
5c4764aca7b7980001713a73,1,Sans F A,NULL,cough,Study2,U,JOL_SF,5046,20,3404,go,33.33333333,16
5c4764aca7b7980001713a73,1,Sans F A,Business,death,Study2,U,JOL,3515,20,3580,void,22.22222222,17
5c4764aca7b7980001713a73,1,Sans F A,SIGHT,debate,Study2,U,JOL,3656,10,3876,detest,54.54545455,18
5c4764aca7b7980001713a73,1,Sans F A,SACKING,dietary,Study2,U,JOL_SF,8158,20,5465,eyes,40,19
5c4764aca7b7980001713a73,1,Sans F A,FLOOR,discover,Study2,U,JOL_SF,4515,5,17443,,0,20
5c4764aca7b7980001713a73,1,Sans F A,INFLATE,disgust,Study2,U,JOL_SF,7153,8,5153,mat,0,21
5c4764aca7b7980001713a73,1,Sans F A,MAZE,election,Study1,U,JOL,5138,50,8872,disgusting ,82.35294118,22
5c4764aca7b7980001713a73,1,Sans F A,LISTEN,fiction,Study1,U,JOL_SF,5301,20,7863,income,28.57142857,23
5c4764aca7b7980001713a73,1,Sans F A,HAND,fix,Study1,U,JOL,5174,20,3021,talk,18.18181818,24
5c4764aca7b7980001713a73,1,Sans F A,SWING,fog,Study2,U,JOL,3239,12,4367,thumb,0,25
5c4764aca7b7980001713a73,1,Sans F A,DETECT,free,Study2,U,JOL_SF,4611,34,3636,fog,100,26
5c4764aca7b7980001713a73,1,Sans F A,RESIST,glue,Study2,U,JOL_SF,6098,23,4666,invest,20,27
5c4764aca7b7980001713a73,1,Sans F A,CAR,happy,Study1,U,JOL,4421,50,7891,stance,20,28
5c4764aca7b7980001713a73,1,Sans F A,NUMBER,hard,Study2,U,JOL,4783,10,5070,vehicle ,16.66666667,29
5c4764aca7b7980001713a73,1,Sans F A,FLOAT,harmony,Study1,U,JOL,3466,5,3373,one,0,30
5c4764aca7b7980001713a73,1,Sans F A,NAME,hate,Study2,U,JOL_SF,5483,30,6796,boat,18.18181818,31
5c4764aca7b7980001713a73,1,Sans F A,SICK,hide,Study1,U,JOL,5992,25,5195,ball,25,32
5c4764aca7b7980001713a73,1,Sans F A,BROAD,infect,Study2,U,JOL,6935,12,5360,ill,28.57142857,33
5c4764aca7b7980001713a73,1,Sans F A,KEYS,joke,Study1,U,JOL,3437,5,7129,bean,20,34
5c4764aca7b7980001713a73,1,Sans F A,VASE,king,Study1,U,JOL_SF,11059,5,4075,lock,50,35
5c4764aca7b7980001713a73,1,Sans F A,SLIM,know,Study2,U,JOL,4944,33,4131,flower,0,36
5c4764aca7b7980001713a73,1,Sans F A,SYSTEM,lick,Study2,U,JOL,5637,29,4475,know,100,37
5c4764aca7b7980001713a73,1,Sans F A,WOMAN,lift,Study2,U,JOL,5724,19,6305,share,0,38
5c4764aca7b7980001713a73,1,Sans F A,DONKEY,lush,Study2,U,JOL_SF,5039,33,3335,lift,100,39
5c4764aca7b7980001713a73,1,Sans F A,POSITION,machine,Study1,U,JOL_SF,4185,4,5032,horse,22.22222222,40
5c4764aca7b7980001713a73,1,Sans F A,JUSTICE,maroon,Study2,U,JOL_SF,7400,15,5193,front,16.66666667,41
5c4764aca7b7980001713a73,1,Sans F A,PET,moon,Study1,U,JOL,5298,5,8568,difficult,0,42
5c4764aca7b7980001713a73,1,Sans F A,TEMPERATURE,morning,Study1,U,JOL_SF,3913,50,3855,moon,100,43
5c4764aca7b7980001713a73,1,Sans F A,JELLY,naughty,Study1,U,JOL,3937,50,7794,morning ,100,44
5c4764aca7b7980001713a73,1,Sans F A,ROSE,neglect,Study2,U,JOL,5818,45,3783,naughty,100,45
5c4764aca7b7980001713a73,1,Sans F A,DESIRE,noise,Study1,U,JOL_SF,6753,20,4266,thorn,16.66666667,46
5c4764aca7b7980001713a73,1,Sans F A,DESIRE,noise,Study2,U,JOL,6587,15,8405,blow,20,47
5c4764aca7b7980001713a73,1,Sans F A,PUFF,number,Study1,U,JOL_SF,4234,22,8715,clothes,30.76923077,48
5c4764aca7b7980001713a73,1,Sans F A,MEAT,obtain,Study2,U,JOL_SF,4882,20,4567,rough,22.22222222,49
5c4764aca7b7980001713a73,1,Sans F A,LAKE,opinion,Study2,U,JOL,4961,10,6008,water,0,50
5c4764aca7b7980001713a73,1,Sans F A,BOTH,ounce,Study1,U,JOL_SF,3673,12,2670,all,0,51
5c4764aca7b7980001713a73,1,Sans F A,TAX,owl,Study1,U,JOL_SF,5927,22,9945,seize,0,52
5c4764aca7b7980001713a73,1,Sans F A,HUNGRY,park,Study2,U,JOL,3635,23,5177,soon,0,53
5c4764aca7b7980001713a73,1,Sans F A,DIFFICULT,poor,Study1,U,JOL,5034,10,11414,pain,25,54
5c4764aca7b7980001713a73,1,Sans F A,CLUTTER,pusher,Study2,U,JOL,5519,20,3959,mess,20,55
5c4764aca7b7980001713a73,1,Sans F A,CRAYON,rate,Study1,U,JOL_SF,4648,5,3524,pate,75,56
5c4764aca7b7980001713a73,1,Sans F A,PUT,roll,Study2,U,JOL,6190,12,5552,sleep,22.22222222,57
5c4764aca7b7980001713a73,1,Sans F A,MAIN,scar,Study1,U,JOL_SF,8617,5,4166,source,40,58
5c4764aca7b7980001713a73,1,Sans F A,ROAD,scent,Study2,U,JOL_SF,6218,12,3978,path,22.22222222,59
5c4764aca7b7980001713a73,1,Sans F A,WARN,sea,Study1,U,JOL_SF,4736,50,13047,,0,60
5c4764aca7b7980001713a73,1,Sans F A,WASTE,sedate,Study2,U,JOL_SF,4677,16,23662,inject,33.33333333,61
5c4764aca7b7980001713a73,1,Sans F A,SHELL,shake,Study1,U,JOL,3958,50,4155,fish,44.44444444,62
5c4764aca7b7980001713a73,1,Sans F A,BAT,shaky,Study1,U,JOL_SF,3607,5,3561,ball,22.22222222,63
5c4764aca7b7980001713a73,1,Sans F A,LOAN,sign,Study1,U,JOL_SF,4403,20,10886,shark,22.22222222,64
5c4764aca7b7980001713a73,1,Sans F A,FUTURE,sincere,Study1,U,JOL_SF,5376,5,4308,king,36.36363636,65
5c4764aca7b7980001713a73,1,Sans F A,BELT,soon,Study2,U,JOL_SF,5828,45,3235,soon,100,66
5c4764aca7b7980001713a73,1,Sans F A,GRIND,stand,Study1,U,JOL_SF,7487,50,3391,stand,100,67
5c4764aca7b7980001713a73,1,Sans F A,GIVE,steak,Study1,U,JOL,6713,20,3117,take,66.66666667,68
5c4764aca7b7980001713a73,1,Sans F A,ACCIDENT,strong,Study2,U,JOL_SF,8222,33,5314,strong,100,69
5c4764aca7b7980001713a73,1,Sans F A,RIDDLE,sugar,Study2,U,JOL,3653,34,6945,sugar,100,70
5c4764aca7b7980001713a73,1,Sans F A,DIZZY,sweater,Study1,U,JOL_SF,6681,4,4353,stance,46.15384615,71
5c4764aca7b7980001713a73,1,Sans F A,PARCEL,throat,Study1,U,JOL,3910,5,4901,item,20,72
5c4764aca7b7980001713a73,1,Sans F A,ZOO,thumb,Study2,U,JOL,4296,12,3900,thumb,100,73
5c4764aca7b7980001713a73,1,Sans F A,LEASE,toil,Study1,U,JOL,8126,12,13808,bet,28.57142857,74
5c4764aca7b7980001713a73,1,Sans F A,STOMACH,town,Study2,U,JOL_SF,5853,20,10016,,0,75
5c4764aca7b7980001713a73,1,Sans F A,ADD,valley,Study2,U,JOL_SF,4322,23,9475,,0,76
5c4764aca7b7980001713a73,1,Sans F A,RIPE,verify,Study1,U,JOL,3291,12,6527,pear,40,77
5c4764aca7b7980001713a73,1,Sans F A,MUTE,wave,Study2,U,JOL,7174,0,3683,,0,78
5c4764aca7b7980001713a73,1,Sans F A,GUARD,wheel,Study2,U,JOL_SF,4132,45,6488,prison,0,79
5c4764aca7b7980001713a73,1,Sans F A,STRESS,yam,Study1,U,JOL_SF,5817,5,2911,ball,28.57142857,80
5e18762ae80b8e1495d584d7,1,Sans F A,CRACKLE,able,Study1,U,JOL_SF,6960,2,3855,,0,1
5e18762ae80b8e1495d584d7,1,Sans F A,TUCK,allow,Study2,U,JOL,4739,5,5864,allow,100,2
5e18762ae80b8e1495d584d7,1,Sans F A,LION,art,Study2,U,JOL,5556,22,6183,,0,3
5e18762ae80b8e1495d584d7,1,Sans F A,BRONZE,artery,Study2,U,JOL_SF,8451,32,5141,artery,100,4
5e18762ae80b8e1495d584d7,1,Sans F A,FUZZY,bang,Study1,U,JOL,8166,44,7438,bang,100,5
5e18762ae80b8e1495d584d7,1,Sans F A,SPELL,bone,Study2,U,JOL_SF,8430,24,2217,,0,6
5e18762ae80b8e1495d584d7,1,Sans F A,WOULD,cash,Study2,U,JOL_SF,6744,6,5963,,0,7
5e18762ae80b8e1495d584d7,1,Sans F A,DEGREE,chair,Study1,U,JOL,6388,4,5138,,0,8
5e18762ae80b8e1495d584d7,1,Sans F A,VEHICLE,charm,Study1,U,JOL_SF,11996,4,5612,,0,9
5e18762ae80b8e1495d584d7,1,Sans F A,MIRROR,children,Study1,U,JOL_SF,10538,25,10724,children,100,10
5e18762ae80b8e1495d584d7,1,Sans F A,MOAT,clear,Study1,U,JOL_SF,8734,43,5760,clear,100,11
5e18762ae80b8e1495d584d7,1,Sans F A,STRETCH,cloth,Study1,U,JOL,8851,20,5874,cloth,100,12
5e18762ae80b8e1495d584d7,1,Sans F A,CAKE,clothes,Study1,U,JOL_SF,9977,8,5819,clothes,100,13
5e18762ae80b8e1495d584d7,1,Sans F A,THICK,contest,Study1,U,JOL_SF,8877,33,7425,contest,100,14
5e18762ae80b8e1495d584d7,1,Sans F A,READY,corn,Study2,U,JOL,4799,1,4706,,0,15
5e18762ae80b8e1495d584d7,1,Sans F A,NULL,cough,Study2,U,JOL_SF,7383,16,6099,,0,16
5e18762ae80b8e1495d584d7,1,Sans F A,Business,death,Study2,U,JOL_SF,8519,8,6107,death,100,17
5e18762ae80b8e1495d584d7,1,Sans F A,SIGHT,debate,Study2,U,JOL_SF,5696,3,6061,,0,18
5e18762ae80b8e1495d584d7,1,Sans F A,SACKING,dietary,Study2,U,JOL_SF,8809,22,9017,dietary,100,19
5e18762ae80b8e1495d584d7,1,Sans F A,FLOOR,discover,Study2,U,JOL_SF,6167,55,4331,,0,20
5e18762ae80b8e1495d584d7,1,Sans F A,INFLATE,disgust,Study1,U,JOL,8126,3,6073,,0,21
5e18762ae80b8e1495d584d7,1,Sans F A,MAZE,election,Study1,U,JOL,8419,40,7603,election,100,22
5e18762ae80b8e1495d584d7,1,Sans F A,LISTEN,fiction,Study1,U,JOL_SF,9471,9,21285,,0,23
5e18762ae80b8e1495d584d7,1,Sans F A,HAND,fix,Study2,U,JOL_SF,5919,35,4551,,0,24
5e18762ae80b8e1495d584d7,1,Sans F A,SWING,fog,Study2,U,JOL,6819,6,8411,fog,100,25
5e18762ae80b8e1495d584d7,1,Sans F A,DETECT,free,Study2,U,JOL_SF,9022,18,4352,,0,26
5e18762ae80b8e1495d584d7,1,Sans F A,RESIST,glue,Study1,U,JOL_SF,10610,18,4101,,0,27
5e18762ae80b8e1495d584d7,1,Sans F A,CAR,happy,Study2,U,JOL,5032,55,6215,,0,28
5e18762ae80b8e1495d584d7,1,Sans F A,NUMBER,hard,Study1,U,JOL_SF,11042,30,2739,,0,29
5e18762ae80b8e1495d584d7,1,Sans F A,FLOAT,harmony,Study2,U,JOL,10661,27,7290,,0,30
5e18762ae80b8e1495d584d7,1,Sans F A,NAME,hate,Study1,U,JOL_SF,9359,15,5311,hate,100,31
5e18762ae80b8e1495d584d7,1,Sans F A,SICK,hide,Study2,U,JOL_SF,8180,7,7870,,0,32
5e18762ae80b8e1495d584d7,1,Sans F A,BROAD,infect,Study1,U,JOL,15026,3,4255,,0,33
5e18762ae80b8e1495d584d7,1,Sans F A,KEYS,joke,Study1,U,JOL,11961,21,5303,joke,100,34
5e18762ae80b8e1495d584d7,1,Sans F A,VASE,king,Study2,U,JOL_SF,7275,40,4442,king,100,35
5e18762ae80b8e1495d584d7,1,Sans F A,SLIM,know,Study2,U,JOL,11812,28,5493,know,100,36
5e18762ae80b8e1495d584d7,1,Sans F A,SYSTEM,lick,Study2,U,JOL_SF,6433,12,11035,lick,100,37
5e18762ae80b8e1495d584d7,1,Sans F A,WOMAN,lift,Study2,U,JOL,6011,44,6775,lift,100,38
5e18762ae80b8e1495d584d7,1,Sans F A,DONKEY,lush,Study1,U,JOL,7988,13,8631,lush,100,39
5e18762ae80b8e1495d584d7,1,Sans F A,POSITION,machine,Study2,U,JOL,6001,62,4032,,0,40
5e18762ae80b8e1495d584d7,1,Sans F A,JUSTICE,maroon,Study1,U,JOL,11689,32,12008,maroon,100,41
5e18762ae80b8e1495d584d7,1,Sans F A,PET,moon,Study1,U,JOL_SF,9240,29,5379,,0,42
5e18762ae80b8e1495d584d7,1,Sans F A,TEMPERATURE,morning,Study1,U,JOL,8405,55,6113,morning,100,43
5e18762ae80b8e1495d584d7,1,Sans F A,JELLY,naughty,Study2,U,JOL,15909,53,8070,,0,44
5e18762ae80b8e1495d584d7,1,Sans F A,ROSE,neglect,Study1,U,JOL,9960,17,5626,,0,45
5e18762ae80b8e1495d584d7,1,Sans F A,DESIRE,noise,Study2,U,JOL_SF,6696,4,8501,noise,100,46
5e18762ae80b8e1495d584d7,1,Sans F A,DESIRE,noise,Study2,U,JOL_SF,10603,30,8068,noise,100,47
5e18762ae80b8e1495d584d7,1,Sans F A,PUFF,number,Study2,U,JOL_SF,10027,24,6462,number,100,48
5e18762ae80b8e1495d584d7,1,Sans F A,MEAT,obtain,Study1,U,JOL,5770,7,4900,,0,49
5e18762ae80b8e1495d584d7,1,Sans F A,LAKE,opinion,Study2,U,JOL,4245,5,5673,,0,50
5e18762ae80b8e1495d584d7,1,Sans F A,BOTH,ounce,Study1,U,JOL_SF,9924,14,4670,,0,51
5e18762ae80b8e1495d584d7,1,Sans F A,TAX,owl,Study1,U,JOL_SF,11361,37,12837,,0,52
5e18762ae80b8e1495d584d7,1,Sans F A,HUNGRY,park,Study2,U,JOL,9459,80,6449,park,100,53
5e18762ae80b8e1495d584d7,1,Sans F A,DIFFICULT,poor,Study1,U,JOL,7958,45,4758,poor,100,54
5e18762ae80b8e1495d584d7,1,Sans F A,CLUTTER,pusher,Study2,U,JOL,6819,4,6438,pusher,100,55
5e18762ae80b8e1495d584d7,1,Sans F A,CRAYON,rate,Study1,U,JOL,8424,11,7009,,0,56
5e18762ae80b8e1495d584d7,1,Sans F A,PUT,roll,Study2,U,JOL_SF,5932,11,3795,,0,57
5e18762ae80b8e1495d584d7,1,Sans F A,MAIN,scar,Study1,U,JOL,14556,27,8033,scar,100,58
5e18762ae80b8e1495d584d7,1,Sans F A,ROAD,scent,Study2,U,JOL_SF,5150,2,9444,,0,59
5e18762ae80b8e1495d584d7,1,Sans F A,WARN,sea,Study1,U,JOL,8174,1,5632,,0,60
5e18762ae80b8e1495d584d7,1,Sans F A,WASTE,sedate,Study2,U,JOL,7718,34,5148,,0,61
5e18762ae80b8e1495d584d7,1,Sans F A,SHELL,shake,Study1,U,JOL_SF,9306,35,5886,shake,100,62
5e18762ae80b8e1495d584d7,1,Sans F A,BAT,shaky,Study1,U,JOL_SF,8573,6,9717,shaky,100,63
5e18762ae80b8e1495d584d7,1,Sans F A,LOAN,sign,Study1,U,JOL_SF,9016,24,6516,sign,100,64
5e18762ae80b8e1495d584d7,1,Sans F A,FUTURE,sincere,Study1,U,JOL,6015,8,3880,,0,65
5e18762ae80b8e1495d584d7,1,Sans F A,BELT,soon,Study2,U,JOL,9349,38,3272,,0,66
5e18762ae80b8e1495d584d7,1,Sans F A,GRIND,stand,Study1,U,JOL,7965,50,7879,,0,67
5e18762ae80b8e1495d584d7,1,Sans F A,GIVE,steak,Study1,U,JOL_SF,8607,22,7821,steak,100,68
5e18762ae80b8e1495d584d7,1,Sans F A,ACCIDENT,strong,Study2,U,JOL_SF,6619,14,3595,,0,69
5e18762ae80b8e1495d584d7,1,Sans F A,RIDDLE,sugar,Study2,U,JOL,8595,73,7058,sugar,100,70
5e18762ae80b8e1495d584d7,1,Sans F A,DIZZY,sweater,Study1,U,JOL_SF,7996,9,5688,,0,71
5e18762ae80b8e1495d584d7,1,Sans F A,PARCEL,throat,Study1,U,JOL_SF,11912,26,8324,,0,72
5e18762ae80b8e1495d584d7,1,Sans F A,ZOO,thumb,Study2,U,JOL,9633,58,6328,thumb,100,73
5e18762ae80b8e1495d584d7,1,Sans F A,LEASE,toil,Study1,U,JOL_SF,7051,2,8596,,0,74
5e18762ae80b8e1495d584d7,1,Sans F A,STOMACH,town,Study2,U,JOL,6484,9,4874,,0,75
5e18762ae80b8e1495d584d7,1,Sans F A,ADD,valley,Study2,U,JOL,6258,65,8003,valley,100,76
5e18762ae80b8e1495d584d7,1,Sans F A,RIPE,verify,Study1,U,JOL,8432,5,4507,,0,77
5e18762ae80b8e1495d584d7,1,Sans F A,MUTE,wave,Study2,U,JOL,5476,8,3986,,0,78
5e18762ae80b8e1495d584d7,1,Sans F A,GUARD,wheel,Study2,U,JOL_SF,7444,51,6257,wheel,100,79
5e18762ae80b8e1495d584d7,1,Sans F A,STRESS,yam,Study1,U,JOL,11725,6,7202,yam,100,80
5eaa97d07eda6e01ec108107,1,Sans F A,CRACKLE,able,Study1,U,JOL,4536,20,2981,pop,0,1
5eaa97d07eda6e01ec108107,1,Sans F A,TUCK,allow,Study2,U,JOL_SF,2997,20,4495,tick,0,2
5eaa97d07eda6e01ec108107,1,Sans F A,LION,art,Study2,U,JOL,2821,20,6823,star,57.14285714,3
5eaa97d07eda6e01ec108107,1,Sans F A,BRONZE,artery,Study2,U,JOL,3598,10,3740,art,66.66666667,4
5eaa97d07eda6e01ec108107,1,Sans F A,FUZZY,bang,Study1,U,JOL,2959,50,15678,fizzy,0,5
5eaa97d07eda6e01ec108107,1,Sans F A,SPELL,bone,Study2,U,JOL_SF,5017,10,4316,word,25,6
5eaa97d07eda6e01ec108107,1,Sans F A,WOULD,cash,Study2,U,JOL_SF,7693,20,8669,could,22.22222222,7
5eaa97d07eda6e01ec108107,1,Sans F A,DEGREE,chair,Study1,U,JOL,2683,20,9533,burn,22.22222222,8
5eaa97d07eda6e01ec108107,1,Sans F A,VEHICLE,charm,Study1,U,JOL_SF,4771,20,4115,broom,40,9
5eaa97d07eda6e01ec108107,1,Sans F A,MIRROR,children,Study1,U,JOL_SF,3978,40,3909,children,100,10
5eaa97d07eda6e01ec108107,1,Sans F A,MOAT,clear,Study1,U,JOL_SF,4129,10,35077,bloat,40,11
5eaa97d07eda6e01ec108107,1,Sans F A,STRETCH,cloth,Study1,U,JOL,5421,70,12083,meat,22.22222222,12
5eaa97d07eda6e01ec108107,1,Sans F A,CAKE,clothes,Study1,U,JOL_SF,4339,40,55180,cool,36.36363636,13
5eaa97d07eda6e01ec108107,1,Sans F A,THICK,contest,Study1,U,JOL,3103,40,6370,thin,18.18181818,14
5eaa97d07eda6e01ec108107,1,Sans F A,READY,corn,Study2,U,JOL,2044,10,2933,start,22.22222222,15
5eaa97d07eda6e01ec108107,1,Sans F A,NULL,cough,Study2,U,JOL,12181,20,2929,nill,0,16
5eaa97d07eda6e01ec108107,1,Sans F A,Business,death,Study2,U,JOL,4898,10,2471,card,22.22222222,17
5eaa97d07eda6e01ec108107,1,Sans F A,SIGHT,debate,Study2,U,JOL,2472,30,3772,short,18.18181818,18
5eaa97d07eda6e01ec108107,1,Sans F A,SACKING,dietary,Study2,U,JOL,2908,20,4906,staff,33.33333333,19
5eaa97d07eda6e01ec108107,1,Sans F A,FLOOR,discover,Study2,U,JOL_SF,2185,20,4308,door,50,20
5eaa97d07eda6e01ec108107,1,Sans F A,INFLATE,disgust,Study1,U,JOL,3408,10,7447,blow,0,21
5eaa97d07eda6e01ec108107,1,Sans F A,MAZE,election,Study1,U,JOL,3947,30,5799,puzzle,28.57142857,22
5eaa97d07eda6e01ec108107,1,Sans F A,LISTEN,fiction,Study1,U,JOL_SF,3170,30,3397,sound,33.33333333,23
5eaa97d07eda6e01ec108107,1,Sans F A,HAND,fix,Study2,U,JOL,9880,40,2748,short,0,24
5eaa97d07eda6e01ec108107,1,Sans F A,SWING,fog,Study2,U,JOL,2344,20,4678,saw,0,25
5eaa97d07eda6e01ec108107,1,Sans F A,DETECT,free,Study2,U,JOL,3391,20,4384,stop,0,26
5eaa97d07eda6e01ec108107,1,Sans F A,RESIST,glue,Study1,U,JOL_SF,4458,50,3267,pull,25,27
5eaa97d07eda6e01ec108107,1,Sans F A,CAR,happy,Study2,U,JOL,2772,30,3603,bike,0,28
5eaa97d07eda6e01ec108107,1,Sans F A,NUMBER,hard,Study1,U,JOL,3230,60,5816,letter,20,29
5eaa97d07eda6e01ec108107,1,Sans F A,FLOAT,harmony,Study2,U,JOL_SF,2947,10,43920,swim,18.18181818,30
5eaa97d07eda6e01ec108107,1,Sans F A,NAME,hate,Study1,U,JOL_SF,6276,60,10888,tag,28.57142857,31
5eaa97d07eda6e01ec108107,1,Sans F A,SICK,hide,Study2,U,JOL,2593,10,9836,dog,28.57142857,32
5eaa97d07eda6e01ec108107,1,Sans F A,BROAD,infect,Study1,U,JOL_SF,4581,50,15779,stretch,15.38461538,33
5eaa97d07eda6e01ec108107,1,Sans F A,KEYS,joke,Study1,U,JOL,3585,40,4462,tone,50,34
5eaa97d07eda6e01ec108107,1,Sans F A,VASE,king,Study2,U,JOL_SF,2320,10,3781,flower,0,35
5eaa97d07eda6e01ec108107,1,Sans F A,SLIM,know,Study2,U,JOL,1994,10,9233,thick,22.22222222,36
5eaa97d07eda6e01ec108107,1,Sans F A,SYSTEM,lick,Study2,U,JOL,2324,10,9294,computer,16.66666667,37
5eaa97d07eda6e01ec108107,1,Sans F A,DONKEY,lush,Study1,U,JOL,4540,30,52138,mat,0,38
5eaa97d07eda6e01ec108107,1,Sans F A,POSITION,machine,Study2,U,JOL,2862,10,7054,back,36.36363636,39
5eaa97d07eda6e01ec108107,1,Sans F A,JUSTICE,maroon,Study1,U,JOL_SF,5210,10,9005,system,16.66666667,40
5eaa97d07eda6e01ec108107,1,Sans F A,PET,moon,Study1,U,JOL,4433,40,45633,shop,25,41
5eaa97d07eda6e01ec108107,1,Sans F A,TEMPERATURE,morning,Study1,U,JOL,4053,60,12714,sea,0,42
5eaa97d07eda6e01ec108107,1,Sans F A,JELLY,naughty,Study2,U,JOL_SF,3387,10,4767,fish,18.18181818,43
5eaa97d07eda6e01ec108107,1,Sans F A,ROSE,neglect,Study1,U,JOL,3613,30,5988,blossom,14.28571429,44
5eaa97d07eda6e01ec108107,1,Sans F A,DESIRE,noise,Study2,U,JOL_SF,2887,20,4369,gold,22.22222222,45
5eaa97d07eda6e01ec108107,1,Sans F A,PUFF,number,Study2,U,JOL_SF,3925,20,7507,frozen,16.66666667,46
5eaa97d07eda6e01ec108107,1,Sans F A,PUFF,number,Study2,U,JOL_SF,2896,10,3301,frozen,16.66666667,47
5eaa97d07eda6e01ec108107,1,Sans F A,MEAT,obtain,Study1,U,JOL_SF,4650,10,7391,gravy,18.18181818,48
5eaa97d07eda6e01ec108107,1,Sans F A,SMOOTH,omit,Study2,U,JOL_SF,2836,10,2632,talker,20,49
5eaa97d07eda6e01ec108107,1,Sans F A,LAKE,opinion,Study2,U,JOL_SF,1918,20,5733,swim,18.18181818,50
5eaa97d07eda6e01ec108107,1,Sans F A,BOTH,ounce,Study1,U,JOL,3654,20,4569,strike,18.18181818,51
5eaa97d07eda6e01ec108107,1,Sans F A,TAX,owl,Study1,U,JOL_SF,3973,10,3465,revenue,0,52
5eaa97d07eda6e01ec108107,1,Sans F A,HUNGRY,park,Study2,U,JOL_SF,2361,10,17837,maze,25,53
5eaa97d07eda6e01ec108107,1,Sans F A,DIFFICULT,poor,Study1,U,JOL_SF,4209,20,33774,task,0,54
5eaa97d07eda6e01ec108107,1,Sans F A,CLUTTER,pusher,Study2,U,JOL_SF,3403,20,2699,bin,0,55
5eaa97d07eda6e01ec108107,1,Sans F A,CRAYON,rate,Study1,U,JOL,6163,20,4624,colour,20,56
5eaa97d07eda6e01ec108107,1,Sans F A,PUT,roll,Study2,U,JOL_SF,1786,20,5983,chill,44.44444444,57
5eaa97d07eda6e01ec108107,1,Sans F A,MAIN,scar,Study1,U,JOL,3490,30,5013,meal,25,58
5eaa97d07eda6e01ec108107,1,Sans F A,ROAD,scent,Study2,U,JOL_SF,2517,20,2810,sign,44.44444444,59
5eaa97d07eda6e01ec108107,1,Sans F A,WARN,sea,Study1,U,JOL_SF,5867,60,13043,sign,28.57142857,60
5eaa97d07eda6e01ec108107,1,Sans F A,WASTE,sedate,Study2,U,JOL,2832,10,5963,bin,0,61
5eaa97d07eda6e01ec108107,1,Sans F A,SHELL,shake,Study1,U,JOL_SF,4260,50,3349,sea,50,62
5eaa97d07eda6e01ec108107,1,Sans F A,BAT,shaky,Study1,U,JOL_SF,3415,50,6953,mobile,0,63
5eaa97d07eda6e01ec108107,1,Sans F A,LOAN,sign,Study1,U,JOL_SF,4023,60,3663,tax,0,64
5eaa97d07eda6e01ec108107,1,Sans F A,FUTURE,sincere,Study1,U,JOL,4498,20,57471,past,18.18181818,65
5eaa97d07eda6e01ec108107,1,Sans F A,BELT,soon,Study2,U,JOL_SF,2815,20,22237,slim,25,66
5eaa97d07eda6e01ec108107,1,Sans F A,GRIND,stand,Study1,U,JOL,9306,20,4687,gears,20,67
5eaa97d07eda6e01ec108107,1,Sans F A,GIVE,steak,Study1,U,JOL_SF,3993,20,11258,receive,16.66666667,68
5eaa97d07eda6e01ec108107,1,Sans F A,ACCIDENT,strong,Study2,U,JOL_SF,2796,20,8031,car,22.22222222,69
5eaa97d07eda6e01ec108107,1,Sans F A,RIDDLE,sugar,Study2,U,JOL_SF,3511,20,2777,clue,22.22222222,70
5eaa97d07eda6e01ec108107,1,Sans F A,DIZZY,sweater,Study1,U,JOL,4247,40,3727,fizzy,0,71
5eaa97d07eda6e01ec108107,1,Sans F A,PARCEL,throat,Study1,U,JOL_SF,5679,30,4245,package,15.38461538,72
5eaa97d07eda6e01ec108107,1,Sans F A,ZOO,thumb,Study2,U,JOL,3282,20,3513,animal,18.18181818,73
5eaa97d07eda6e01ec108107,1,Sans F A,LEASE,toil,Study1,U,JOL,2554,20,11569,money,22.22222222,74
5eaa97d07eda6e01ec108107,1,Sans F A,STOMACH,town,Study2,U,JOL,11315,10,2469,bug,0,75
5eaa97d07eda6e01ec108107,1,Sans F A,ADD,valley,Study2,U,JOL,2267,30,7105,subtract,14.28571429,76
5eaa97d07eda6e01ec108107,1,Sans F A,RIPE,verify,Study1,U,JOL_SF,4416,10,7527,apple,18.18181818,77
5eaa97d07eda6e01ec108107,1,Sans F A,MUTE,wave,Study2,U,JOL,2842,20,3115,sound,0,78
5eaa97d07eda6e01ec108107,1,Sans F A,GUARD,wheel,Study2,U,JOL_SF,3288,20,4158,stop,0,79
5eaa97d07eda6e01ec108107,1,Sans F A,STRESS,yam,Study1,U,JOL_SF,7014,40,3273,ball,28.57142857,80
5f21cd95e4a314617a2b2067,1,Sans F A,CRACKLE,able,Study1,U,JOL,9775,80,891,,0,1
5f21cd95e4a314617a2b2067,1,Sans F A,TUCK,allow,Study2,U,JOL,570,74,97,,0,2
5f21cd95e4a314617a2b2067,1,Sans F A,LION,art,Study2,U,JOL_SF,470,0,170,,0,3
5f21cd95e4a314617a2b2067,1,Sans F A,BRONZE,artery,Study2,U,JOL,1315,75,189,,0,4
5f21cd95e4a314617a2b2067,1,Sans F A,FUZZY,bang,Study1,U,JOL_SF,2227,67,1524,,0,5
5f21cd95e4a314617a2b2067,1,Sans F A,SPELL,bone,Study2,U,JOL,531,85,51,,0,6
5f21cd95e4a314617a2b2067,1,Sans F A,WOULD,cash,Study2,U,JOL,764,80,207,,0,7
5f21cd95e4a314617a2b2067,1,Sans F A,DEGREE,chair,Study1,U,JOL_SF,1341,75,26,,0,8
5f21cd95e4a314617a2b2067,1,Sans F A,VEHICLE,charm,Study1,U,JOL,996,23,31,,0,9
5f21cd95e4a314617a2b2067,1,Sans F A,MIRROR,children,Study1,U,JOL_SF,3204,99,173,,0,10
5f21cd95e4a314617a2b2067,1,Sans F A,MOAT,clear,Study1,U,JOL,3536,50,128,,0,11
5f21cd95e4a314617a2b2067,1,Sans F A,STRETCH,cloth,Study1,U,JOL_SF,1997,80,334,,0,12
5f21cd95e4a314617a2b2067,1,Sans F A,CAKE,clothes,Study1,U,JOL_SF,1590,70,167,,0,13
5f21cd95e4a314617a2b2067,1,Sans F A,THICK,contest,Study1,U,JOL,2177,100,627,,0,14
5f21cd95e4a314617a2b2067,1,Sans F A,READY,corn,Study2,U,JOL_SF,520,0,93,,0,15
5f21cd95e4a314617a2b2067,1,Sans F A,NULL,cough,Study2,U,JOL,528,96,33,,0,16
5f21cd95e4a314617a2b2067,1,Sans F A,Business,death,Study2,U,JOL_SF,840,22,558,,0,17
5f21cd95e4a314617a2b2067,1,Sans F A,Business,death,Study2,U,JOL_SF,280,0,189,,0,18
5f21cd95e4a314617a2b2067,1,Sans F A,SIGHT,debate,Study2,U,JOL_SF,393,0,38,,0,19
5f21cd95e4a314617a2b2067,1,Sans F A,SACKING,dietary,Study2,U,JOL_SF,718,16,328,,0,20
5f21cd95e4a314617a2b2067,1,Sans F A,FLOOR,discover,Study2,U,JOL_SF,620,74,181,,0,21
5f21cd95e4a314617a2b2067,1,Sans F A,INFLATE,disgust,Study1,U,JOL_SF,1209,65,33,,0,22
5f21cd95e4a314617a2b2067,1,Sans F A,MAZE,election,Study1,U,JOL_SF,3874,98,176,,0,23
5f21cd95e4a314617a2b2067,1,Sans F A,LISTEN,fiction,Study1,U,JOL_SF,774,74,374,,0,24
5f21cd95e4a314617a2b2067,1,Sans F A,HAND,fix,Study2,U,JOL,219,NA,125,,0,25
5f21cd95e4a314617a2b2067,1,Sans F A,SWING,fog,Study2,U,JOL,1798,46,223,,0,26
5f21cd95e4a314617a2b2067,1,Sans F A,DETECT,free,Study2,U,JOL,148,NA,96,,0,27
5f21cd95e4a314617a2b2067,1,Sans F A,RESIST,glue,Study1,U,JOL,3392,54,484,,0,28
5f21cd95e4a314617a2b2067,1,Sans F A,CAR,happy,Study2,U,JOL,647,62,124,,0,29
5f21cd95e4a314617a2b2067,1,Sans F A,NUMBER,hard,Study1,U,JOL,2766,100,3577,letter,20,30
5f21cd95e4a314617a2b2067,1,Sans F A,FLOAT,harmony,Study2,U,JOL,642,NA,188,,0,31
5f21cd95e4a314617a2b2067,1,Sans F A,NAME,hate,Study1,U,JOL,2657,100,5579,jam,28.57142857,32
5f21cd95e4a314617a2b2067,1,Sans F A,SICK,hide,Study2,U,JOL_SF,467,75,442,,0,33
5f21cd95e4a314617a2b2067,1,Sans F A,BROAD,infect,Study1,U,JOL_SF,2514,20,2988,milk,20,34
5f21cd95e4a314617a2b2067,1,Sans F A,KEYS,joke,Study1,U,JOL_SF,2481,30,4259,lock,50,35
5f21cd95e4a314617a2b2067,1,Sans F A,VASE,king,Study2,U,JOL_SF,1051,474,158,,0,36
5f21cd95e4a314617a2b2067,1,Sans F A,SLIM,know,Study2,U,JOL,732,22,32,,0,37
5f21cd95e4a314617a2b2067,1,Sans F A,SYSTEM,lick,Study2,U,JOL,669,96,208,,0,38
5f21cd95e4a314617a2b2067,1,Sans F A,WOMAN,lift,Study2,U,JOL_SF,550,27,168,,0,39
5f21cd95e4a314617a2b2067,1,Sans F A,DONKEY,lush,Study1,U,JOL_SF,3689,67,373,,0,40
5f21cd95e4a314617a2b2067,1,Sans F A,POSITION,machine,Study2,U,JOL_SF,187,NA,123,,0,41
5f21cd95e4a314617a2b2067,1,Sans F A,JUSTICE,maroon,Study1,U,JOL,2448,21,960,,0,42
5f21cd95e4a314617a2b2067,1,Sans F A,PET,moon,Study1,U,JOL,3311,79,329,,0,43
5f21cd95e4a314617a2b2067,1,Sans F A,TEMPERATURE,morning,Study1,U,JOL,1739,68,877,,0,44
5f21cd95e4a314617a2b2067,1,Sans F A,JELLY,naughty,Study2,U,JOL,526,27,320,,0,45
5f21cd95e4a314617a2b2067,1,Sans F A,ROSE,neglect,Study1,U,JOL,893,34,113,,0,46
5f21cd95e4a314617a2b2067,1,Sans F A,DESIRE,noise,Study2,U,JOL,621,10,163,,0,47
5f21cd95e4a314617a2b2067,1,Sans F A,PUFF,number,Study2,U,JOL_SF,802,10,321,,0,48
5f21cd95e4a314617a2b2067,1,Sans F A,MEAT,obtain,Study1,U,JOL_SF,1088,97,3710,food,20,49
5f21cd95e4a314617a2b2067,1,Sans F A,SMOOTH,omit,Study2,U,JOL_SF,564,73,119,,0,50
5f21cd95e4a314617a2b2067,1,Sans F A,LAKE,opinion,Study2,U,JOL_SF,430,9,391,,0,51
5f21cd95e4a314617a2b2067,1,Sans F A,BOTH,ounce,Study1,U,JOL,9243,40,374,,0,52
5f21cd95e4a314617a2b2067,1,Sans F A,TAX,owl,Study1,U,JOL,2097,42,205,,0,53
5f21cd95e4a314617a2b2067,1,Sans F A,HUNGRY,park,Study2,U,JOL_SF,410,5,147,,0,54
5f21cd95e4a314617a2b2067,1,Sans F A,DIFFICULT,poor,Study1,U,JOL,1468,34,188,,0,55
5f21cd95e4a314617a2b2067,1,Sans F A,CLUTTER,pusher,Study2,U,JOL_SF,660,64,103,,0,56
5f21cd95e4a314617a2b2067,1,Sans F A,CRAYON,rate,Study1,U,JOL_SF,2531,20,164,,0,57
5f21cd95e4a314617a2b2067,1,Sans F A,PUT,roll,Study2,U,JOL,137,NA,58,,0,58
5f21cd95e4a314617a2b2067,1,Sans F A,MAIN,scar,Study1,U,JOL,1446,76,25,,0,59
5f21cd95e4a314617a2b2067,1,Sans F A,ROAD,scent,Study2,U,JOL_SF,467,0,135,,0,60
5f21cd95e4a314617a2b2067,1,Sans F A,WARN,sea,Study1,U,JOL,2332,87,806,,0,61
5f21cd95e4a314617a2b2067,1,Sans F A,WASTE,sedate,Study2,U,JOL,575,11,235,,0,62
5f21cd95e4a314617a2b2067,1,Sans F A,SHELL,shake,Study1,U,JOL,957,464,381,,0,63
5f21cd95e4a314617a2b2067,1,Sans F A,BAT,shaky,Study1,U,JOL_SF,3181,10,680,,0,64
5f21cd95e4a314617a2b2067,1,Sans F A,LOAN,sign,Study1,U,JOL,720,34,30,,0,65
5f21cd95e4a314617a2b2067,1,Sans F A,FUTURE,sincere,Study1,U,JOL,3143,30,94,,0,66
5f21cd95e4a314617a2b2067,1,Sans F A,BELT,soon,Study2,U,JOL_SF,140,NA,1779, ,0,67
5f21cd95e4a314617a2b2067,1,Sans F A,GRIND,stand,Study1,U,JOL_SF,1089,54,129,,0,68
5f21cd95e4a314617a2b2067,1,Sans F A,GIVE,steak,Study1,U,JOL_SF,1170,23,1896,butter,36.36363636,69
5f21cd95e4a314617a2b2067,1,Sans F A,ACCIDENT,strong,Study2,U,JOL,584,47,325,,0,70
5f21cd95e4a314617a2b2067,1,Sans F A,RIDDLE,sugar,Study2,U,JOL_SF,637,NA,87,,0,71
5f21cd95e4a314617a2b2067,1,Sans F A,DIZZY,sweater,Study1,U,JOL,1274,64,840,,0,72
5f21cd95e4a314617a2b2067,1,Sans F A,PARCEL,throat,Study1,U,JOL_SF,1702,67,3909,customer,28.57142857,73
5f21cd95e4a314617a2b2067,1,Sans F A,ZOO,thumb,Study2,U,JOL,456,0,116,,0,74
5f21cd95e4a314617a2b2067,1,Sans F A,LEASE,toil,Study1,U,JOL_SF,3629,12,88,,0,75
5f21cd95e4a314617a2b2067,1,Sans F A,STOMACH,town,Study2,U,JOL_SF,345,0,137,,0,76
5f21cd95e4a314617a2b2067,1,Sans F A,RIPE,verify,Study1,U,JOL_SF,995,34,32,,0,77
5f21cd95e4a314617a2b2067,1,Sans F A,MUTE,wave,Study2,U,JOL,598,68,309,,0,78
5f21cd95e4a314617a2b2067,1,Sans F A,GUARD,wheel,Study2,U,JOL,544,83,763,,0,79
5f21cd95e4a314617a2b2067,1,Sans F A,STRESS,yam,Study1,U,JOL_SF,1459,12,230,,0,80
5f2b2c38344357530961afa1,1,Sans F A,CRACKLE,able,Study1,U,JOL,17904,7,1663,pop,0,1
5f2b2c38344357530961afa1,1,Sans F A,TUCK,allow,Study2,U,JOL,999,4,1611,,0,2
5f2b2c38344357530961afa1,1,Sans F A,LION,art,Study2,U,JOL,1334,1,2339,kin,0,3
5f2b2c38344357530961afa1,1,Sans F A,BRONZE,artery,Study2,U,JOL_SF,10756,4,2006,silver,33.33333333,4
5f2b2c38344357530961afa1,1,Sans F A,FUZZY,bang,Study1,U,JOL,3929,15,2158,beard,44.44444444,5
5f2b2c38344357530961afa1,1,Sans F A,SPELL,bone,Study2,U,JOL_SF,1201,0,1867,magic,0,6
5f2b2c38344357530961afa1,1,Sans F A,WOULD,cash,Study2,U,JOL,3888,10,2404,coudl,22.22222222,7
5f2b2c38344357530961afa1,1,Sans F A,DEGREE,chair,Study1,U,JOL,6150,10,4008,bachelr,50,8
5f2b2c38344357530961afa1,1,Sans F A,VEHICLE,charm,Study1,U,JOL_SF,5149,5,7355,drive,20,9
5f2b2c38344357530961afa1,1,Sans F A,MIRROR,children,Study1,U,JOL_SF,1288,4,4256,miroir,28.57142857,10
5f2b2c38344357530961afa1,1,Sans F A,MOAT,clear,Study1,U,JOL,3443,12,2656,water,40,11
5f2b2c38344357530961afa1,1,Sans F A,STRETCH,cloth,Study1,U,JOL_SF,5385,2,7128,wide,0,12
5f2b2c38344357530961afa1,1,Sans F A,CAKE,clothes,Study1,U,JOL_SF,5023,6,3837,clothes,100,13
5f2b2c38344357530961afa1,1,Sans F A,THICK,contest,Study1,U,JOL,3224,0,3775,,0,14
5f2b2c38344357530961afa1,1,Sans F A,READY,corn,Study2,U,JOL_SF,1315,4,1747,set,0,15
5f2b2c38344357530961afa1,1,Sans F A,NULL,cough,Study2,U,JOL_SF,3329,1,2245,zero,22.22222222,16
5f2b2c38344357530961afa1,1,Sans F A,Business,death,Study2,U,JOL,697,3,2695,job,0,17
5f2b2c38344357530961afa1,1,Sans F A,SIGHT,debate,Study2,U,JOL,2162,0,2841,loss,0,18
5f2b2c38344357530961afa1,1,Sans F A,SACKING,dietary,Study2,U,JOL_SF,2857,3,2230,job,0,19
5f2b2c38344357530961afa1,1,Sans F A,FLOOR,discover,Study2,U,JOL_SF,7399,3,1044,,0,20
5f2b2c38344357530961afa1,1,Sans F A,INFLATE,disgust,Study1,U,JOL_SF,2613,1,9039,,0,21
5f2b2c38344357530961afa1,1,Sans F A,MAZE,election,Study1,U,JOL_SF,3782,13,2355,hedge,30.76923077,22
5f2b2c38344357530961afa1,1,Sans F A,LISTEN,fiction,Study1,U,JOL_SF,5660,6,927,,0,23
5f2b2c38344357530961afa1,1,Sans F A,HAND,fix,Study2,U,JOL,2888,20,2659,foot,28.57142857,24
5f2b2c38344357530961afa1,1,Sans F A,SWING,fog,Study2,U,JOL,16521,3,2530,roundabout,15.38461538,25
5f2b2c38344357530961afa1,1,Sans F A,DETECT,free,Study2,U,JOL_SF,1219,3,2010,find,25,26
5f2b2c38344357530961afa1,1,Sans F A,RESIST,glue,Study1,U,JOL,4865,10,2090,hard,0,27
5f2b2c38344357530961afa1,1,Sans F A,CAR,happy,Study2,U,JOL,8934,5,2147,wash,22.22222222,28
5f2b2c38344357530961afa1,1,Sans F A,NUMBER,hard,Study1,U,JOL_SF,4602,10,4116,hard,100,29
5f2b2c38344357530961afa1,1,Sans F A,FLOAT,harmony,Study2,U,JOL,3274,2,5080,,0,30
5f2b2c38344357530961afa1,1,Sans F A,NAME,hate,Study1,U,JOL,1440,4,2020,tage,50,31
5f2b2c38344357530961afa1,1,Sans F A,SICK,hide,Study2,U,JOL,9292,8,1576,ill,28.57142857,32
5f2b2c38344357530961afa1,1,Sans F A,BROAD,infect,Study1,U,JOL,16767,3,2155,wide,40,33
5f2b2c38344357530961afa1,1,Sans F A,KEYS,joke,Study1,U,JOL_SF,2661,2,2856,piano,22.22222222,34
5f2b2c38344357530961afa1,1,Sans F A,VASE,king,Study2,U,JOL,818,6,1750,flower,0,35
5f2b2c38344357530961afa1,1,Sans F A,SLIM,know,Study2,U,JOL_SF,4772,7,2252,thin,25,36
5f2b2c38344357530961afa1,1,Sans F A,SYSTEM,lick,Study2,U,JOL_SF,4636,3,1188,,0,37
5f2b2c38344357530961afa1,1,Sans F A,WOMAN,lift,Study2,U,JOL,1387,4,1341,man,0,38
5f2b2c38344357530961afa1,1,Sans F A,DONKEY,lush,Study1,U,JOL_SF,2922,8,1947,kong,0,39
5f2b2c38344357530961afa1,1,Sans F A,POSITION,machine,Study2,U,JOL_SF,2977,2,2413,place,50,40
5f2b2c38344357530961afa1,1,Sans F A,JUSTICE,maroon,Study1,U,JOL_SF,3544,3,4289,given,18.18181818,41
5f2b2c38344357530961afa1,1,Sans F A,PET,moon,Study1,U,JOL,30907,30,2417,dog,28.57142857,42
5f2b2c38344357530961afa1,1,Sans F A,TEMPERATURE,morning,Study1,U,JOL,5143,3,6085,warm,18.18181818,43
5f2b2c38344357530961afa1,1,Sans F A,JELLY,naughty,Study2,U,JOL,3164,5,2455,wobble,0,44
5f2b2c38344357530961afa1,1,Sans F A,ROSE,neglect,Study1,U,JOL,1043,3,3979,petal,33.33333333,45
5f2b2c38344357530961afa1,1,Sans F A,DESIRE,noise,Study2,U,JOL,1919,3,1643,love,44.44444444,46
5f2b2c38344357530961afa1,1,Sans F A,PUFF,number,Study2,U,JOL,886,3,3880,dragon,16.66666667,47
5f2b2c38344357530961afa1,1,Sans F A,MEAT,obtain,Study1,U,JOL,1540,1,3225,,0,48
5f2b2c38344357530961afa1,1,Sans F A,SMOOTH,omit,Study2,U,JOL,1316,1,10054,,0,49
5f2b2c38344357530961afa1,1,Sans F A,LAKE,opinion,Study2,U,JOL_SF,2700,1,12718,swim,18.18181818,50
5f2b2c38344357530961afa1,1,Sans F A,LAKE,opinion,Study2,U,JOL_SF,3771,4,4087,district,26.66666667,51
5f2b2c38344357530961afa1,1,Sans F A,BOTH,ounce,Study1,U,JOL_SF,3949,2,1876,neither,33.33333333,52
5f2b2c38344357530961afa1,1,Sans F A,TAX,owl,Study1,U,JOL_SF,3213,10,2841,dogdge,22.22222222,53
5f2b2c38344357530961afa1,1,Sans F A,HUNGRY,park,Study2,U,JOL_SF,829,3,2008,food,0,54
5f2b2c38344357530961afa1,1,Sans F A,DIFFICULT,poor,Study1,U,JOL,3610,20,1520,hard,25,55
5f2b2c38344357530961afa1,1,Sans F A,CLUTTER,pusher,Study2,U,JOL_SF,3528,4,3728,declutte,14.28571429,56
5f2b2c38344357530961afa1,1,Sans F A,CRAYON,rate,Study1,U,JOL,1033,5,4751,,0,57
5f2b2c38344357530961afa1,1,Sans F A,PUT,roll,Study2,U,JOL_SF,1090,2,3797,shot,25,58
5f2b2c38344357530961afa1,1,Sans F A,MAIN,scar,Study1,U,JOL,2025,3,2326,street,40,59
5f2b2c38344357530961afa1,1,Sans F A,ROAD,scent,Study2,U,JOL_SF,1533,1,2531,kill,0,60
5f2b2c38344357530961afa1,1,Sans F A,WARN,sea,Study1,U,JOL_SF,5895,6,2348,,0,61
5f2b2c38344357530961afa1,1,Sans F A,WASTE,sedate,Study2,U,JOL,2103,9,2831,garbage,30.76923077,62
5f2b2c38344357530961afa1,1,Sans F A,SHELL,shake,Study1,U,JOL_SF,4082,15,2541,shake,100,63
5f2b2c38344357530961afa1,1,Sans F A,BAT,shaky,Study1,U,JOL,1681,3,3650,echo,22.22222222,64
5f2b2c38344357530961afa1,1,Sans F A,LOAN,sign,Study1,U,JOL,3305,2,2246,money,22.22222222,65
5f2b2c38344357530961afa1,1,Sans F A,FUTURE,sincere,Study1,U,JOL_SF,3425,4,1336,,0,66
5f2b2c38344357530961afa1,1,Sans F A,BELT,soon,Study2,U,JOL_SF,1142,3,4357,loop,50,67
5f2b2c38344357530961afa1,1,Sans F A,GRIND,stand,Study1,U,JOL_SF,18725,5,2673,grudge,18.18181818,68
5f2b2c38344357530961afa1,1,Sans F A,GIVE,steak,Study1,U,JOL_SF,4098,4,1897,,0,69
5f2b2c38344357530961afa1,1,Sans F A,ACCIDENT,strong,Study2,U,JOL_SF,4369,10,6959,car,22.22222222,70
5f2b2c38344357530961afa1,1,Sans F A,RIDDLE,sugar,Study2,U,JOL_SF,2674,2,3042,dribble,16.66666667,71
5f2b2c38344357530961afa1,1,Sans F A,DIZZY,sweater,Study1,U,JOL_SF,38497,4,9093,gillespe,26.66666667,72
5f2b2c38344357530961afa1,1,Sans F A,PARCEL,throat,Study1,U,JOL,3773,12,1087,,0,73
5f2b2c38344357530961afa1,1,Sans F A,LEASE,toil,Study1,U,JOL,3885,4,1121,,0,74
5f2b2c38344357530961afa1,1,Sans F A,STOMACH,town,Study2,U,JOL,1166,2,14570,ache,0,75
5f2b2c38344357530961afa1,1,Sans F A,ADD,valley,Study2,U,JOL_SF,5740,6,2740,subtract,14.28571429,76
5f2b2c38344357530961afa1,1,Sans F A,RIPE,verify,Study1,U,JOL,2262,3,1724,pear,40,77
5f2b2c38344357530961afa1,1,Sans F A,MUTE,wave,Study2,U,JOL,1695,0,2287,silent,20,78
5f2b2c38344357530961afa1,1,Sans F A,GUARD,wheel,Study2,U,JOL,967,4,1415,,0,79
5f2b2c38344357530961afa1,1,Sans F A,STRESS,yam,Study1,U,JOL_SF,16701,5,2283,ball,28.57142857,80
5f2e0bc767a4ed17d55942c7,1,Sans F A,CRACKLE,able,Study1,U,JOL,8407,70,9871,able,100,1
5f2e0bc767a4ed17d55942c7,1,Sans F A,TUCK,allow,Study2,U,JOL_SF,2440,30,21216,aloud,60,2
5f2e0bc767a4ed17d55942c7,1,Sans F A,LION,art,Study2,U,JOL,3880,37,9465,artistic,54.54545455,3
5f2e0bc767a4ed17d55942c7,1,Sans F A,BRONZE,artery,Study2,U,JOL,2297,10,24602,artery,100,4
5f2e0bc767a4ed17d55942c7,1,Sans F A,FUZZY,bang,Study1,U,JOL_SF,4212,80,2017,ball,50,5
5f2e0bc767a4ed17d55942c7,1,Sans F A,SPELL,bone,Study2,U,JOL,3191,45,6612,bone,100,6
5f2e0bc767a4ed17d55942c7,1,Sans F A,WOULD,cash,Study2,U,JOL,1910,90,23621,cash,100,7
5f2e0bc767a4ed17d55942c7,1,Sans F A,DEGREE,chair,Study1,U,JOL,3738,30,32899,,0,8
5f2e0bc767a4ed17d55942c7,1,Sans F A,VEHICLE,charm,Study1,U,JOL,2718,80,26695,charm,100,9
5f2e0bc767a4ed17d55942c7,1,Sans F A,MIRROR,children,Study1,U,JOL_SF,3198,80,11148,children,100,10
5f2e0bc767a4ed17d55942c7,1,Sans F A,MOAT,clear,Study1,U,JOL,2775,80,8668,clear,100,11
5f2e0bc767a4ed17d55942c7,1,Sans F A,STRETCH,cloth,Study1,U,JOL_SF,3592,50,898,,0,12
5f2e0bc767a4ed17d55942c7,1,Sans F A,CAKE,clothes,Study1,U,JOL,3796,20,19431,rich,36.36363636,13
5f2e0bc767a4ed17d55942c7,1,Sans F A,THICK,contest,Study1,U,JOL,4021,80,22282,concert,71.42857143,14
5f2e0bc767a4ed17d55942c7,1,Sans F A,READY,corn,Study2,U,JOL_SF,2615,30,20397,not,28.57142857,15
5f2e0bc767a4ed17d55942c7,1,Sans F A,NULL,cough,Study2,U,JOL,2880,50,25516,coffin,36.36363636,16
5f2e0bc767a4ed17d55942c7,1,Sans F A,Business,death,Study2,U,JOL,3958,100,3626,death,100,17
5f2e0bc767a4ed17d55942c7,1,Sans F A,SIGHT,debate,Study2,U,JOL_SF,2438,80,18116,debate,100,18
5f2e0bc767a4ed17d55942c7,1,Sans F A,SACKING,dietary,Study2,U,JOL_SF,7497,3,11887,diet,72.72727273,19
5f2e0bc767a4ed17d55942c7,1,Sans F A,FLOOR,discover,Study2,U,JOL_SF,2645,90,15118,,0,20
5f2e0bc767a4ed17d55942c7,1,Sans F A,INFLATE,disgust,Study1,U,JOL,3399,40,19906,discuss,71.42857143,21
5f2e0bc767a4ed17d55942c7,1,Sans F A,MAZE,election,Study1,U,JOL,2579,70,3297,game,16.66666667,22
5f2e0bc767a4ed17d55942c7,1,Sans F A,LISTEN,fiction,Study1,U,JOL,3022,60,12113,fiction,100,23
5f2e0bc767a4ed17d55942c7,1,Sans F A,HAND,fix,Study2,U,JOL_SF,7041,90,9714,fix,100,24
5f2e0bc767a4ed17d55942c7,1,Sans F A,SWING,fog,Study2,U,JOL_SF,7972,40,13482,frog,85.71428571,25
5f2e0bc767a4ed17d55942c7,1,Sans F A,DETECT,free,Study2,U,JOL_SF,2718,40,9987,free,100,26
5f2e0bc767a4ed17d55942c7,1,Sans F A,RESIST,glue,Study1,U,JOL_SF,3636,50,8049,glue,100,27
5f2e0bc767a4ed17d55942c7,1,Sans F A,CAR,happy,Study2,U,JOL_SF,2416,100,26504,happy,100,28
5f2e0bc767a4ed17d55942c7,1,Sans F A,NUMBER,hard,Study1,U,JOL_SF,4261,10,45174,fountain,16.66666667,29
5f2e0bc767a4ed17d55942c7,1,Sans F A,FLOAT,harmony,Study2,U,JOL_SF,3066,25,17920,harmoniously,73.68421053,30
5f2e0bc767a4ed17d55942c7,1,Sans F A,NAME,hate,Study1,U,JOL_SF,6482,60,11688,hate,100,31
5f2e0bc767a4ed17d55942c7,1,Sans F A,SICK,hide,Study2,U,JOL,2759,30,10786,hide,100,32
5f2e0bc767a4ed17d55942c7,1,Sans F A,BROAD,infect,Study1,U,JOL_SF,2493,40,10695,effect,66.66666667,33
5f2e0bc767a4ed17d55942c7,1,Sans F A,KEYS,joke,Study1,U,JOL_SF,2601,60,30784,joke,100,34
5f2e0bc767a4ed17d55942c7,1,Sans F A,VASE,king,Study2,U,JOL_SF,6422,45,11922,king,100,35
5f2e0bc767a4ed17d55942c7,1,Sans F A,SLIM,know,Study2,U,JOL,2534,20,18908,know,100,36
5f2e0bc767a4ed17d55942c7,1,Sans F A,SYSTEM,lick,Study2,U,JOL_SF,2779,60,9617,lock,75,37
5f2e0bc767a4ed17d55942c7,1,Sans F A,WOMAN,lift,Study2,U,JOL,8022,40,16741,lift,100,38
5f2e0bc767a4ed17d55942c7,1,Sans F A,DONKEY,lush,Study1,U,JOL,3979,30,13473,loss,50,39
5f2e0bc767a4ed17d55942c7,1,Sans F A,POSITION,machine,Study2,U,JOL,2534,60,17385,machine,100,40
5f2e0bc767a4ed17d55942c7,1,Sans F A,JUSTICE,maroon,Study1,U,JOL,2742,60,14782,maroon,100,41
5f2e0bc767a4ed17d55942c7,1,Sans F A,PET,moon,Study1,U,JOL_SF,3823,60,8974,moon,100,42
5f2e0bc767a4ed17d55942c7,1,Sans F A,TEMPERATURE,morning,Study1,U,JOL_SF,5351,70,17149,mourning,93.33333333,43
5f2e0bc767a4ed17d55942c7,1,Sans F A,JELLY,naughty,Study2,U,JOL,2331,40,15916,naughty,100,44
5f2e0bc767a4ed17d55942c7,1,Sans F A,ROSE,neglect,Study1,U,JOL_SF,3339,60,11285,neglect,100,45
5f2e0bc767a4ed17d55942c7,1,Sans F A,PUFF,number,Study2,U,JOL_SF,2848,40,22950,pastry,16.66666667,46
5f2e0bc767a4ed17d55942c7,1,Sans F A,MEAT,obtain,Study1,U,JOL_SF,3347,90,14242,obtain,100,47
5f2e0bc767a4ed17d55942c7,1,Sans F A,SMOOTH,omit,Study2,U,JOL,2884,20,14933,knit,50,48
5f2e0bc767a4ed17d55942c7,1,Sans F A,LAKE,opinion,Study2,U,JOL_SF,3873,20,20215,frozen,30.76923077,49
5f2e0bc767a4ed17d55942c7,1,Sans F A,LAKE,opinion,Study2,U,JOL_SF,2670,80,8042,opinion,100,50
5f2e0bc767a4ed17d55942c7,1,Sans F A,BOTH,ounce,Study1,U,JOL,2242,90,18388,ounce,100,51
5f2e0bc767a4ed17d55942c7,1,Sans F A,TAX,owl,Study1,U,JOL_SF,2715,20,13055,,0,52
5f2e0bc767a4ed17d55942c7,1,Sans F A,HUNGRY,park,Study2,U,JOL,2516,60,13641,park,100,53
5f2e0bc767a4ed17d55942c7,1,Sans F A,DIFFICULT,poor,Study1,U,JOL_SF,2268,90,16184,poor,100,54
5f2e0bc767a4ed17d55942c7,1,Sans F A,CLUTTER,pusher,Study2,U,JOL,5498,40,19509,push,80,55
5f2e0bc767a4ed17d55942c7,1,Sans F A,CRAYON,rate,Study1,U,JOL,2374,30,11555,rake,75,56
5f2e0bc767a4ed17d55942c7,1,Sans F A,PUT,roll,Study2,U,JOL,2699,60,5716,,0,57
5f2e0bc767a4ed17d55942c7,1,Sans F A,MAIN,scar,Study1,U,JOL,4754,40,9185,hate,25,58
5f2e0bc767a4ed17d55942c7,1,Sans F A,ROAD,scent,Study2,U,JOL_SF,2201,40,18068,kill,0,59
5f2e0bc767a4ed17d55942c7,1,Sans F A,WARN,sea,Study1,U,JOL_SF,3326,80,14517,sea,100,60
5f2e0bc767a4ed17d55942c7,1,Sans F A,WASTE,sedate,Study2,U,JOL,4423,15,24052,sedated,92.30769231,61
5f2e0bc767a4ed17d55942c7,1,Sans F A,SHELL,shake,Study1,U,JOL,3044,30,23210,solid,20,62
5f2e0bc767a4ed17d55942c7,1,Sans F A,BAT,shaky,Study1,U,JOL,2938,40,19347,shaky,100,63
5f2e0bc767a4ed17d55942c7,1,Sans F A,LOAN,sign,Study1,U,JOL,7804,50,15955,high,50,64
5f2e0bc767a4ed17d55942c7,1,Sans F A,FUTURE,sincere,Study1,U,JOL_SF,3096,70,13360,low,0,65
5f2e0bc767a4ed17d55942c7,1,Sans F A,BELT,soon,Study2,U,JOL_SF,2888,30,8528,soon,100,66
5f2e0bc767a4ed17d55942c7,1,Sans F A,GRIND,stand,Study1,U,JOL,3607,60,9116,stand,100,67
5f2e0bc767a4ed17d55942c7,1,Sans F A,GIVE,steak,Study1,U,JOL_SF,7143,90,14281,take,66.66666667,68
5f2e0bc767a4ed17d55942c7,1,Sans F A,ACCIDENT,strong,Study2,U,JOL,3493,69,6456,strong,100,69
5f2e0bc767a4ed17d55942c7,1,Sans F A,RIDDLE,sugar,Study2,U,JOL_SF,2730,20,11681,sugar,100,70
5f2e0bc767a4ed17d55942c7,1,Sans F A,DIZZY,sweater,Study1,U,JOL_SF,2343,40,3274,,0,71
5f2e0bc767a4ed17d55942c7,1,Sans F A,PARCEL,throat,Study1,U,JOL,2492,50,31537,throat,100,72
5f2e0bc767a4ed17d55942c7,1,Sans F A,ZOO,thumb,Study2,U,JOL,3802,63,28258,thump,80,73
5f2e0bc767a4ed17d55942c7,1,Sans F A,LEASE,toil,Study1,U,JOL,3630,70,7468,toil,100,74
5f2e0bc767a4ed17d55942c7,1,Sans F A,STOMACH,town,Study2,U,JOL_SF,3736,100,7579,town,100,75
5f2e0bc767a4ed17d55942c7,1,Sans F A,ADD,valley,Study2,U,JOL_SF,3138,34,9693,opinion,0,76
5f2e0bc767a4ed17d55942c7,1,Sans F A,RIPE,verify,Study1,U,JOL_SF,3822,30,2551,fruit,18.18181818,77
5f2e0bc767a4ed17d55942c7,1,Sans F A,MUTE,wave,Study2,U,JOL,3031,47,16363,wave,100,78
5f2e0bc767a4ed17d55942c7,1,Sans F A,GUARD,wheel,Study2,U,JOL,3190,40,18209,wheel,100,79
5f2e0bc767a4ed17d55942c7,1,Sans F A,STRESS,yam,Study1,U,JOL_SF,4919,40,1840,high,0,80
5f4808a945ed0028ede337f2,1,Sans F A,CRACKLE,able,Study1,U,JOL,6002,60,36192,cold,25,1
5f4808a945ed0028ede337f2,1,Sans F A,TUCK,allow,Study2,U,JOL,5333,30,16791,all,75,2
5f4808a945ed0028ede337f2,1,Sans F A,LION,art,Study2,U,JOL_SF,6969,40,8398,cat,66.66666667,3
5f4808a945ed0028ede337f2,1,Sans F A,BRONZE,artery,Study2,U,JOL,5248,50,10710,artery,100,4
5f4808a945ed0028ede337f2,1,Sans F A,FUZZY,bang,Study1,U,JOL_SF,4454,50,2635,glove,22.22222222,5
5f4808a945ed0028ede337f2,1,Sans F A,SPELL,bone,Study2,U,JOL,2921,75,14802,bone,100,6
5f4808a945ed0028ede337f2,1,Sans F A,WOULD,cash,Study2,U,JOL_SF,8915,65,8147,dance,22.22222222,7
5f4808a945ed0028ede337f2,1,Sans F A,DEGREE,chair,Study1,U,JOL_SF,7060,80,17948,chair,100,8
5f4808a945ed0028ede337f2,1,Sans F A,VEHICLE,charm,Study1,U,JOL_SF,39712,73,10301,wheel,20,9
5f4808a945ed0028ede337f2,1,Sans F A,MIRROR,children,Study1,U,JOL,4606,15,3027,child,76.92307692,10
5f4808a945ed0028ede337f2,1,Sans F A,MOAT,clear,Study1,U,JOL,4169,80,3422,clear,100,11
5f4808a945ed0028ede337f2,1,Sans F A,STRETCH,cloth,Study1,U,JOL_SF,22756,95,4396,clothes,83.33333333,12
5f4808a945ed0028ede337f2,1,Sans F A,CAKE,clothes,Study1,U,JOL_SF,4409,40,10617,play,18.18181818,13
5f4808a945ed0028ede337f2,1,Sans F A,THICK,contest,Study1,U,JOL,25225,70,81016,buffoon,28.57142857,14
5f4808a945ed0028ede337f2,1,Sans F A,READY,corn,Study2,U,JOL,13878,30,5895,carrot,40,15
5f4808a945ed0028ede337f2,1,Sans F A,NULL,cough,Study2,U,JOL,16957,35,4676,cough,100,16
5f4808a945ed0028ede337f2,1,Sans F A,Business,death,Study2,U,JOL,18363,60,4469,death,100,17
5f4808a945ed0028ede337f2,1,Sans F A,SIGHT,debate,Study2,U,JOL_SF,9215,10,11269,delegate,71.42857143,18
5f4808a945ed0028ede337f2,1,Sans F A,SACKING,dietary,Study2,U,JOL,6078,20,25644,bag,20,19
5f4808a945ed0028ede337f2,1,Sans F A,FLOOR,discover,Study2,U,JOL,2180,60,10772,trap,16.66666667,20
5f4808a945ed0028ede337f2,1,Sans F A,INFLATE,disgust,Study1,U,JOL,19337,40,7592,toy,20,21
5f4808a945ed0028ede337f2,1,Sans F A,MAZE,election,Study1,U,JOL_SF,8166,50,21341,election,100,22
5f4808a945ed0028ede337f2,1,Sans F A,LISTEN,fiction,Study1,U,JOL_SF,53699,40,35868,liar,18.18181818,23
5f4808a945ed0028ede337f2,1,Sans F A,HAND,fix,Study2,U,JOL_SF,12153,85,7169,fix,100,24
5f4808a945ed0028ede337f2,1,Sans F A,SWING,fog,Study2,U,JOL_SF,5720,50,6799,fog,100,25
5f4808a945ed0028ede337f2,1,Sans F A,DETECT,free,Study2,U,JOL_SF,11466,55,13756,window,0,26
5f4808a945ed0028ede337f2,1,Sans F A,RESIST,glue,Study1,U,JOL_SF,5724,80,4878,glue,100,27
5f4808a945ed0028ede337f2,1,Sans F A,CAR,happy,Study2,U,JOL,6673,66,4108,happy,100,28
5f4808a945ed0028ede337f2,1,Sans F A,NUMBER,hard,Study1,U,JOL,3801,90,3871,hard,100,29
5f4808a945ed0028ede337f2,1,Sans F A,NAME,hate,Study1,U,JOL_SF,11667,70,6108,plate,66.66666667,30
5f4808a945ed0028ede337f2,1,Sans F A,SICK,hide,Study2,U,JOL,5316,70,11845,room,0,31
5f4808a945ed0028ede337f2,1,Sans F A,BROAD,infect,Study1,U,JOL_SF,14341,65,5855,infection,80,32
5f4808a945ed0028ede337f2,1,Sans F A,KEYS,joke,Study1,U,JOL_SF,3634,70,3947,cut,0,33
5f4808a945ed0028ede337f2,1,Sans F A,VASE,king,Study2,U,JOL_SF,11675,80,2864,king,100,34
5f4808a945ed0028ede337f2,1,Sans F A,SLIM,know,Study2,U,JOL_SF,7247,5,21879,chance,20,35
5f4808a945ed0028ede337f2,1,Sans F A,SYSTEM,lick,Study2,U,JOL_SF,5801,80,7338,lick,100,36
5f4808a945ed0028ede337f2,1,Sans F A,WOMAN,lift,Study2,U,JOL,7026,75,10676,light,66.66666667,37
5f4808a945ed0028ede337f2,1,Sans F A,DONKEY,lush,Study1,U,JOL_SF,5409,20,62458,hat,28.57142857,38
5f4808a945ed0028ede337f2,1,Sans F A,POSITION,machine,Study2,U,JOL,8134,90,10495,machine,100,39
5f4808a945ed0028ede337f2,1,Sans F A,JUSTICE,maroon,Study1,U,JOL,18376,15,6018,sherriff ,14.28571429,40
5f4808a945ed0028ede337f2,1,Sans F A,PET,moon,Study1,U,JOL_SF,26294,50,2799,food,50,41
5f4808a945ed0028ede337f2,1,Sans F A,TEMPERATURE,morning,Study1,U,JOL,4150,55,5394,cold,18.18181818,42
5f4808a945ed0028ede337f2,1,Sans F A,JELLY,naughty,Study2,U,JOL,8876,75,5639,naughty,100,43
5f4808a945ed0028ede337f2,1,Sans F A,ROSE,neglect,Study1,U,JOL,20100,45,2321,thorn,16.66666667,44
5f4808a945ed0028ede337f2,1,Sans F A,DESIRE,noise,Study2,U,JOL_SF,11235,60,11057,loud,22.22222222,45
5f4808a945ed0028ede337f2,1,Sans F A,PUFF,number,Study2,U,JOL_SF,14116,35,10536,mist,20,46
5f4808a945ed0028ede337f2,1,Sans F A,MEAT,obtain,Study1,U,JOL_SF,5513,75,2972,bone,40,47
5f4808a945ed0028ede337f2,1,Sans F A,SMOOTH,omit,Study2,U,JOL_SF,13632,40,17154,bird,25,48
5f4808a945ed0028ede337f2,1,Sans F A,LAKE,opinion,Study2,U,JOL_SF,34228,30,8852,talk,0,49
5f4808a945ed0028ede337f2,1,Sans F A,BOTH,ounce,Study1,U,JOL_SF,5750,10,7546,none,44.44444444,50
5f4808a945ed0028ede337f2,1,Sans F A,TAX,owl,Study1,U,JOL_SF,25146,10,7143,effect,0,51
5f4808a945ed0028ede337f2,1,Sans F A,HUNGRY,park,Study2,U,JOL,9980,30,1754,park,100,52
5f4808a945ed0028ede337f2,1,Sans F A,DIFFICULT,poor,Study1,U,JOL,9068,50,4051,math,0,53
5f4808a945ed0028ede337f2,1,Sans F A,CLUTTER,pusher,Study2,U,JOL,11214,10,3438,mess,20,54
5f4808a945ed0028ede337f2,1,Sans F A,CRAYON,rate,Study1,U,JOL,50433,30,7472,fun,0,55
5f4808a945ed0028ede337f2,1,Sans F A,PUT,roll,Study2,U,JOL_SF,8107,80,5026,down,25,56
5f4808a945ed0028ede337f2,1,Sans F A,MAIN,scar,Study1,U,JOL_SF,5395,60,15855,easy,25,57
5f4808a945ed0028ede337f2,1,Sans F A,ROAD,scent,Study2,U,JOL,4327,50,14898,grass,20,58
5f4808a945ed0028ede337f2,1,Sans F A,WARN,sea,Study1,U,JOL_SF,8213,95,6347,aware,25,59
5f4808a945ed0028ede337f2,1,Sans F A,WASTE,sedate,Study2,U,JOL,20964,75,5071,person,16.66666667,60
5f4808a945ed0028ede337f2,1,Sans F A,SHELL,shake,Study1,U,JOL,95672,50,5159,sea,50,61
5f4808a945ed0028ede337f2,1,Sans F A,BAT,shaky,Study1,U,JOL,8662,60,8089,catcher,16.66666667,62
5f4808a945ed0028ede337f2,1,Sans F A,LOAN,sign,Study1,U,JOL,14145,70,40096,sign,100,63
5f4808a945ed0028ede337f2,1,Sans F A,FUTURE,sincere,Study1,U,JOL,5611,25,1911,past,18.18181818,64
5f4808a945ed0028ede337f2,1,Sans F A,BELT,soon,Study2,U,JOL,3789,75,2434,soon,100,65
5f4808a945ed0028ede337f2,1,Sans F A,GRIND,stand,Study1,U,JOL,56971,30,50826,rock,0,66
5f4808a945ed0028ede337f2,1,Sans F A,GIVE,steak,Study1,U,JOL_SF,44434,55,27424,money,20,67
5f4808a945ed0028ede337f2,1,Sans F A,ACCIDENT,strong,Study2,U,JOL_SF,7404,65,12720,stance,50,68
5f4808a945ed0028ede337f2,1,Sans F A,RIDDLE,sugar,Study2,U,JOL_SF,55182,20,5732,sugar,100,69
5f4808a945ed0028ede337f2,1,Sans F A,RIDDLE,sugar,Study2,U,JOL_SF,17443,50,5120,sugar,100,70
5f4808a945ed0028ede337f2,1,Sans F A,DIZZY,sweater,Study1,U,JOL_SF,12621,20,41126,stable,46.15384615,71
5f4808a945ed0028ede337f2,1,Sans F A,PARCEL,throat,Study1,U,JOL,15650,20,9961,delivery,14.28571429,72
5f4808a945ed0028ede337f2,1,Sans F A,ZOO,thumb,Study2,U,JOL_SF,11351,70,9266,bite,22.22222222,73
5f4808a945ed0028ede337f2,1,Sans F A,LEASE,toil,Study1,U,JOL,3683,5,5817,lease,22.22222222,74
5f4808a945ed0028ede337f2,1,Sans F A,STOMACH,town,Study2,U,JOL_SF,10865,30,32461,pain,25,75
5f4808a945ed0028ede337f2,1,Sans F A,ADD,valley,Study2,U,JOL_SF,7566,5,16218,valiant,46.15384615,76
5f4808a945ed0028ede337f2,1,Sans F A,RIPE,verify,Study1,U,JOL,10755,30,4208,skin,20,77
5f4808a945ed0028ede337f2,1,Sans F A,MUTE,wave,Study2,U,JOL,5923,70,2347,wave,100,78
5f4808a945ed0028ede337f2,1,Sans F A,GUARD,wheel,Study2,U,JOL,8835,70,4269,wheel,100,79
5f4808a945ed0028ede337f2,1,Sans F A,STRESS,yam,Study1,U,JOL,6340,30,6991,steel,0,80
5f8b29a907e21f2236fcbe45,1,Sans F A,CRACKLE,able,Study1,U,JOL,82534,0,16586,able,100,1
5f8b29a907e21f2236fcbe45,1,Sans F A,TUCK,allow,Study2,U,JOL,3789,70,11039,allow,100,2
5f8b29a907e21f2236fcbe45,1,Sans F A,LION,art,Study2,U,JOL_SF,4784,30,6082,art,100,3
5f8b29a907e21f2236fcbe45,1,Sans F A,BRONZE,artery,Study2,U,JOL_SF,3854,70,9388,art,66.66666667,4
5f8b29a907e21f2236fcbe45,1,Sans F A,FUZZY,bang,Study1,U,JOL,3832,0,1879,,0,5
5f8b29a907e21f2236fcbe45,1,Sans F A,SPELL,bone,Study2,U,JOL,5228,70,20463,bone,100,6
5f8b29a907e21f2236fcbe45,1,Sans F A,WOULD,cash,Study2,U,JOL,4556,40,46035,cash,100,7
5f8b29a907e21f2236fcbe45,1,Sans F A,DEGREE,chair,Study1,U,JOL_SF,4691,35,3255,,0,8
5f8b29a907e21f2236fcbe45,1,Sans F A,VEHICLE,charm,Study1,U,JOL_SF,3912,75,553,,0,9
5f8b29a907e21f2236fcbe45,1,Sans F A,MIRROR,children,Study1,U,JOL,4242,60,4181,children,100,10
5f8b29a907e21f2236fcbe45,1,Sans F A,MOAT,clear,Study1,U,JOL,6574,15,1720,,0,11
5f8b29a907e21f2236fcbe45,1,Sans F A,STRETCH,cloth,Study1,U,JOL,2528,20,2035,,0,12
5f8b29a907e21f2236fcbe45,1,Sans F A,CAKE,clothes,Study1,U,JOL_SF,3320,0,2885,,0,13
5f8b29a907e21f2236fcbe45,1,Sans F A,THICK,contest,Study1,U,JOL_SF,3304,90,1286,,0,14
5f8b29a907e21f2236fcbe45,1,Sans F A,READY,corn,Study2,U,JOL_SF,3838,40,14812,torn,75,15
5f8b29a907e21f2236fcbe45,1,Sans F A,NULL,cough,Study2,U,JOL,3392,90,17743,cough,100,16
5f8b29a907e21f2236fcbe45,1,Sans F A,Business,death,Study2,U,JOL,3195,100,9139,death,100,17
5f8b29a907e21f2236fcbe45,1,Sans F A,SIGHT,debate,Study2,U,JOL_SF,2873,100,23494,omit,20,18
5f8b29a907e21f2236fcbe45,1,Sans F A,SACKING,dietary,Study2,U,JOL_SF,5796,40,10095,diet,72.72727273,19
5f8b29a907e21f2236fcbe45,1,Sans F A,FLOOR,discover,Study2,U,JOL_SF,4474,50,32995,drum,33.33333333,20
5f8b29a907e21f2236fcbe45,1,Sans F A,INFLATE,disgust,Study1,U,JOL,8086,80,5770,,0,21
5f8b29a907e21f2236fcbe45,1,Sans F A,MAZE,election,Study1,U,JOL,2051,0,2529,,0,22
5f8b29a907e21f2236fcbe45,1,Sans F A,LISTEN,fiction,Study1,U,JOL,52364,20,932,,0,23
5f8b29a907e21f2236fcbe45,1,Sans F A,HAND,fix,Study2,U,JOL,2493,100,6549,fix,100,24
5f8b29a907e21f2236fcbe45,1,Sans F A,SWING,fog,Study2,U,JOL_SF,4284,100,30438,soon,28.57142857,25
5f8b29a907e21f2236fcbe45,1,Sans F A,DETECT,free,Study2,U,JOL_SF,3085,70,22270,free,100,26
5f8b29a907e21f2236fcbe45,1,Sans F A,RESIST,glue,Study1,U,JOL_SF,54277,0,1088,,0,27
5f8b29a907e21f2236fcbe45,1,Sans F A,CAR,happy,Study2,U,JOL,2849,100,10896,happy,100,28
5f8b29a907e21f2236fcbe45,1,Sans F A,NUMBER,hard,Study1,U,JOL,2261,70,5574,difficult,15.38461538,29
5f8b29a907e21f2236fcbe45,1,Sans F A,FLOAT,harmony,Study2,U,JOL,7478,70,15429,harmony,100,30
5f8b29a907e21f2236fcbe45,1,Sans F A,NAME,hate,Study1,U,JOL_SF,8743,0,1620,,0,31
5f8b29a907e21f2236fcbe45,1,Sans F A,SICK,hide,Study2,U,JOL,4365,100,18601,cough,22.22222222,32
5f8b29a907e21f2236fcbe45,1,Sans F A,BROAD,infect,Study1,U,JOL,2737,0,2966,,0,33
5f8b29a907e21f2236fcbe45,1,Sans F A,KEYS,joke,Study1,U,JOL_SF,8034,0,11290,,0,34
5f8b29a907e21f2236fcbe45,1,Sans F A,VASE,king,Study2,U,JOL_SF,2575,80,8428,king,100,35
5f8b29a907e21f2236fcbe45,1,Sans F A,SLIM,know,Study2,U,JOL,13144,30,28813,ready,0,36
5f8b29a907e21f2236fcbe45,1,Sans F A,SYSTEM,lick,Study2,U,JOL,3883,100,6021,lick,100,37
5f8b29a907e21f2236fcbe45,1,Sans F A,WOMAN,lift,Study2,U,JOL_SF,3652,50,12002,lift,100,38
5f8b29a907e21f2236fcbe45,1,Sans F A,DONKEY,lush,Study1,U,JOL,6084,0,3374,,0,39
5f8b29a907e21f2236fcbe45,1,Sans F A,POSITION,machine,Study2,U,JOL_SF,5212,40,9104,motor,16.66666667,40
5f8b29a907e21f2236fcbe45,1,Sans F A,JUSTICE,maroon,Study1,U,JOL_SF,4697,35,954,,0,41
5f8b29a907e21f2236fcbe45,1,Sans F A,PET,moon,Study1,U,JOL_SF,5040,30,1768,,0,42
5f8b29a907e21f2236fcbe45,1,Sans F A,TEMPERATURE,morning,Study1,U,JOL,2863,70,5695,morning,100,43
5f8b29a907e21f2236fcbe45,1,Sans F A,ROSE,neglect,Study1,U,JOL_SF,4394,30,1888,,0,44
5f8b29a907e21f2236fcbe45,1,Sans F A,DESIRE,noise,Study2,U,JOL_SF,3789,30,4880,noise,100,45
5f8b29a907e21f2236fcbe45,1,Sans F A,PUFF,number,Study2,U,JOL_SF,6792,40,24208,number,100,46
5f8b29a907e21f2236fcbe45,1,Sans F A,MEAT,obtain,Study1,U,JOL_SF,2817,60,1344,,0,47
5f8b29a907e21f2236fcbe45,1,Sans F A,SMOOTH,omit,Study2,U,JOL_SF,9191,30,12473,omit,100,48
5f8b29a907e21f2236fcbe45,1,Sans F A,SMOOTH,omit,Study2,U,JOL_SF,3515,60,7103,omit,100,49
5f8b29a907e21f2236fcbe45,1,Sans F A,LAKE,opinion,Study2,U,JOL,11076,100,5751,opinion,100,50
5f8b29a907e21f2236fcbe45,1,Sans F A,BOTH,ounce,Study1,U,JOL_SF,3293,0,1130,,0,51
5f8b29a907e21f2236fcbe45,1,Sans F A,TAX,owl,Study1,U,JOL_SF,2790,0,3289,,0,52
5f8b29a907e21f2236fcbe45,1,Sans F A,HUNGRY,park,Study2,U,JOL_SF,2934,100,15981,park,100,53
5f8b29a907e21f2236fcbe45,1,Sans F A,DIFFICULT,poor,Study1,U,JOL_SF,3974,100,4475,,0,54
5f8b29a907e21f2236fcbe45,1,Sans F A,CLUTTER,pusher,Study2,U,JOL_SF,4345,60,7058,pusher,100,55
5f8b29a907e21f2236fcbe45,1,Sans F A,CRAYON,rate,Study1,U,JOL,2667,40,7145,,0,56
5f8b29a907e21f2236fcbe45,1,Sans F A,PUT,roll,Study2,U,JOL,3617,20,17710,rot,57.14285714,57
5f8b29a907e21f2236fcbe45,1,Sans F A,MAIN,scar,Study1,U,JOL_SF,2761,0,4372,scape,66.66666667,58
5f8b29a907e21f2236fcbe45,1,Sans F A,ROAD,scent,Study2,U,JOL,3729,100,16178,scent,100,59
5f8b29a907e21f2236fcbe45,1,Sans F A,WARN,sea,Study1,U,JOL,4084,25,1869,,0,60
5f8b29a907e21f2236fcbe45,1,Sans F A,WASTE,sedate,Study2,U,JOL,2783,70,17882,sedate,100,61
5f8b29a907e21f2236fcbe45,1,Sans F A,SHELL,shake,Study1,U,JOL,2696,70,1823,,0,62
5f8b29a907e21f2236fcbe45,1,Sans F A,BAT,shaky,Study1,U,JOL_SF,3969,15,979,,0,63
5f8b29a907e21f2236fcbe45,1,Sans F A,LOAN,sign,Study1,U,JOL_SF,3397,50,1077,,0,64
5f8b29a907e21f2236fcbe45,1,Sans F A,FUTURE,sincere,Study1,U,JOL,2729,70,2464,,0,65
5f8b29a907e21f2236fcbe45,1,Sans F A,BELT,soon,Study2,U,JOL,5263,50,6018,soon,100,66
5f8b29a907e21f2236fcbe45,1,Sans F A,GRIND,stand,Study1,U,JOL_SF,3332,30,815,,0,67
5f8b29a907e21f2236fcbe45,1,Sans F A,GIVE,steak,Study1,U,JOL,10625,20,6045,,0,68
5f8b29a907e21f2236fcbe45,1,Sans F A,ACCIDENT,strong,Study2,U,JOL_SF,3241,100,12603,strong,100,69
5f8b29a907e21f2236fcbe45,1,Sans F A,RIDDLE,sugar,Study2,U,JOL,4340,100,5189,sugar,100,70
5f8b29a907e21f2236fcbe45,1,Sans F A,DIZZY,sweater,Study1,U,JOL,3149,50,2190,,0,71
5f8b29a907e21f2236fcbe45,1,Sans F A,PARCEL,throat,Study1,U,JOL_SF,172399,30,3394,,0,72
5f8b29a907e21f2236fcbe45,1,Sans F A,ZOO,thumb,Study2,U,JOL,3863,10,10974,thumb,100,73
5f8b29a907e21f2236fcbe45,1,Sans F A,LEASE,toil,Study1,U,JOL_SF,3687,0,1617,,0,74
5f8b29a907e21f2236fcbe45,1,Sans F A,STOMACH,town,Study2,U,JOL_SF,2857,70,9971,tone,75,75
5f8b29a907e21f2236fcbe45,1,Sans F A,ADD,valley,Study2,U,JOL,2528,70,13900,valley,100,76
5f8b29a907e21f2236fcbe45,1,Sans F A,RIPE,verify,Study1,U,JOL,2058,0,604,,0,77
5f8b29a907e21f2236fcbe45,1,Sans F A,MUTE,wave,Study2,U,JOL_SF,3862,100,12523,water,66.66666667,78
5f8b29a907e21f2236fcbe45,1,Sans F A,GUARD,wheel,Study2,U,JOL,5338,50,19713,wheel,100,79
5f8b29a907e21f2236fcbe45,1,Sans F A,STRESS,yam,Study1,U,JOL,2050,0,1560,,0,80
5f90ad46f0452619e18b1653,1,Sans F A,CRACKLE,able,Study1,U,JOL,8620,19,5941,,0,1
5f90ad46f0452619e18b1653,1,Sans F A,TUCK,allow,Study2,U,JOL,3033,13,5991,lose,44.44444444,2
5f90ad46f0452619e18b1653,1,Sans F A,LION,art,Study2,U,JOL_SF,4648,15,1602,art,100,3
5f90ad46f0452619e18b1653,1,Sans F A,LION,art,Study2,U,JOL_SF,7672,16,2360,art,100,4
5f90ad46f0452619e18b1653,1,Sans F A,BRONZE,artery,Study2,U,JOL_SF,7196,4,3422,,0,5
5f90ad46f0452619e18b1653,1,Sans F A,FUZZY,bang,Study1,U,JOL_SF,8735,12,5450,,0,6
5f90ad46f0452619e18b1653,1,Sans F A,SPELL,bone,Study2,U,JOL_SF,7524,24,4073,,0,7
5f90ad46f0452619e18b1653,1,Sans F A,WOULD,cash,Study2,U,JOL,3190,9,3541,,0,8
5f90ad46f0452619e18b1653,1,Sans F A,DEGREE,chair,Study1,U,JOL,7361,26,8973,chair,100,9
5f90ad46f0452619e18b1653,1,Sans F A,VEHICLE,charm,Study1,U,JOL,6806,0,6790,,0,10
5f90ad46f0452619e18b1653,1,Sans F A,MIRROR,children,Study1,U,JOL_SF,6170,16,9335,,0,11
5f90ad46f0452619e18b1653,1,Sans F A,MOAT,clear,Study1,U,JOL,9109,17,2764,,0,12
5f90ad46f0452619e18b1653,1,Sans F A,STRETCH,cloth,Study1,U,JOL_SF,5618,40,8792,,0,13
5f90ad46f0452619e18b1653,1,Sans F A,CAKE,clothes,Study1,U,JOL,6644,20,7765,,0,14
5f90ad46f0452619e18b1653,1,Sans F A,THICK,contest,Study1,U,JOL_SF,6108,68,3035,contest,100,15
5f90ad46f0452619e18b1653,1,Sans F A,READY,corn,Study2,U,JOL_SF,4944,8,5185,space,22.22222222,16
5f90ad46f0452619e18b1653,1,Sans F A,NULL,cough,Study2,U,JOL_SF,3988,7,4393,void,22.22222222,17
5f90ad46f0452619e18b1653,1,Sans F A,Business,death,Study2,U,JOL_SF,4692,30,3327,,0,18
5f90ad46f0452619e18b1653,1,Sans F A,SIGHT,debate,Study2,U,JOL,4707,60,12116,frog,0,19
5f90ad46f0452619e18b1653,1,Sans F A,SACKING,dietary,Study2,U,JOL,6785,0,3392,,0,20
5f90ad46f0452619e18b1653,1,Sans F A,FLOOR,discover,Study2,U,JOL,3761,28,5808,,0,21
5f90ad46f0452619e18b1653,1,Sans F A,INFLATE,disgust,Study1,U,JOL_SF,9205,9,2929,disgust,100,22
5f90ad46f0452619e18b1653,1,Sans F A,MAZE,election,Study1,U,JOL_SF,7478,14,16702,,0,23
5f90ad46f0452619e18b1653,1,Sans F A,LISTEN,fiction,Study1,U,JOL,10707,45,19744,scare,16.66666667,24
5f90ad46f0452619e18b1653,1,Sans F A,HAND,fix,Study2,U,JOL,5847,55,4744,,0,25
5f90ad46f0452619e18b1653,1,Sans F A,SWING,fog,Study2,U,JOL,6104,0,4174,,0,26
5f90ad46f0452619e18b1653,1,Sans F A,DETECT,free,Study2,U,JOL,3329,14,6434,,0,27
5f90ad46f0452619e18b1653,1,Sans F A,RESIST,glue,Study1,U,JOL,10033,24,8850,glue,100,28
5f90ad46f0452619e18b1653,1,Sans F A,CAR,happy,Study2,U,JOL,4967,63,5940,happy,100,29
5f90ad46f0452619e18b1653,1,Sans F A,NUMBER,hard,Study1,U,JOL,8765,55,6732,,0,30
5f90ad46f0452619e18b1653,1,Sans F A,FLOAT,harmony,Study2,U,JOL_SF,4060,40,4578,sea,20,31
5f90ad46f0452619e18b1653,1,Sans F A,NAME,hate,Study1,U,JOL,9254,38,18904,hate,100,32
5f90ad46f0452619e18b1653,1,Sans F A,SICK,hide,Study2,U,JOL_SF,4562,10,2503,,0,33
5f90ad46f0452619e18b1653,1,Sans F A,BROAD,infect,Study1,U,JOL_SF,9532,23,10123,string,33.33333333,34
5f90ad46f0452619e18b1653,1,Sans F A,KEYS,joke,Study1,U,JOL_SF,13582,40,5705,joke,100,35
5f90ad46f0452619e18b1653,1,Sans F A,VASE,king,Study2,U,JOL_SF,2873,16,2839,,0,36
5f90ad46f0452619e18b1653,1,Sans F A,SLIM,know,Study2,U,JOL,5178,32,6004,know,100,37
5f90ad46f0452619e18b1653,1,Sans F A,SYSTEM,lick,Study2,U,JOL_SF,3817,10,4393,,0,38
5f90ad46f0452619e18b1653,1,Sans F A,WOMAN,lift,Study2,U,JOL,2427,22,4862,,0,39
5f90ad46f0452619e18b1653,1,Sans F A,DONKEY,lush,Study1,U,JOL,11702,5,4475,,0,40
5f90ad46f0452619e18b1653,1,Sans F A,POSITION,machine,Study2,U,JOL,2809,24,2911,machine,100,41
5f90ad46f0452619e18b1653,1,Sans F A,JUSTICE,maroon,Study1,U,JOL,10747,15,3558,,0,42
5f90ad46f0452619e18b1653,1,Sans F A,PET,moon,Study1,U,JOL,4966,9,7957,moon,100,43
5f90ad46f0452619e18b1653,1,Sans F A,TEMPERATURE,morning,Study1,U,JOL,5257,26,11551,since,33.33333333,44
5f90ad46f0452619e18b1653,1,Sans F A,JELLY,naughty,Study2,U,JOL,7014,18,5530,naughty,100,45
5f90ad46f0452619e18b1653,1,Sans F A,ROSE,neglect,Study1,U,JOL,8486,27,3503,,0,46
5f90ad46f0452619e18b1653,1,Sans F A,DESIRE,noise,Study2,U,JOL_SF,3796,16,2578,,0,47
5f90ad46f0452619e18b1653,1,Sans F A,PUFF,number,Study2,U,JOL,3627,19,4791,fish,0,48
5f90ad46f0452619e18b1653,1,Sans F A,MEAT,obtain,Study1,U,JOL_SF,12851,30,2574,obtain,100,49
5f90ad46f0452619e18b1653,1,Sans F A,SMOOTH,omit,Study2,U,JOL_SF,2540,16,3515,slip,25,50
5f90ad46f0452619e18b1653,1,Sans F A,LAKE,opinion,Study2,U,JOL,5001,48,8241,,0,51
5f90ad46f0452619e18b1653,1,Sans F A,BOTH,ounce,Study1,U,JOL,5956,3,9821,,0,52
5f90ad46f0452619e18b1653,1,Sans F A,TAX,owl,Study1,U,JOL_SF,6599,4,6157,owl,100,53
5f90ad46f0452619e18b1653,1,Sans F A,HUNGRY,park,Study2,U,JOL,6720,9,4006,,0,54
5f90ad46f0452619e18b1653,1,Sans F A,DIFFICULT,poor,Study1,U,JOL_SF,7696,60,7816,poor,100,55
5f90ad46f0452619e18b1653,1,Sans F A,CLUTTER,pusher,Study2,U,JOL_SF,3900,28,20828,,0,56
5f90ad46f0452619e18b1653,1,Sans F A,CRAYON,rate,Study1,U,JOL_SF,8973,5,12309,pen,28.57142857,57
5f90ad46f0452619e18b1653,1,Sans F A,PUT,roll,Study2,U,JOL,5319,16,2927,,0,58
5f90ad46f0452619e18b1653,1,Sans F A,MAIN,scar,Study1,U,JOL,10068,8,15628,sour,50,59
5f90ad46f0452619e18b1653,1,Sans F A,ROAD,scent,Study2,U,JOL_SF,4996,33,5483,scent,100,60
5f90ad46f0452619e18b1653,1,Sans F A,WARN,sea,Study1,U,JOL_SF,6814,26,4746,sea,100,61
5f90ad46f0452619e18b1653,1,Sans F A,WASTE,sedate,Study2,U,JOL_SF,4543,55,3639,sedate,100,62
5f90ad46f0452619e18b1653,1,Sans F A,SHELL,shake,Study1,U,JOL,5107,75,19230,,0,63
5f90ad46f0452619e18b1653,1,Sans F A,BAT,shaky,Study1,U,JOL,8343,17,7769,hover,20,64
5f90ad46f0452619e18b1653,1,Sans F A,LOAN,sign,Study1,U,JOL,8729,8,10799,sign,100,65
5f90ad46f0452619e18b1653,1,Sans F A,FUTURE,sincere,Study1,U,JOL_SF,15323,17,4325,since,83.33333333,66
5f90ad46f0452619e18b1653,1,Sans F A,BELT,soon,Study2,U,JOL_SF,2615,5,5430,sad,28.57142857,67
5f90ad46f0452619e18b1653,1,Sans F A,GRIND,stand,Study1,U,JOL,9560,18,4945,,0,68
5f90ad46f0452619e18b1653,1,Sans F A,GIVE,steak,Study1,U,JOL_SF,7249,44,10764,steak,100,69
5f90ad46f0452619e18b1653,1,Sans F A,RIDDLE,sugar,Study2,U,JOL,3166,12,3175,,0,70
5f90ad46f0452619e18b1653,1,Sans F A,DIZZY,sweater,Study1,U,JOL_SF,3420,0,6778,bang,18.18181818,71
5f90ad46f0452619e18b1653,1,Sans F A,PARCEL,throat,Study1,U,JOL_SF,5834,3,4473,,0,72
5f90ad46f0452619e18b1653,1,Sans F A,ZOO,thumb,Study2,U,JOL,3305,19,8217,white,20,73
5f90ad46f0452619e18b1653,1,Sans F A,LEASE,toil,Study1,U,JOL_SF,9237,35,8906,sign,25,74
5f90ad46f0452619e18b1653,1,Sans F A,STOMACH,town,Study2,U,JOL,2680,4,9108,country,36.36363636,75
5f90ad46f0452619e18b1653,1,Sans F A,ADD,valley,Study2,U,JOL_SF,2688,20,3840,,0,76
5f90ad46f0452619e18b1653,1,Sans F A,RIPE,verify,Study1,U,JOL_SF,8632,25,5258,,0,77
5f90ad46f0452619e18b1653,1,Sans F A,MUTE,wave,Study2,U,JOL_SF,3054,3,3920,,0,78
5f90ad46f0452619e18b1653,1,Sans F A,GUARD,wheel,Study2,U,JOL_SF,4288,14,3872,rail,22.22222222,79
5f90ad46f0452619e18b1653,1,Sans F A,STRESS,yam,Study1,U,JOL_SF,7834,18,5860,,0,80
w10016360,1,Sans F A,CRACKLE,able,Study1,U,JOL,800,0,2341,popcorn,0,1
w10016360,1,Sans F A,TUCK,allow,Study2,U,JOL,628,0,1253,,0,2
w10016360,1,Sans F A,LION,art,Study2,U,JOL_SF,742,25,392,,0,3
w10016360,1,Sans F A,BRONZE,artery,Study2,U,JOL_SF,1504,50,1550,tan,22.22222222,4
w10016360,1,Sans F A,FUZZY,bang,Study1,U,JOL,1663,0,2033,warm,25,5
w10016360,1,Sans F A,SPELL,bone,Study2,U,JOL_SF,385,5,750,,0,6
w10016360,1,Sans F A,DEGREE,chair,Study1,U,JOL_SF,915,20,1989,plan,22.22222222,7
w10016360,1,Sans F A,VEHICLE,charm,Study1,U,JOL,2780,15,2145,car,75,8
w10016360,1,Sans F A,MIRROR,children,Study1,U,JOL,1650,20,2000,child,76.92307692,9
w10016360,1,Sans F A,MOAT,clear,Study1,U,JOL_SF,749,0,723,,0,10
w10016360,1,Sans F A,STRETCH,cloth,Study1,U,JOL,920,0,2001,clothe,90.90909091,11
w10016360,1,Sans F A,CAKE,clothes,Study1,U,JOL_SF,2670,25,1481,food,18.18181818,12
w10016360,1,Sans F A,THICK,contest,Study1,U,JOL_SF,416,NA,467,,0,13
w10016360,1,Sans F A,READY,corn,Study2,U,JOL,463,40,1495,not,28.57142857,14
w10016360,1,Sans F A,NULL,cough,Study2,U,JOL_SF,473,0,1018,,0,15
w10016360,1,Sans F A,Business,death,Study2,U,JOL,632,50,2265,casual,18.18181818,16
w10016360,1,Sans F A,SIGHT,debate,Study2,U,JOL_SF,522,40,362,,0,17
w10016360,1,Sans F A,SACKING,dietary,Study2,U,JOL,984,20,489,,0,18
w10016360,1,Sans F A,FLOOR,discover,Study2,U,JOL,533,40,333,,0,19
w10016360,1,Sans F A,INFLATE,disgust,Study1,U,JOL,828,15,1407,,0,20
w10016360,1,Sans F A,MAZE,election,Study1,U,JOL_SF,1130,0,1874,hard,0,21
w10016360,1,Sans F A,LISTEN,fiction,Study1,U,JOL,1233,20,729,,0,22
w10016360,1,Sans F A,HAND,fix,Study2,U,JOL_SF,627,40,551,,0,23
w10016360,1,Sans F A,SWING,fog,Study2,U,JOL_SF,893,0,189,,0,24
w10016360,1,Sans F A,DETECT,free,Study2,U,JOL,900,0,3195,,0,25
w10016360,1,Sans F A,RESIST,glue,Study1,U,JOL_SF,769,0,515,,0,26
w10016360,1,Sans F A,CAR,happy,Study2,U,JOL_SF,603,40,639,,0,27
w10016360,1,Sans F A,NUMBER,hard,Study1,U,JOL_SF,1538,20,897,,0,28
w10016360,1,Sans F A,FLOAT,harmony,Study2,U,JOL,576,0,450,,0,29
w10016360,1,Sans F A,NAME,hate,Study1,U,JOL_SF,1072,0,1291,anna,25,30
w10016360,1,Sans F A,SICK,hide,Study2,U,JOL,1147,0,469,,0,31
w10016360,1,Sans F A,BROAD,infect,Study1,U,JOL,1617,25,1313,,0,32
w10016360,1,Sans F A,KEYS,joke,Study1,U,JOL,958,0,1863,,0,33
w10016360,1,Sans F A,VASE,king,Study2,U,JOL_SF,523,0,1722,flowers,0,34
w10016360,1,Sans F A,SLIM,know,Study2,U,JOL,588,50,1988,jim,0,35
w10016360,1,Sans F A,SYSTEM,lick,Study2,U,JOL_SF,475,30,231,,0,36
w10016360,1,Sans F A,WOMAN,lift,Study2,U,JOL,690,20,2962,girl,25,37
w10016360,1,Sans F A,DONKEY,lush,Study1,U,JOL,1350,0,4323,animal,20,38
w10016360,1,Sans F A,POSITION,machine,Study2,U,JOL,1648,30,491,,0,39
w10016360,1,Sans F A,JUSTICE,maroon,Study1,U,JOL_SF,707,0,583,,0,40
w10016360,1,Sans F A,PET,moon,Study1,U,JOL,1307,0,1660,dog,28.57142857,41
w10016360,1,Sans F A,TEMPERATURE,morning,Study1,U,JOL,1549,50,1970,morning,100,42
w10016360,1,Sans F A,JELLY,naughty,Study2,U,JOL_SF,958,20,625,,0,43
w10016360,1,Sans F A,ROSE,neglect,Study1,U,JOL_SF,818,0,780,,0,44
w10016360,1,Sans F A,DESIRE,noise,Study2,U,JOL_SF,544,40,270,,0,45
w10016360,1,Sans F A,PUFF,number,Study2,U,JOL,1189,0,951,,0,46
w10016360,1,Sans F A,MEAT,obtain,Study1,U,JOL,1265,0,2380,give,20,47
w10016360,1,Sans F A,SMOOTH,omit,Study2,U,JOL,644,0,532,,0,48
w10016360,1,Sans F A,LAKE,opinion,Study2,U,JOL,632,0,2551,har,0,49
w10016360,1,Sans F A,BOTH,ounce,Study1,U,JOL,649,0,628,,0,50
w10016360,1,Sans F A,TAX,owl,Study1,U,JOL_SF,918,0,437,,0,51
w10016360,1,Sans F A,HUNGRY,park,Study2,U,JOL_SF,681,50,1857,dfood,0,52
w10016360,1,Sans F A,DIFFICULT,poor,Study1,U,JOL,2008,20,1660,poor,100,53
w10016360,1,Sans F A,CLUTTER,pusher,Study2,U,JOL,737,50,414,,0,54
w10016360,1,Sans F A,CRAYON,rate,Study1,U,JOL,881,0,1969,marker,40,55
w10016360,1,Sans F A,PUT,roll,Study2,U,JOL,945,10,421,,0,56
w10016360,1,Sans F A,MAIN,scar,Study1,U,JOL_SF,1041,25,878,,0,57
w10016360,1,Sans F A,ROAD,scent,Study2,U,JOL_SF,642,NA,714,,0,58
w10016360,1,Sans F A,WARN,sea,Study1,U,JOL,2285,50,761,,0,59
w10016360,1,Sans F A,WASTE,sedate,Study2,U,JOL_SF,903,25,1548,food,20,60
w10016360,1,Sans F A,SHELL,shake,Study1,U,JOL_SF,1141,0,773,,0,61
w10016360,1,Sans F A,BAT,shaky,Study1,U,JOL,924,30,501,,0,62
w10016360,1,Sans F A,LOAN,sign,Study1,U,JOL_SF,1043,0,1688,moneh,22.22222222,63
w10016360,1,Sans F A,FUTURE,sincere,Study1,U,JOL,1288,20,1898,plan,18.18181818,64
w10016360,1,Sans F A,BELT,soon,Study2,U,JOL_SF,1630,0,2515,pants,22.22222222,65
w10016360,1,Sans F A,GRIND,stand,Study1,U,JOL_SF,1075,0,477,,0,66
w10016360,1,Sans F A,GIVE,steak,Study1,U,JOL_SF,729,0,1795,take,66.66666667,67
w10016360,1,Sans F A,ACCIDENT,strong,Study2,U,JOL_SF,477,0,340,,0,68
w10016360,1,Sans F A,RIDDLE,sugar,Study2,U,JOL_SF,439,0,690,,0,69
w10016360,1,Sans F A,DIZZY,sweater,Study1,U,JOL_SF,625,0,535,,0,70
w10016360,1,Sans F A,PARCEL,throat,Study1,U,JOL_SF,703,0,537,,0,71
w10016360,1,Sans F A,ZOO,thumb,Study2,U,JOL,1885,20,3149,abunaks,16.66666667,72
w10016360,1,Sans F A,LEASE,toil,Study1,U,JOL_SF,2036,0,754,,0,73
w10016360,1,Sans F A,STOMACH,town,Study2,U,JOL,493,50,440,,0,74
w10016360,1,Sans F A,ADD,valley,Study2,U,JOL,1003,50,372,,0,75
w10016360,1,Sans F A,RIPE,verify,Study1,U,JOL,1144,0,915,,0,76
w10016360,1,Sans F A,MUTE,wave,Study2,U,JOL_SF,526,40,528,,0,77
w10016360,1,Sans F A,MUTE,wave,Study2,U,JOL_SF,496,40,465,,0,78
w10016360,1,Sans F A,GUARD,wheel,Study2,U,JOL,831,4,3805,protect,16.66666667,79
w10016360,1,Sans F A,STRESS,yam,Study1,U,JOL_SF,647,0,15535,,0,80
w10022439_mlr,1,Sans F A,CRACKLE,able,Study1,U,JOL,2726,0,1079,,0,1
w10022439_mlr,1,Sans F A,TUCK,allow,Study2,U,JOL_SF,1089,0,728,,0,2
w10022439_mlr,1,Sans F A,LION,art,Study2,U,JOL_SF,1138,0,644,,0,3
w10022439_mlr,1,Sans F A,BRONZE,artery,Study2,U,JOL,997,0,652,,0,4
w10022439_mlr,1,Sans F A,FUZZY,bang,Study1,U,JOL_SF,2566,0,1656,,0,5
w10022439_mlr,1,Sans F A,SPELL,bone,Study2,U,JOL_SF,1028,0,1372,,0,6
w10022439_mlr,1,Sans F A,WOULD,cash,Study2,U,JOL,1346,0,743,,0,7
w10022439_mlr,1,Sans F A,DEGREE,chair,Study1,U,JOL_SF,4258,0,2873,,0,8
w10022439_mlr,1,Sans F A,VEHICLE,charm,Study1,U,JOL_SF,3546,0,1000,,0,9
w10022439_mlr,1,Sans F A,MIRROR,children,Study1,U,JOL,3447,0,9668,children,100,10
w10022439_mlr,1,Sans F A,MOAT,clear,Study1,U,JOL_SF,1870,0,877,,0,11
w10022439_mlr,1,Sans F A,STRETCH,cloth,Study1,U,JOL_SF,4630,50,4245,,0,12
w10022439_mlr,1,Sans F A,CAKE,clothes,Study1,U,JOL,3834,6,721,,0,13
w10022439_mlr,1,Sans F A,THICK,contest,Study1,U,JOL,3455,0,1743,,0,14
w10022439_mlr,1,Sans F A,READY,corn,Study2,U,JOL,1548,0,734,,0,15
w10022439_mlr,1,Sans F A,NULL,cough,Study2,U,JOL,971,0,855,,0,16
w10022439_mlr,1,Sans F A,Business,death,Study2,U,JOL,1091,0,684,,0,17
w10022439_mlr,1,Sans F A,SIGHT,debate,Study2,U,JOL,3162,10,880,,0,18
w10022439_mlr,1,Sans F A,SACKING,dietary,Study2,U,JOL_SF,2051,0,814,,0,19
w10022439_mlr,1,Sans F A,FLOOR,discover,Study2,U,JOL,1651,0,1533,,0,20
w10022439_mlr,1,Sans F A,INFLATE,disgust,Study1,U,JOL_SF,2480,0,3170,,0,21
w10022439_mlr,1,Sans F A,MAZE,election,Study1,U,JOL_SF,2968,0,1499,,0,22
w10022439_mlr,1,Sans F A,LISTEN,fiction,Study1,U,JOL_SF,5498,50,730,,0,23
w10022439_mlr,1,Sans F A,HAND,fix,Study2,U,JOL_SF,1270,0,670,,0,24
w10022439_mlr,1,Sans F A,SWING,fog,Study2,U,JOL_SF,993,0,783,,0,25
w10022439_mlr,1,Sans F A,DETECT,free,Study2,U,JOL_SF,1925,0,674,,0,26
w10022439_mlr,1,Sans F A,RESIST,glue,Study1,U,JOL_SF,5989,8,825,,0,27
w10022439_mlr,1,Sans F A,CAR,happy,Study2,U,JOL,1785,0,3877,,0,28
w10022439_mlr,1,Sans F A,NUMBER,hard,Study1,U,JOL,3704,10,3138,,0,29
w10022439_mlr,1,Sans F A,FLOAT,harmony,Study2,U,JOL_SF,874,0,956,,0,30
w10022439_mlr,1,Sans F A,NAME,hate,Study1,U,JOL_SF,3368,0,761,,0,31
w10022439_mlr,1,Sans F A,SICK,hide,Study2,U,JOL_SF,1659,0,794,,0,32
w10022439_mlr,1,Sans F A,BROAD,infect,Study1,U,JOL,3771,0,2143,,0,33
w10022439_mlr,1,Sans F A,KEYS,joke,Study1,U,JOL,3968,0,1961,,0,34
w10022439_mlr,1,Sans F A,VASE,king,Study2,U,JOL,1172,0,1822,,0,35
w10022439_mlr,1,Sans F A,SLIM,know,Study2,U,JOL,995,0,1073,,0,36
w10022439_mlr,1,Sans F A,SYSTEM,lick,Study2,U,JOL_SF,1239,0,934,,0,37
w10022439_mlr,1,Sans F A,SYSTEM,lick,Study2,U,JOL_SF,1028,0,1347,,0,38
w10022439_mlr,1,Sans F A,WOMAN,lift,Study2,U,JOL,1992,0,2030,,0,39
w10022439_mlr,1,Sans F A,DONKEY,lush,Study1,U,JOL,2409,0,5375,,0,40
w10022439_mlr,1,Sans F A,POSITION,machine,Study2,U,JOL,1372,0,6802,catcher,57.14285714,41
w10022439_mlr,1,Sans F A,JUSTICE,maroon,Study1,U,JOL,3516,0,1769,,0,42
w10022439_mlr,1,Sans F A,PET,moon,Study1,U,JOL_SF,1888,0,1444,,0,43
w10022439_mlr,1,Sans F A,TEMPERATURE,morning,Study1,U,JOL_SF,4358,80,4713,morning,100,44
w10022439_mlr,1,Sans F A,JELLY,naughty,Study2,U,JOL_SF,1185,0,2860,,0,45
w10022439_mlr,1,Sans F A,ROSE,neglect,Study1,U,JOL_SF,2485,0,828,,0,46
w10022439_mlr,1,Sans F A,DESIRE,noise,Study2,U,JOL,1022,0,763,,0,47
w10022439_mlr,1,Sans F A,PUFF,number,Study2,U,JOL,1088,0,3002,,0,48
w10022439_mlr,1,Sans F A,MEAT,obtain,Study1,U,JOL_SF,3805,0,964,,0,49
w10022439_mlr,1,Sans F A,SMOOTH,omit,Study2,U,JOL_SF,1209,0,1218,,0,50
w10022439_mlr,1,Sans F A,LAKE,opinion,Study2,U,JOL,1373,0,878,,0,51
w10022439_mlr,1,Sans F A,BOTH,ounce,Study1,U,JOL,2556,0,699,,0,52
w10022439_mlr,1,Sans F A,TAX,owl,Study1,U,JOL,4880,4,816,,0,53
w10022439_mlr,1,Sans F A,HUNGRY,park,Study2,U,JOL,1579,0,1019,,0,54
w10022439_mlr,1,Sans F A,DIFFICULT,poor,Study1,U,JOL,4485,70,1288,,0,55
w10022439_mlr,1,Sans F A,CLUTTER,pusher,Study2,U,JOL_SF,1193,0,1305,,0,56
w10022439_mlr,1,Sans F A,CRAYON,rate,Study1,U,JOL_SF,4886,0,1240,,0,57
w10022439_mlr,1,Sans F A,PUT,roll,Study2,U,JOL_SF,1400,0,660,,0,58
w10022439_mlr,1,Sans F A,MAIN,scar,Study1,U,JOL,3354,0,949,,0,59
w10022439_mlr,1,Sans F A,ROAD,scent,Study2,U,JOL,1517,0,1138,,0,60
w10022439_mlr,1,Sans F A,WARN,sea,Study1,U,JOL_SF,4032,0,1582,,0,61
w10022439_mlr,1,Sans F A,WASTE,sedate,Study2,U,JOL_SF,1345,0,689,,0,62
w10022439_mlr,1,Sans F A,SHELL,shake,Study1,U,JOL,5776,35,2179,,0,63
w10022439_mlr,1,Sans F A,BAT,shaky,Study1,U,JOL,3163,5,4020,,0,64
w10022439_mlr,1,Sans F A,LOAN,sign,Study1,U,JOL_SF,3041,0,966,,0,65
w10022439_mlr,1,Sans F A,FUTURE,sincere,Study1,U,JOL,4130,10,2304,,0,66
w10022439_mlr,1,Sans F A,BELT,soon,Study2,U,JOL_SF,884,0,818,,0,67
w10022439_mlr,1,Sans F A,GRIND,stand,Study1,U,JOL_SF,3353,0,790,,0,68
w10022439_mlr,1,Sans F A,GIVE,steak,Study1,U,JOL,4588,5,2319,,0,69
w10022439_mlr,1,Sans F A,ACCIDENT,strong,Study2,U,JOL_SF,1468,0,760,,0,70
w10022439_mlr,1,Sans F A,RIDDLE,sugar,Study2,U,JOL_SF,1279,0,742,,0,71
w10022439_mlr,1,Sans F A,DIZZY,sweater,Study1,U,JOL,3492,0,1754,,0,72
w10022439_mlr,1,Sans F A,PARCEL,throat,Study1,U,JOL_SF,2871,0,808,,0,73
w10022439_mlr,1,Sans F A,ZOO,thumb,Study2,U,JOL,1112,0,1638,,0,74
w10022439_mlr,1,Sans F A,LEASE,toil,Study1,U,JOL,3146,0,679,,0,75
w10022439_mlr,1,Sans F A,STOMACH,town,Study2,U,JOL,1506,0,1419,,0,76
w10022439_mlr,1,Sans F A,ADD,valley,Study2,U,JOL_SF,1059,0,1260,,0,77
w10022439_mlr,1,Sans F A,RIPE,verify,Study1,U,JOL,6374,10,3646,,0,78
w10022439_mlr,1,Sans F A,GUARD,wheel,Study2,U,JOL,1103,0,827,,0,79
w10022439_mlr,1,Sans F A,STRESS,yam,Study1,U,JOL_SF,1988,0,1089,,0,80
w10069871,1,Sans F A,CRACKLE,able,Study1,U,JOL,6565,40,40579,shackle ,54.54545455,1
w10069871,1,Sans F A,TUCK,allow,Study2,U,JOL,5551,30,4077,roll,44.44444444,2
w10069871,1,Sans F A,LION,art,Study2,U,JOL,7106,70,5835,art,100,3
w10069871,1,Sans F A,BRONZE,artery,Study2,U,JOL_SF,4437,50,3041,artery,100,4
w10069871,1,Sans F A,FUZZY,bang,Study1,U,JOL_SF,4436,20,3310,socks,0,5
w10069871,1,Sans F A,SPELL,bone,Study2,U,JOL,7938,60,5040,bone,100,6
w10069871,1,Sans F A,WOULD,cash,Study2,U,JOL_SF,3604,30,2017,could,22.22222222,7
w10069871,1,Sans F A,DEGREE,chair,Study1,U,JOL,5505,20,34947,team,22.22222222,8
w10069871,1,Sans F A,VEHICLE,charm,Study1,U,JOL,3151,60,6509,charm,100,9
w10069871,1,Sans F A,MIRROR,children,Study1,U,JOL,3918,30,6338,children,100,10
w10069871,1,Sans F A,MOAT,clear,Study1,U,JOL,4820,30,5483,goat,22.22222222,11
w10069871,1,Sans F A,STRETCH,cloth,Study1,U,JOL_SF,5909,50,9659,wrench,36.36363636,12
w10069871,1,Sans F A,CAKE,clothes,Study1,U,JOL_SF,2841,40,4189,bake,18.18181818,13
w10069871,1,Sans F A,THICK,contest,Study1,U,JOL,18395,30,28356,meat,36.36363636,14
w10069871,1,Sans F A,READY,corn,Study2,U,JOL_SF,6161,50,9656,go,33.33333333,15
w10069871,1,Sans F A,NULL,cough,Study2,U,JOL_SF,4292,40,14661,broke,20,16
w10069871,1,Sans F A,Business,death,Study2,U,JOL_SF,15997,50,5886,death,100,17
w10069871,1,Sans F A,SIGHT,debate,Study2,U,JOL,3907,30,25025,see,44.44444444,18
w10069871,1,Sans F A,SACKING,dietary,Study2,U,JOL,8174,20,5454,potato,30.76923077,19
w10069871,1,Sans F A,FLOOR,discover,Study2,U,JOL,17671,40,41308,steady,28.57142857,20
w10069871,1,Sans F A,INFLATE,disgust,Study1,U,JOL_SF,4293,50,15453,investigate,33.33333333,21
w10069871,1,Sans F A,MAZE,election,Study1,U,JOL,6214,50,11578,politics,37.5,22
w10069871,1,Sans F A,LISTEN,fiction,Study1,U,JOL,4231,70,7385,ear,0,23
w10069871,1,Sans F A,HAND,fix,Study2,U,JOL_SF,7033,60,4937,fix,100,24
w10069871,1,Sans F A,HAND,fix,Study2,U,JOL_SF,6768,50,1784,fix,100,25
w10069871,1,Sans F A,SWING,fog,Study2,U,JOL_SF,6585,50,6951,seat,0,26
w10069871,1,Sans F A,RESIST,glue,Study1,U,JOL_SF,7129,40,4087,arrest,20,27
w10069871,1,Sans F A,CAR,happy,Study2,U,JOL,7930,70,4737,happy,100,28
w10069871,1,Sans F A,NUMBER,hard,Study1,U,JOL_SF,4718,40,11358,hard,100,29
w10069871,1,Sans F A,FLOAT,harmony,Study2,U,JOL_SF,22755,30,3636,water,33.33333333,30
w10069871,1,Sans F A,NAME,hate,Study1,U,JOL_SF,3850,70,3901,hate,100,31
w10069871,1,Sans F A,SICK,hide,Study2,U,JOL,8692,40,6916,baby,0,32
w10069871,1,Sans F A,BROAD,infect,Study1,U,JOL_SF,5927,20,7248,scope,18.18181818,33
w10069871,1,Sans F A,KEYS,joke,Study1,U,JOL,4641,50,22422,silver,20,34
w10069871,1,Sans F A,VASE,king,Study2,U,JOL_SF,4625,50,3379,flower,0,35
w10069871,1,Sans F A,SLIM,know,Study2,U,JOL,5109,30,5132,trim,0,36
w10069871,1,Sans F A,SYSTEM,lick,Study2,U,JOL_SF,12732,30,3331,error,0,37
w10069871,1,Sans F A,WOMAN,lift,Study2,U,JOL_SF,5437,60,2755,strong,20,38
w10069871,1,Sans F A,DONKEY,lush,Study1,U,JOL_SF,3834,30,24988,chunky,20,39
w10069871,1,Sans F A,POSITION,machine,Study2,U,JOL_SF,4209,30,10377,place,50,40
w10069871,1,Sans F A,JUSTICE,maroon,Study1,U,JOL,8321,70,3600,maroon,100,41
w10069871,1,Sans F A,PET,moon,Study1,U,JOL_SF,9435,50,15498,friend,20,42
w10069871,1,Sans F A,TEMPERATURE,morning,Study1,U,JOL_SF,5240,70,4118,morning,100,43
w10069871,1,Sans F A,JELLY,naughty,Study2,U,JOL_SF,162792,40,22436,roll,0,44
w10069871,1,Sans F A,ROSE,neglect,Study1,U,JOL_SF,2666,20,12955,worn,18.18181818,45
w10069871,1,Sans F A,DESIRE,noise,Study2,U,JOL,5358,40,13353,want,22.22222222,46
w10069871,1,Sans F A,PUFF,number,Study2,U,JOL,11910,30,4445,powder,33.33333333,47
w10069871,1,Sans F A,MEAT,obtain,Study1,U,JOL_SF,4779,60,51332,eeat,20,48
w10069871,1,Sans F A,SMOOTH,omit,Study2,U,JOL_SF,4408,30,21152,butter,20,49
w10069871,1,Sans F A,LAKE,opinion,Study2,U,JOL_SF,9388,40,4891,water,0,50
w10069871,1,Sans F A,BOTH,ounce,Study1,U,JOL_SF,3847,40,7134,hand,22.22222222,51
w10069871,1,Sans F A,TAX,owl,Study1,U,JOL,5765,30,127177,money,25,52
w10069871,1,Sans F A,HUNGRY,park,Study2,U,JOL,10038,50,10856,sandwhich,15.38461538,53
w10069871,1,Sans F A,DIFFICULT,poor,Study1,U,JOL,2901,70,30327,hard,25,54
w10069871,1,Sans F A,CLUTTER,pusher,Study2,U,JOL,10679,50,17795,room,20,55
w10069871,1,Sans F A,CRAYON,rate,Study1,U,JOL,4823,20,35034,gem,28.57142857,56
w10069871,1,Sans F A,PUT,roll,Study2,U,JOL,6014,40,8491,together,16.66666667,57
w10069871,1,Sans F A,MAIN,scar,Study1,U,JOL,6771,50,85709,tree,25,58
w10069871,1,Sans F A,ROAD,scent,Study2,U,JOL,4421,30,8370,trip,22.22222222,59
w10069871,1,Sans F A,WARN,sea,Study1,U,JOL,4742,20,6121,torn,0,60
w10069871,1,Sans F A,WASTE,sedate,Study2,U,JOL_SF,13107,50,5940,sedate,100,61
w10069871,1,Sans F A,SHELL,shake,Study1,U,JOL_SF,5289,60,4103,shock,60,62
w10069871,1,Sans F A,BAT,shaky,Study1,U,JOL,7524,40,30746,jittery,16.66666667,63
w10069871,1,Sans F A,LOAN,sign,Study1,U,JOL,4366,20,8036,house,22.22222222,64
w10069871,1,Sans F A,FUTURE,sincere,Study1,U,JOL,3843,40,90688,sincere,100,65
w10069871,1,Sans F A,BELT,soon,Study2,U,JOL_SF,3345,30,2943,seat,25,66
w10069871,1,Sans F A,GRIND,stand,Study1,U,JOL_SF,5381,40,6065,stand,100,67
w10069871,1,Sans F A,GIVE,steak,Study1,U,JOL,7235,50,4081,take,66.66666667,68
w10069871,1,Sans F A,ACCIDENT,strong,Study2,U,JOL,14573,50,6003,strong,100,69
w10069871,1,Sans F A,RIDDLE,sugar,Study2,U,JOL,4023,40,6447,baby,22.22222222,70
w10069871,1,Sans F A,DIZZY,sweater,Study1,U,JOL_SF,10176,40,39678,treat,50,71
w10069871,1,Sans F A,PARCEL,throat,Study1,U,JOL_SF,4553,30,7036,terminal,42.85714286,72
w10069871,1,Sans F A,ZOO,thumb,Study2,U,JOL_SF,4304,40,4789,fun,25,73
w10069871,1,Sans F A,LEASE,toil,Study1,U,JOL_SF,4949,0,4563,rent,25,74
w10069871,1,Sans F A,STOMACH,town,Study2,U,JOL,4250,50,5655,pain,25,75
w10069871,1,Sans F A,ADD,valley,Study2,U,JOL,4703,40,4741,subtract,14.28571429,76
w10069871,1,Sans F A,RIPE,verify,Study1,U,JOL,4490,40,12184,tomato,0,77
w10069871,1,Sans F A,MUTE,wave,Study2,U,JOL_SF,12935,40,7149,way,57.14285714,78
w10069871,1,Sans F A,GUARD,wheel,Study2,U,JOL,10105,40,211721,jail,22.22222222,79
w10069871,1,Sans F A,STRESS,yam,Study1,U,JOL_SF,13531,20,30611,reliever,0,80
w10070266_SELA,1,Sans F A,CRACKLE,able,Study1,U,JOL_SF,1822,11,2086,,0,1
w10070266_SELA,1,Sans F A,TUCK,allow,Study2,U,JOL,1640,12,2325,car,25,2
w10070266_SELA,1,Sans F A,LION,art,Study2,U,JOL,3008,80,2519,art,100,3
w10070266_SELA,1,Sans F A,BRONZE,artery,Study2,U,JOL,917,16,3162,medal,18.18181818,4
w10070266_SELA,1,Sans F A,FUZZY,bang,Study1,U,JOL_SF,3741,1,5471,orange,60,5
w10070266_SELA,1,Sans F A,SPELL,bone,Study2,U,JOL_SF,2138,900,1808,,0,6
w10070266_SELA,1,Sans F A,WOULD,cash,Study2,U,JOL_SF,2367,56,1525,,0,7
w10070266_SELA,1,Sans F A,WOULD,cash,Study2,U,JOL_SF,2030,19,1381,,0,8
w10070266_SELA,1,Sans F A,DEGREE,chair,Study1,U,JOL_SF,4059,6,4394,hard,66.66666667,9
w10070266_SELA,1,Sans F A,VEHICLE,charm,Study1,U,JOL_SF,2785,14,1868,car,75,10
w10070266_SELA,1,Sans F A,MIRROR,children,Study1,U,JOL_SF,2283,4,2355,child,76.92307692,11
w10070266_SELA,1,Sans F A,MOAT,clear,Study1,U,JOL,2427,47,2382,boat,22.22222222,12
w10070266_SELA,1,Sans F A,STRETCH,cloth,Study1,U,JOL_SF,3250,78,2439,cloth,100,13
w10070266_SELA,1,Sans F A,CAKE,clothes,Study1,U,JOL,2012,3,3467,,0,14
w10070266_SELA,1,Sans F A,THICK,contest,Study1,U,JOL_SF,3695,16,665,,0,15
w10070266_SELA,1,Sans F A,READY,corn,Study2,U,JOL,871,5,1834,set,0,16
w10070266_SELA,1,Sans F A,NULL,cough,Study2,U,JOL_SF,1730,15,1741,,0,17
w10070266_SELA,1,Sans F A,Business,death,Study2,U,JOL,5776,9,4556,loan,22.22222222,18
w10070266_SELA,1,Sans F A,SIGHT,debate,Study2,U,JOL,1486,95,1744,see,44.44444444,19
w10070266_SELA,1,Sans F A,SACKING,dietary,Study2,U,JOL,1061,2,2017,,0,20
w10070266_SELA,1,Sans F A,FLOOR,discover,Study2,U,JOL,975,14,3944,ditr,50,21
w10070266_SELA,1,Sans F A,INFLATE,disgust,Study1,U,JOL_SF,2449,2,2459,blow,0,22
w10070266_SELA,1,Sans F A,MAZE,election,Study1,U,JOL_SF,3320,18,3450,election,100,23
w10070266_SELA,1,Sans F A,LISTEN,fiction,Study1,U,JOL_SF,1858,28,1955,hear,0,24
w10070266_SELA,1,Sans F A,HAND,fix,Study2,U,JOL_SF,2663,98,2109,fix,100,25
w10070266_SELA,1,Sans F A,SWING,fog,Study2,U,JOL_SF,2690,75,2685,plau,0,26
w10070266_SELA,1,Sans F A,DETECT,free,Study2,U,JOL_SF,3501,19,962,,0,27
w10070266_SELA,1,Sans F A,RESIST,glue,Study1,U,JOL,2739,12,1442,,0,28
w10070266_SELA,1,Sans F A,CAR,happy,Study2,U,JOL_SF,2027,25,3751,excited,0,29
w10070266_SELA,1,Sans F A,NUMBER,hard,Study1,U,JOL,3956,75,8243,challenge,30.76923077,30
w10070266_SELA,1,Sans F A,FLOAT,harmony,Study2,U,JOL_SF,1823,0,850,,0,31
w10070266_SELA,1,Sans F A,NAME,hate,Study1,U,JOL,3261,13,1223,,0,32
w10070266_SELA,1,Sans F A,SICK,hide,Study2,U,JOL_SF,4539,45,1343,,0,33
w10070266_SELA,1,Sans F A,BROAD,infect,Study1,U,JOL,2689,29,2183,,0,34
w10070266_SELA,1,Sans F A,KEYS,joke,Study1,U,JOL,1784,33,1013,,0,35
w10070266_SELA,1,Sans F A,VASE,king,Study2,U,JOL,986,16,3164,,0,36
w10070266_SELA,1,Sans F A,SLIM,know,Study2,U,JOL,1276,3,2009,fit,0,37
w10070266_SELA,1,Sans F A,SYSTEM,lick,Study2,U,JOL,1260,75,3624,digest,20,38
w10070266_SELA,1,Sans F A,WOMAN,lift,Study2,U,JOL,1813,46,2117,man,0,39
w10070266_SELA,1,Sans F A,DONKEY,lush,Study1,U,JOL,1939,0,2432,,0,40
w10070266_SELA,1,Sans F A,POSITION,machine,Study2,U,JOL_SF,2333,0,3624,election,13.33333333,41
w10070266_SELA,1,Sans F A,JUSTICE,maroon,Study1,U,JOL,3974,23,1550,,0,42
w10070266_SELA,1,Sans F A,PET,moon,Study1,U,JOL,2904,5,1060,,0,43
w10070266_SELA,1,Sans F A,TEMPERATURE,morning,Study1,U,JOL_SF,4403,97,2234,morning,100,44
w10070266_SELA,1,Sans F A,JELLY,naughty,Study2,U,JOL_SF,1770,45,946,,0,45
w10070266_SELA,1,Sans F A,ROSE,neglect,Study1,U,JOL_SF,4528,15,1063,,0,46
w10070266_SELA,1,Sans F A,DESIRE,noise,Study2,U,JOL_SF,3861,26,792,,0,47
w10070266_SELA,1,Sans F A,PUFF,number,Study2,U,JOL_SF,7984,10,3075,smolke,33.33333333,48
w10070266_SELA,1,Sans F A,MEAT,obtain,Study1,U,JOL_SF,1744,15,2038,loaf,40,49
w10070266_SELA,1,Sans F A,SMOOTH,omit,Study2,U,JOL_SF,1628,12,5325,stomach,36.36363636,50
w10070266_SELA,1,Sans F A,LAKE,opinion,Study2,U,JOL,1626,6,2264,house,16.66666667,51
w10070266_SELA,1,Sans F A,BOTH,ounce,Study1,U,JOL_SF,5625,50,776,,0,52
w10070266_SELA,1,Sans F A,TAX,owl,Study1,U,JOL,4882,89,2782,owl,100,53
w10070266_SELA,1,Sans F A,HUNGRY,park,Study2,U,JOL_SF,2232,46,3300,park,100,54
w10070266_SELA,1,Sans F A,DIFFICULT,poor,Study1,U,JOL,5027,92,3013,poor,100,55
w10070266_SELA,1,Sans F A,CLUTTER,pusher,Study2,U,JOL,2579,16,2906,house,54.54545455,56
w10070266_SELA,1,Sans F A,CRAYON,rate,Study1,U,JOL_SF,3850,11,2658,collor,20,57
w10070266_SELA,1,Sans F A,PUT,roll,Study2,U,JOL,1553,75,769,,0,58
w10070266_SELA,1,Sans F A,MAIN,scar,Study1,U,JOL,2211,16,5218,take,25,59
w10070266_SELA,1,Sans F A,ROAD,scent,Study2,U,JOL_SF,1847,16,6121,lines,20,60
w10070266_SELA,1,Sans F A,WARN,sea,Study1,U,JOL,4789,84,4482,tell,28.57142857,61
w10070266_SELA,1,Sans F A,SHELL,shake,Study1,U,JOL,3449,69,2187,snake,80,62
w10070266_SELA,1,Sans F A,BAT,shaky,Study1,U,JOL,5295,45,1879,,0,63
w10070266_SELA,1,Sans F A,LOAN,sign,Study1,U,JOL_SF,3756,87,3824,borrow,0,64
w10070266_SELA,1,Sans F A,FUTURE,sincere,Study1,U,JOL,5961,0,1980,,0,65
w10070266_SELA,1,Sans F A,BELT,soon,Study2,U,JOL,1479,75,2519,pants,22.22222222,66
w10070266_SELA,1,Sans F A,GRIND,stand,Study1,U,JOL_SF,4373,77,742,,0,67
w10070266_SELA,1,Sans F A,GIVE,steak,Study1,U,JOL_SF,6364,6,3408,take,66.66666667,68
w10070266_SELA,1,Sans F A,ACCIDENT,strong,Study2,U,JOL,3672,12,2016,,0,69
w10070266_SELA,1,Sans F A,RIDDLE,sugar,Study2,U,JOL,2634,75,2553,,0,70
w10070266_SELA,1,Sans F A,DIZZY,sweater,Study1,U,JOL,4169,43,7050,head,36.36363636,71
w10070266_SELA,1,Sans F A,PARCEL,throat,Study1,U,JOL,1848,13,875,,0,72
w10070266_SELA,1,Sans F A,ZOO,thumb,Study2,U,JOL_SF,1580,3,2528,fun,25,73
w10070266_SELA,1,Sans F A,LEASE,toil,Study1,U,JOL_SF,2890,16,3212,toil,100,74
w10070266_SELA,1,Sans F A,STOMACH,town,Study2,U,JOL_SF,3018,16,2979,ache,0,75
w10070266_SELA,1,Sans F A,ADD,valley,Study2,U,JOL,880,4,2555,math,20,76
w10070266_SELA,1,Sans F A,RIPE,verify,Study1,U,JOL_SF,3651,16,1531,,0,77
w10070266_SELA,1,Sans F A,MUTE,wave,Study2,U,JOL,1229,85,813,,0,78
w10070266_SELA,1,Sans F A,GUARD,wheel,Study2,U,JOL_SF,2361,94,5268,,0,79
w10070266_SELA,1,Sans F A,STRESS,yam,Study1,U,JOL,3052,0,1511,,0,80
W10080298,1,Sans F A,CRACKLE,able,Study1,U,JOL,10252,10,3562,able,100,1
W10080298,1,Sans F A,TUCK,allow,Study2,U,JOL_SF,6688,5,4708,allow,100,2
W10080298,1,Sans F A,LION,art,Study2,U,JOL,3562,65,2349,art,100,3
W10080298,1,Sans F A,BRONZE,artery,Study2,U,JOL_SF,3866,2,5710,artery,100,4
W10080298,1,Sans F A,FUZZY,bang,Study1,U,JOL_SF,3690,25,4047,,0,5
W10080298,1,Sans F A,SPELL,bone,Study2,U,JOL,4473,2,4945,bone,100,6
W10080298,1,Sans F A,WOULD,cash,Study2,U,JOL_SF,3650,7,2318,cash,100,7
W10080298,1,Sans F A,DEGREE,chair,Study1,U,JOL_SF,5573,1,5902,loss,0,8
W10080298,1,Sans F A,VEHICLE,charm,Study1,U,JOL,5131,50,3257,charm,100,9
W10080298,1,Sans F A,MIRROR,children,Study1,U,JOL_SF,6911,75,3800,children,100,10
W10080298,1,Sans F A,MOAT,clear,Study1,U,JOL_SF,4420,65,3719,clear,100,11
W10080298,1,Sans F A,STRETCH,cloth,Study1,U,JOL_SF,7912,48,3320,cloth,100,12
W10080298,1,Sans F A,CAKE,clothes,Study1,U,JOL_SF,4983,25,5441,,0,13
W10080298,1,Sans F A,THICK,contest,Study1,U,JOL_SF,5366,1,3766,,0,14
W10080298,1,Sans F A,READY,corn,Study2,U,JOL,3183,1,6887,,0,15
W10080298,1,Sans F A,NULL,cough,Study2,U,JOL,3383,1,5893,choke,40,16
W10080298,1,Sans F A,Business,death,Study2,U,JOL_SF,16468,30,2409,death,100,17
W10080298,1,Sans F A,Business,death,Study2,U,JOL_SF,7447,3,4232,death,100,18
W10080298,1,Sans F A,SIGHT,debate,Study2,U,JOL_SF,4576,30,4239,debate,100,19
W10080298,1,Sans F A,SACKING,dietary,Study2,U,JOL_SF,5560,11,7874,,0,20
W10080298,1,Sans F A,FLOOR,discover,Study2,U,JOL,2654,6,3338,,0,21
W10080298,1,Sans F A,INFLATE,disgust,Study1,U,JOL,3516,1,6973,disgust,100,22
W10080298,1,Sans F A,MAZE,election,Study1,U,JOL,6400,40,5452,election,100,23
W10080298,1,Sans F A,LISTEN,fiction,Study1,U,JOL,4035,75,5856,hear,0,24
W10080298,1,Sans F A,HAND,fix,Study2,U,JOL,3567,65,2044,fix,100,25
W10080298,1,Sans F A,SWING,fog,Study2,U,JOL_SF,2905,1,3409,,0,26
W10080298,1,Sans F A,DETECT,free,Study2,U,JOL_SF,2821,3,2062,,0,27
W10080298,1,Sans F A,RESIST,glue,Study1,U,JOL_SF,6255,65,5848,,0,28
W10080298,1,Sans F A,CAR,happy,Study2,U,JOL_SF,3540,95,2260,happy,100,29
W10080298,1,Sans F A,NUMBER,hard,Study1,U,JOL_SF,8597,80,5289,hard,100,30
W10080298,1,Sans F A,FLOAT,harmony,Study2,U,JOL,4301,4,5102,,0,31
W10080298,1,Sans F A,NAME,hate,Study1,U,JOL_SF,4096,50,5097,hate,100,32
W10080298,1,Sans F A,SICK,hide,Study2,U,JOL,38133,65,2350,hide,100,33
W10080298,1,Sans F A,BROAD,infect,Study1,U,JOL,3323,6,3987,,0,34
W10080298,1,Sans F A,KEYS,joke,Study1,U,JOL_SF,5301,60,8062,joke,100,35
W10080298,1,Sans F A,VASE,king,Study2,U,JOL,6314,50,2544,king,100,36
W10080298,1,Sans F A,SLIM,know,Study2,U,JOL,2550,1,3377,know,100,37
W10080298,1,Sans F A,SYSTEM,lick,Study2,U,JOL,3881,8,3164,,0,38
W10080298,1,Sans F A,WOMAN,lift,Study2,U,JOL,4729,88,3136,lift,100,39
W10080298,1,Sans F A,DONKEY,lush,Study1,U,JOL_SF,4445,2,3018,lush,100,40
W10080298,1,Sans F A,POSITION,machine,Study2,U,JOL,4626,12,2649,,0,41
W10080298,1,Sans F A,JUSTICE,maroon,Study1,U,JOL_SF,7550,5,9143,maroon,100,42
W10080298,1,Sans F A,PET,moon,Study1,U,JOL,8383,65,4356,moon,100,43
W10080298,1,Sans F A,TEMPERATURE,morning,Study1,U,JOL_SF,10800,30,3713,morning,100,44
W10080298,1,Sans F A,JELLY,naughty,Study2,U,JOL,2892,1,3267,naughty,100,45
W10080298,1,Sans F A,ROSE,neglect,Study1,U,JOL,4938,60,4371,neglect,100,46
W10080298,1,Sans F A,DESIRE,noise,Study2,U,JOL_SF,4489,10,3833,,0,47
W10080298,1,Sans F A,MEAT,obtain,Study1,U,JOL,5548,5,9245,obtain,100,48
W10080298,1,Sans F A,SMOOTH,omit,Study2,U,JOL_SF,3625,45,8615,,0,49
W10080298,1,Sans F A,LAKE,opinion,Study2,U,JOL_SF,3356,4,4892,opinion,100,50
W10080298,1,Sans F A,BOTH,ounce,Study1,U,JOL,6982,4,3802,,0,51
W10080298,1,Sans F A,TAX,owl,Study1,U,JOL_SF,5655,2,3072,,0,52
W10080298,1,Sans F A,HUNGRY,park,Study2,U,JOL,4028,10,5845,,0,53
W10080298,1,Sans F A,DIFFICULT,poor,Study1,U,JOL_SF,5328,3,9157,,0,54
W10080298,1,Sans F A,CLUTTER,pusher,Study2,U,JOL,2485,1,3304,pusher,100,55
W10080298,1,Sans F A,CRAYON,rate,Study1,U,JOL_SF,5779,10,2490,rate,100,56
W10080298,1,Sans F A,PUT,roll,Study2,U,JOL_SF,3576,6,2216,,0,57
W10080298,1,Sans F A,MAIN,scar,Study1,U,JOL,6531,5,9443,loft,0,58
W10080298,1,Sans F A,ROAD,scent,Study2,U,JOL_SF,7870,40,6260,,0,59
W10080298,1,Sans F A,WARN,sea,Study1,U,JOL,3941,25,5529,,0,60
W10080298,1,Sans F A,WASTE,sedate,Study2,U,JOL,3401,1,4232,sedate,100,61
W10080298,1,Sans F A,SHELL,shake,Study1,U,JOL,7021,11,3697,shake,100,62
W10080298,1,Sans F A,BAT,shaky,Study1,U,JOL,8464,60,9228,shaky,100,63
W10080298,1,Sans F A,LOAN,sign,Study1,U,JOL,5068,75,4388,sign,100,64
W10080298,1,Sans F A,FUTURE,sincere,Study1,U,JOL,4293,24,4682,sincere,100,65
W10080298,1,Sans F A,BELT,soon,Study2,U,JOL,3892,3,2299,soon,100,66
W10080298,1,Sans F A,GRIND,stand,Study1,U,JOL_SF,6274,2,7276,meat,22.22222222,67
W10080298,1,Sans F A,GIVE,steak,Study1,U,JOL_SF,5755,10,7228,take,66.66666667,68
W10080298,1,Sans F A,ACCIDENT,strong,Study2,U,JOL,5459,2,1909,,0,69
W10080298,1,Sans F A,RIDDLE,sugar,Study2,U,JOL_SF,4555,35,3041,sugar,100,70
W10080298,1,Sans F A,DIZZY,sweater,Study1,U,JOL_SF,3850,1,6503,sweater,100,71
W10080298,1,Sans F A,PARCEL,throat,Study1,U,JOL,7176,20,4109,throat,100,72
W10080298,1,Sans F A,ZOO,thumb,Study2,U,JOL_SF,5277,3,2794,thumb,100,73
W10080298,1,Sans F A,LEASE,toil,Study1,U,JOL,7841,1,6948,lost,25,74
W10080298,1,Sans F A,STOMACH,town,Study2,U,JOL,2081,1,10086,,0,75
W10080298,1,Sans F A,ADD,valley,Study2,U,JOL_SF,4950,86,4361,,0,76
W10080298,1,Sans F A,RIPE,verify,Study1,U,JOL,3706,5,15711,,0,77
W10080298,1,Sans F A,MUTE,wave,Study2,U,JOL_SF,3520,2,2735,wave,100,78
W10080298,1,Sans F A,GUARD,wheel,Study2,U,JOL_SF,2549,2,2645,wheel,100,79
W10080298,1,Sans F A,STRESS,yam,Study1,U,JOL,7822,1,7519,,0,80
