"Trial.ID","Sub.ID","Condition.Number","Condition.Description","Stimuli.Cue","Stimuli.Answer","Stimuli.Shuffle","Stimuli.Stimuli.Notes","Procedure.Trial.Type","JOL.RT","Response.JOL","Response.RT.1","Responses","Response.Accuracy","Answer","Scored"
1,"5cf1a1b1c0d98b00196ea8c8",3,"Control A","BAT","shaky","Study1","U","JOL",9818,"41",29072,"wing",0,"shaky",0
2,"5cf1a1b1c0d98b00196ea8c8",3,"Control A","BOTH","ounce","Study1","U","JOL",16565,"39",15905,"angle",40,"ounce",0
3,"5cf1a1b1c0d98b00196ea8c8",3,"Control A","BROAD","infect","Study1","U","JOL",9846,"42",24772,"simple",33.333333333333,"infect",0
4,"5cf1a1b1c0d98b00196ea8c8",3,"Control A","CAKE","clothes","Study1","U","JOL",15956,"9",32590,"week",18.181818181818,"clothes",0
5,"5cf1a1b1c0d98b00196ea8c8",3,"Control A","CRACKLE","able","Study1","U","JOL",15261,"49",10573,"able",100,"able",1
6,"5cf1a1b1c0d98b00196ea8c8",3,"Control A","CRAYON","rate","Study1","U","JOL",21681,"9",30668,"sky",0,"rate",0
7,"5cf1a1b1c0d98b00196ea8c8",3,"Control A","DEGREE","chair","Study1","U","JOL",24943,"33",41833,"angle",20,"chair",0
8,"5cf1a1b1c0d98b00196ea8c8",3,"Control A","DIFFICULT","poor","Study1","U","JOL",9222,"50",5531,"poor",100,"poor",1
9,"5cf1a1b1c0d98b00196ea8c8",3,"Control A","DIZZY","sweater","Study1","U","JOL",35089,"11",11900,"land",18.181818181818,"sweater",0
10,"5cf1a1b1c0d98b00196ea8c8",3,"Control A","DONKEY","lush","Study1","U","JOL",17063,"7",27519,"carry",0,"lush",0
11,"5cf1a1b1c0d98b00196ea8c8",3,"Control A","FUTURE","sincere","Study1","U","JOL",15151,"32",21208,"science",71.428571428571,"sincere",0
12,"5cf1a1b1c0d98b00196ea8c8",3,"Control A","FUZZY","bang","Study1","U","JOL",11827,"31",20921,"entrance",33.333333333333,"bang",0
13,"5cf1a1b1c0d98b00196ea8c8",3,"Control A","GIVE","steak","Study1","U","JOL",11079,"37",30071,"thank",60,"steak",0
14,"5cf1a1b1c0d98b00196ea8c8",3,"Control A","GRIND","stand","Study1","U","JOL",17676,"58",13052,"system",36.363636363636,"stand",0
15,"5cf1a1b1c0d98b00196ea8c8",3,"Control A","INFLATE","disgust","Study1","U","JOL",18523,"27",11814,"cash",18.181818181818,"disgust",0
16,"5cf1a1b1c0d98b00196ea8c8",3,"Control A","JUSTICE","maroon","Study1","U","JOL",17083,"39",40968,"gap",22.222222222222,"maroon",0
17,"5cf1a1b1c0d98b00196ea8c8",3,"Control A","KEYS","joke","Study1","U","JOL",17543,"62",8121,"trees",22.222222222222,"joke",0
18,"5cf1a1b1c0d98b00196ea8c8",3,"Control A","LEASE","toil","Study1","U","JOL",14541,"2",23117,"bat",28.571428571429,"toil",0
19,"5cf1a1b1c0d98b00196ea8c8",3,"Control A","LISTEN","fiction","Study1","U","JOL",12515,"45",22209,"sound",33.333333333333,"fiction",0
20,"5cf1a1b1c0d98b00196ea8c8",3,"Control A","LOAN","sign","Study1","U","JOL",19342,"21",28289,"save",25,"sign",0
21,"5cf1a1b1c0d98b00196ea8c8",3,"Control A","MAIN","scar","Study1","U","JOL",18541,"21",6480,"event",0,"scar",0
22,"5cf1a1b1c0d98b00196ea8c8",3,"Control A","MAZE","election","Study1","U","JOL",20625,"46",9070,"election",100,"election",1
23,"5cf1a1b1c0d98b00196ea8c8",3,"Control A","MEAT","obtain","Study1","U","JOL",9696,"13",15707,"shoe",20,"obtain",0
24,"5cf1a1b1c0d98b00196ea8c8",3,"Control A","MIRROR","children","Study1","U","JOL",13714,"52",6314,"children",100,"children",1
25,"5cf1a1b1c0d98b00196ea8c8",3,"Control A","MOAT","clear","Study1","U","JOL",15347,"71",4965,"clear",100,"clear",1
26,"5cf1a1b1c0d98b00196ea8c8",3,"Control A","NAME","hate","Study1","U","JOL",16464,"45",31761,"character",61.538461538462,"hate",0
27,"5cf1a1b1c0d98b00196ea8c8",3,"Control A","NUMBER","hard","Study1","U","JOL",25835,"67",10295,"three",44.444444444444,"hard",0
28,"5cf1a1b1c0d98b00196ea8c8",3,"Control A","PARCEL","throat","Study1","U","JOL",13255,"1",26539,"label",18.181818181818,"throat",0
29,"5cf1a1b1c0d98b00196ea8c8",3,"Control A","PET","moon","Study1","U","JOL",11457,"52",32769,"camp",25,"moon",0
30,"5cf1a1b1c0d98b00196ea8c8",3,"Control A","RESIST","glue","Study1","U","JOL",9325,"66",15526,"ripe",25,"glue",0
31,"5cf1a1b1c0d98b00196ea8c8",3,"Control A","RIPE","verify","Study1","U","JOL",22906,"44",16437,"meat",20,"verify",0
32,"5cf1a1b1c0d98b00196ea8c8",3,"Control A","ROSE","neglect","Study1","U","JOL",14777,"10",39363,"lax",20,"neglect",0
33,"5cf1a1b1c0d98b00196ea8c8",3,"Control A","SHELL","shake","Study1","U","JOL",16104,"59",8953,"shill",40,"shake",0
34,"5cf1a1b1c0d98b00196ea8c8",3,"Control A","STRESS","yam","Study1","U","JOL",12957,"3",14094,"continue",0,"yam",0
35,"5cf1a1b1c0d98b00196ea8c8",3,"Control A","STRETCH","cloth","Study1","U","JOL",10852,"61",15323,"home",22.222222222222,"cloth",0
36,"5cf1a1b1c0d98b00196ea8c8",3,"Control A","TAX","owl","Study1","U","JOL",14362,"44",25214,"payment",0,"owl",0
37,"5cf1a1b1c0d98b00196ea8c8",3,"Control A","TEMPERATURE","morning","Study1","U","JOL",11808,"53",17700,"morning",100,"morning",1
38,"5cf1a1b1c0d98b00196ea8c8",3,"Control A","THICK","contest","Study1","U","JOL",8165,"19",24499,"boots",50,"contest",0
39,"5cf1a1b1c0d98b00196ea8c8",3,"Control A","VEHICLE","charm","Study1","U","JOL",7954,"8",20911,"sofa",22.222222222222,"charm",0
40,"5cf1a1b1c0d98b00196ea8c8",3,"Control A","WARN","sea","Study1","U","JOL",14574,"58",30597,"plate",25,"sea",0
41,"5cf1a1b1c0d98b00196ea8c8",3,"Control A","ACCIDENT","strong","Study2","U","JOL",32026,"27",17357,"victory",30.769230769231,"strong",0
42,"5cf1a1b1c0d98b00196ea8c8",3,"Control A","ADD","valley","Study2","U","JOL",14244,"44",40461,"substation",12.5,"valley",0
43,"5cf1a1b1c0d98b00196ea8c8",3,"Control A","BELT","soon","Study2","U","JOL",9325,"6",7690,"room",50,"soon",1
44,"5cf1a1b1c0d98b00196ea8c8",3,"Control A","BELT","soon","Study2","U","JOL",20234,"9",28105,"",0,"soon",0
45,"5cf1a1b1c0d98b00196ea8c8",3,"Control A","BRONZE","artery","Study2","U","JOL",23958,"35",14275,"machine",30.769230769231,"artery",0
46,"5cf1a1b1c0d98b00196ea8c8",3,"Control A","Business","death","Study2","U","JOL",44884,"47",6328,"death",100,"death",1
47,"5cf1a1b1c0d98b00196ea8c8",3,"Control A","CAR","happy","Study2","U","JOL",13032,"40",13223,"window",0,"happy",0
48,"5cf1a1b1c0d98b00196ea8c8",3,"Control A","CLUTTER","pusher","Study2","U","JOL",11777,"39",6143,"art",22.222222222222,"pusher",0
49,"5cf1a1b1c0d98b00196ea8c8",3,"Control A","DESIRE","noise","Study2","U","JOL",21817,"22",18743,"want",22.222222222222,"noise",0
50,"5cf1a1b1c0d98b00196ea8c8",3,"Control A","DETECT","free","Study2","U","JOL",11874,"33",9511,"sytem",22.222222222222,"free",0
51,"5cf1a1b1c0d98b00196ea8c8",3,"Control A","FLOAT","harmony","Study2","U","JOL",17011,"23",7107,"boat",18.181818181818,"harmony",0
52,"5cf1a1b1c0d98b00196ea8c8",3,"Control A","FLOOR","discover","Study2","U","JOL",24429,"45",9629,"path",0,"discover",0
53,"5cf1a1b1c0d98b00196ea8c8",3,"Control A","GUARD","wheel","Study2","U","JOL",15532,"52",42328,"sleep",40,"wheel",0
54,"5cf1a1b1c0d98b00196ea8c8",3,"Control A","HAND","fix","Study2","U","JOL",22948,"17",31265,"zoo",0,"fix",0
55,"5cf1a1b1c0d98b00196ea8c8",3,"Control A","HUNGRY","park","Study2","U","JOL",12007,"2",26272,"lime",0,"park",0
56,"5cf1a1b1c0d98b00196ea8c8",3,"Control A","JELLY","naughty","Study2","U","JOL",11215,"23",40326,"set",20,"naughty",0
57,"5cf1a1b1c0d98b00196ea8c8",3,"Control A","LAKE","opinion","Study2","U","JOL",7784,"25",18239,"android",28.571428571429,"opinion",0
58,"5cf1a1b1c0d98b00196ea8c8",3,"Control A","LION","art","Study2","U","JOL",16524,"47",20223,"ming",0,"art",0
59,"5cf1a1b1c0d98b00196ea8c8",3,"Control A","MUTE","wave","Study2","U","JOL",23815,"60",6262,"wave",100,"wave",1
60,"5cf1a1b1c0d98b00196ea8c8",3,"Control A","NULL","cough","Study2","U","JOL",15920,"35",8085,"void",22.222222222222,"cough",0
61,"5cf1a1b1c0d98b00196ea8c8",3,"Control A","POSITION","machine","Study2","U","JOL",15876,"23",7362,"piston",30.769230769231,"machine",0
62,"5cf1a1b1c0d98b00196ea8c8",3,"Control A","PUFF","number","Study2","U","JOL",29115,"48",46590,"corn",20,"number",0
63,"5cf1a1b1c0d98b00196ea8c8",3,"Control A","PUT","roll","Study2","U","JOL",33197,"17",14425,"through",36.363636363636,"roll",0
64,"5cf1a1b1c0d98b00196ea8c8",3,"Control A","READY","corn","Study2","U","JOL",28663,"29",52365,"head",0,"corn",0
65,"5cf1a1b1c0d98b00196ea8c8",3,"Control A","RIDDLE","sugar","Study2","U","JOL",18226,"46",6583,"sugar",100,"sugar",1
66,"5cf1a1b1c0d98b00196ea8c8",3,"Control A","ROAD","scent","Study2","U","JOL",21996,"41",24286,"spring",36.363636363636,"scent",0
67,"5cf1a1b1c0d98b00196ea8c8",3,"Control A","SICK","hide","Study2","U","JOL",7586,"19",9664,"inflation",15.384615384615,"hide",0
68,"5cf1a1b1c0d98b00196ea8c8",3,"Control A","SIGHT","debate","Study2","U","JOL",11219,"59",26436,"maroon",16.666666666667,"debate",0
69,"5cf1a1b1c0d98b00196ea8c8",3,"Control A","SLIM","know","Study2","U","JOL",28225,"44",24316,"pick",25,"know",0
70,"5cf1a1b1c0d98b00196ea8c8",3,"Control A","SMOOTH","omit","Study2","U","JOL",12520,"18",36250,"class",0,"omit",0
71,"5cf1a1b1c0d98b00196ea8c8",3,"Control A","SPELL","bone","Study2","U","JOL",17531,"9",4746,"bone",100,"bone",1
72,"5cf1a1b1c0d98b00196ea8c8",3,"Control A","STOMACH","town","Study2","U","JOL",9679,"1",8333,"town",100,"town",1
73,"5cf1a1b1c0d98b00196ea8c8",3,"Control A","SWING","fog","Study2","U","JOL",17268,"61",5450,"fog",100,"fog",1
74,"5cf1a1b1c0d98b00196ea8c8",3,"Control A","SYSTEM","lick","Study2","U","JOL",10632,"3",6961,"lick",100,"lick",1
75,"5cf1a1b1c0d98b00196ea8c8",3,"Control A","TUCK","allow","Study2","U","JOL",18190,"4",22566,"leap",22.222222222222,"allow",0
76,"5cf1a1b1c0d98b00196ea8c8",3,"Control A","VASE","king","Study2","U","JOL",18130,"53",7520,"king",100,"king",1
77,"5cf1a1b1c0d98b00196ea8c8",3,"Control A","WASTE","sedate","Study2","U","JOL",8893,"12",34047,"haze",40,"sedate",0
78,"5cf1a1b1c0d98b00196ea8c8",3,"Control A","WOMAN","lift","Study2","U","JOL",15735,"19",13561,"fine",25,"lift",0
79,"5cf1a1b1c0d98b00196ea8c8",3,"Control A","WOULD","cash","Study2","U","JOL",19601,"49",13372,"cash",100,"cash",1
80,"5cf1a1b1c0d98b00196ea8c8",3,"Control A","ZOO","thumb","Study2","U","JOL",20856,"7",4428,"thumb",100,"thumb",1
81,"5dfd15e7de8da6a03520061a",3,"Control A","BAT","shaky","Study1","U","JOL",4691,"65",5048,"shaky",100,"shaky",1
82,"5dfd15e7de8da6a03520061a",3,"Control A","BOTH","ounce","Study1","U","JOL",6070,"5",4508,"",0,"ounce",0
83,"5dfd15e7de8da6a03520061a",3,"Control A","BROAD","infect","Study1","U","JOL",4467,"0",2458,"",0,"infect",0
84,"5dfd15e7de8da6a03520061a",3,"Control A","CAKE","clothes","Study1","U","JOL",11249,"30",1657,"",0,"clothes",0
85,"5dfd15e7de8da6a03520061a",3,"Control A","CRACKLE","able","Study1","U","JOL",9229,"5",11394,"chuckle",36.363636363636,"able",0
86,"5dfd15e7de8da6a03520061a",3,"Control A","CRAYON","rate","Study1","U","JOL",6479,"25",11620,"rate",100,"rate",1
87,"5dfd15e7de8da6a03520061a",3,"Control A","DEGREE","chair","Study1","U","JOL",4536,"50",4739,"chair",100,"chair",1
88,"5dfd15e7de8da6a03520061a",3,"Control A","DIFFICULT","poor","Study1","U","JOL",7770,"75",8464,"poor",100,"poor",1
89,"5dfd15e7de8da6a03520061a",3,"Control A","DIZZY","sweater","Study1","U","JOL",5521,"25",8782,"",0,"sweater",0
90,"5dfd15e7de8da6a03520061a",3,"Control A","DONKEY","lush","Study1","U","JOL",4173,"10",14834,"",0,"lush",0
91,"5dfd15e7de8da6a03520061a",3,"Control A","FUTURE","sincere","Study1","U","JOL",4739,"60",7284,"sincere ",100,"sincere",1
92,"5dfd15e7de8da6a03520061a",3,"Control A","FUZZY","bang","Study1","U","JOL",4171,"30",1804,"",0,"bang",0
93,"5dfd15e7de8da6a03520061a",3,"Control A","GIVE","steak","Study1","U","JOL",9328,"65",5512,"meat",44.444444444444,"steak",0
94,"5dfd15e7de8da6a03520061a",3,"Control A","GRIND","stand","Study1","U","JOL",8804,"50",3219,"stand",100,"stand",1
95,"5dfd15e7de8da6a03520061a",3,"Control A","INFLATE","disgust","Study1","U","JOL",6564,"5",6528,"disgust",100,"disgust",1
96,"5dfd15e7de8da6a03520061a",3,"Control A","JUSTICE","maroon","Study1","U","JOL",6259,"45",3731,"maroon",100,"maroon",1
97,"5dfd15e7de8da6a03520061a",3,"Control A","KEYS","joke","Study1","U","JOL",6960,"45",4383,"",0,"joke",0
98,"5dfd15e7de8da6a03520061a",3,"Control A","LEASE","toil","Study1","U","JOL",6289,"0",3736,"",0,"toil",0
99,"5dfd15e7de8da6a03520061a",3,"Control A","LISTEN","fiction","Study1","U","JOL",7497,"50",6266,"fiction",100,"fiction",1
100,"5dfd15e7de8da6a03520061a",3,"Control A","LOAN","sign","Study1","U","JOL",5529,"50",28917,"",0,"sign",0
101,"5dfd15e7de8da6a03520061a",3,"Control A","MAIN","scar","Study1","U","JOL",3530,"10",2067,"",0,"scar",0
102,"5dfd15e7de8da6a03520061a",3,"Control A","MAZE","election","Study1","U","JOL",5924,"25",4635,"election",100,"election",1
103,"5dfd15e7de8da6a03520061a",3,"Control A","MEAT","obtain","Study1","U","JOL",8305,"40",3235,"obtain",100,"obtain",1
104,"5dfd15e7de8da6a03520061a",3,"Control A","MIRROR","children","Study1","U","JOL",4783,"20",3720,"children",100,"children",1
105,"5dfd15e7de8da6a03520061a",3,"Control A","MOAT","clear","Study1","U","JOL",3884,"10",2582,"",0,"clear",0
106,"5dfd15e7de8da6a03520061a",3,"Control A","NAME","hate","Study1","U","JOL",5942,"75",4675,"hate",100,"hate",1
107,"5dfd15e7de8da6a03520061a",3,"Control A","NUMBER","hard","Study1","U","JOL",7617,"65",3168,"hard",100,"hard",1
108,"5dfd15e7de8da6a03520061a",3,"Control A","PARCEL","throat","Study1","U","JOL",5801,"0",8018,"",0,"throat",0
109,"5dfd15e7de8da6a03520061a",3,"Control A","PET","moon","Study1","U","JOL",4639,"50",3299,"moon",100,"moon",1
110,"5dfd15e7de8da6a03520061a",3,"Control A","RESIST","glue","Study1","U","JOL",8701,"40",5311,"",0,"glue",0
111,"5dfd15e7de8da6a03520061a",3,"Control A","RIPE","verify","Study1","U","JOL",3744,"40",4376,"",0,"verify",0
112,"5dfd15e7de8da6a03520061a",3,"Control A","ROSE","neglect","Study1","U","JOL",8785,"30",14564,"forgotten",25,"neglect",0
113,"5dfd15e7de8da6a03520061a",3,"Control A","SHELL","shake","Study1","U","JOL",7423,"50",3332,"share",80,"shake",1
114,"5dfd15e7de8da6a03520061a",3,"Control A","STRESS","yam","Study1","U","JOL",14132,"10",9592,"",0,"yam",0
115,"5dfd15e7de8da6a03520061a",3,"Control A","STRETCH","cloth","Study1","U","JOL",10362,"60",4400,"cloth",100,"cloth",1
116,"5dfd15e7de8da6a03520061a",3,"Control A","TAX","owl","Study1","U","JOL",7320,"30",4132,"take",0,"owl",0
117,"5dfd15e7de8da6a03520061a",3,"Control A","TEMPERATURE","morning","Study1","U","JOL",7705,"60",3768,"morning",100,"morning",1
118,"5dfd15e7de8da6a03520061a",3,"Control A","THICK","contest","Study1","U","JOL",42310,"40",5429,"contest",100,"contest",1
119,"5dfd15e7de8da6a03520061a",3,"Control A","VEHICLE","charm","Study1","U","JOL",5935,"20",1902,"",0,"charm",0
120,"5dfd15e7de8da6a03520061a",3,"Control A","WARN","sea","Study1","U","JOL",3964,"10",6918,"",0,"sea",0
121,"5dfd15e7de8da6a03520061a",3,"Control A","ACCIDENT","strong","Study2","U","JOL",4601,"60",7521,"",0,"strong",0
122,"5dfd15e7de8da6a03520061a",3,"Control A","ADD","valley","Study2","U","JOL",5072,"40",3340,"",0,"valley",0
123,"5dfd15e7de8da6a03520061a",3,"Control A","BELT","soon","Study2","U","JOL",3640,"50",3458,"soon",100,"soon",1
124,"5dfd15e7de8da6a03520061a",3,"Control A","BRONZE","artery","Study2","U","JOL",5127,"50",6094,"artery ",100,"artery",1
125,"5dfd15e7de8da6a03520061a",3,"Control A","Business","death","Study2","U","JOL",3298,"75",4282,"death",100,"death",1
126,"5dfd15e7de8da6a03520061a",3,"Control A","CAR","happy","Study2","U","JOL",2871,"70",3349,"happy",100,"happy",1
127,"5dfd15e7de8da6a03520061a",3,"Control A","CLUTTER","pusher","Study2","U","JOL",3340,"45",7473,"find",0,"pusher",0
128,"5dfd15e7de8da6a03520061a",3,"Control A","DESIRE","noise","Study2","U","JOL",4735,"30",1832,"",0,"noise",0
129,"5dfd15e7de8da6a03520061a",3,"Control A","DETECT","free","Study2","U","JOL",4181,"60",3825,"",0,"free",0
130,"5dfd15e7de8da6a03520061a",3,"Control A","FLOAT","harmony","Study2","U","JOL",4901,"5",7066,"",0,"harmony",0
131,"5dfd15e7de8da6a03520061a",3,"Control A","FLOOR","discover","Study2","U","JOL",8151,"20",4404,"discover ",100,"discover",1
132,"5dfd15e7de8da6a03520061a",3,"Control A","GUARD","wheel","Study2","U","JOL",3567,"45",4725,"gate",22.222222222222,"wheel",0
133,"5dfd15e7de8da6a03520061a",3,"Control A","HAND","fix","Study2","U","JOL",2733,"80",2348,"fix",100,"fix",1
134,"5dfd15e7de8da6a03520061a",3,"Control A","HUNGRY","park","Study2","U","JOL",3319,"55",3972,"",0,"park",0
135,"5dfd15e7de8da6a03520061a",3,"Control A","JELLY","naughty","Study2","U","JOL",5398,"80",3799,"naughty",100,"naughty",1
136,"5dfd15e7de8da6a03520061a",3,"Control A","LAKE","opinion","Study2","U","JOL",3466,"30",3003,"opinion",100,"opinion",1
137,"5dfd15e7de8da6a03520061a",3,"Control A","LION","art","Study2","U","JOL",3258,"75",2607,"art",100,"art",1
138,"5dfd15e7de8da6a03520061a",3,"Control A","MUTE","wave","Study2","U","JOL",4120,"335",14585,"",0,"wave",0
139,"5dfd15e7de8da6a03520061a",3,"Control A","NULL","cough","Study2","U","JOL",3526,"50",3433,"",0,"cough",0
140,"5dfd15e7de8da6a03520061a",3,"Control A","POSITION","machine","Study2","U","JOL",4141,"70",4416,"machine",100,"machine",1
141,"5dfd15e7de8da6a03520061a",3,"Control A","PUFF","number","Study2","U","JOL",3202,"25",2805,"number",100,"number",1
142,"5dfd15e7de8da6a03520061a",3,"Control A","PUT","roll","Study2","U","JOL",3689,"25",2443,"",0,"roll",0
143,"5dfd15e7de8da6a03520061a",3,"Control A","READY","corn","Study2","U","JOL",4101,"50",3935,"",0,"corn",0
144,"5dfd15e7de8da6a03520061a",3,"Control A","RIDDLE","sugar","Study2","U","JOL",3178,"40",4052,"sugar",100,"sugar",1
145,"5dfd15e7de8da6a03520061a",3,"Control A","RIDDLE","sugar","Study2","U","JOL",4578,"30",2932,"sugar",100,"sugar",1
146,"5dfd15e7de8da6a03520061a",3,"Control A","ROAD","scent","Study2","U","JOL",4053,"30",4257,"scent",100,"scent",1
147,"5dfd15e7de8da6a03520061a",3,"Control A","SACKING","dietary","Study2","U","JOL",5888,"40",12165,"",0,"dietary",0
148,"5dfd15e7de8da6a03520061a",3,"Control A","SICK","hide","Study2","U","JOL",11697,"40",3394,"hide",100,"hide",1
149,"5dfd15e7de8da6a03520061a",3,"Control A","SIGHT","debate","Study2","U","JOL",4446,"40",2048,"",0,"debate",0
150,"5dfd15e7de8da6a03520061a",3,"Control A","SLIM","know","Study2","U","JOL",8924,"50",9781,"",0,"know",0
151,"5dfd15e7de8da6a03520061a",3,"Control A","SMOOTH","omit","Study2","U","JOL",4480,"20",2257,"",0,"omit",0
152,"5dfd15e7de8da6a03520061a",3,"Control A","SPELL","bone","Study2","U","JOL",3155,"40",8205,"",0,"bone",0
153,"5dfd15e7de8da6a03520061a",3,"Control A","STOMACH","town","Study2","U","JOL",4797,"50",11593,"town",100,"town",1
154,"5dfd15e7de8da6a03520061a",3,"Control A","SWING","fog","Study2","U","JOL",3727,"55",1441,"",0,"fog",0
155,"5dfd15e7de8da6a03520061a",3,"Control A","SYSTEM","lick","Study2","U","JOL",3073,"65",2950,"",0,"lick",0
156,"5dfd15e7de8da6a03520061a",3,"Control A","TUCK","allow","Study2","U","JOL",3259,"10",2106,"",0,"allow",0
157,"5dfd15e7de8da6a03520061a",3,"Control A","VASE","king","Study2","U","JOL",4009,"75",3178,"king",100,"king",1
158,"5dfd15e7de8da6a03520061a",3,"Control A","WOMAN","lift","Study2","U","JOL",3463,"80",2506,"lift",100,"lift",1
159,"5dfd15e7de8da6a03520061a",3,"Control A","WOULD","cash","Study2","U","JOL",3469,"50",5476,"",0,"cash",0
160,"5dfd15e7de8da6a03520061a",3,"Control A","ZOO","thumb","Study2","U","JOL",3337,"10",5066,"key",0,"thumb",0
161,"5ead4b9d7ea9de012323aa7a",3,"Control A","BAT","shaky","Study1","U","JOL",1796,"0",6124,"relent",0,"shaky",0
162,"5ead4b9d7ea9de012323aa7a",3,"Control A","BOTH","ounce","Study1","U","JOL",3143,"24",2894,"leaves",18.181818181818,"ounce",0
163,"5ead4b9d7ea9de012323aa7a",3,"Control A","BROAD","infect","Study1","U","JOL",2915,"15",2389,"stroke",16.666666666667,"infect",0
164,"5ead4b9d7ea9de012323aa7a",3,"Control A","CAKE","clothes","Study1","U","JOL",10725,"50",3406,"",0,"clothes",0
165,"5ead4b9d7ea9de012323aa7a",3,"Control A","CRACKLE","able","Study1","U","JOL",2017,"57",2614,"",0,"able",0
166,"5ead4b9d7ea9de012323aa7a",3,"Control A","CRAYON","rate","Study1","U","JOL",3031,"80",4131,"munch",0,"rate",0
167,"5ead4b9d7ea9de012323aa7a",3,"Control A","DEGREE","chair","Study1","U","JOL",3054,"6",2693,"chair",100,"chair",1
168,"5ead4b9d7ea9de012323aa7a",3,"Control A","DIFFICULT","poor","Study1","U","JOL",2247,"50",4128,"degree",20,"poor",0
169,"5ead4b9d7ea9de012323aa7a",3,"Control A","DIZZY","sweater","Study1","U","JOL",1194,"0",7200,"bread",33.333333333333,"sweater",0
170,"5ead4b9d7ea9de012323aa7a",3,"Control A","DONKEY","lush","Study1","U","JOL",1623,"0",1352,"",0,"lush",0
171,"5ead4b9d7ea9de012323aa7a",3,"Control A","FUTURE","sincere","Study1","U","JOL",2952,"50",5364,"sincere",100,"sincere",1
172,"5ead4b9d7ea9de012323aa7a",3,"Control A","FUZZY","bang","Study1","U","JOL",1994,"12",3384,"man",57.142857142857,"bang",1
173,"5ead4b9d7ea9de012323aa7a",3,"Control A","GIVE","steak","Study1","U","JOL",2631,"20",2396,"meat",44.444444444444,"steak",0
174,"5ead4b9d7ea9de012323aa7a",3,"Control A","GRIND","stand","Study1","U","JOL",3383,"5",3997,"shake",40,"stand",0
175,"5ead4b9d7ea9de012323aa7a",3,"Control A","INFLATE","disgust","Study1","U","JOL",3806,"15",6187,"pipe",18.181818181818,"disgust",0
176,"5ead4b9d7ea9de012323aa7a",3,"Control A","JUSTICE","maroon","Study1","U","JOL",1864,"0",2609,"like",0,"maroon",0
177,"5ead4b9d7ea9de012323aa7a",3,"Control A","KEYS","joke","Study1","U","JOL",1335,"0",1083,"",0,"joke",0
178,"5ead4b9d7ea9de012323aa7a",3,"Control A","LEASE","toil","Study1","U","JOL",5870,"14",2207,"lend",25,"toil",0
179,"5ead4b9d7ea9de012323aa7a",3,"Control A","LISTEN","fiction","Study1","U","JOL",2240,"45",4502,"fiction",100,"fiction",1
180,"5ead4b9d7ea9de012323aa7a",3,"Control A","LOAN","sign","Study1","U","JOL",2234,"4",3296,"word",0,"sign",0
181,"5ead4b9d7ea9de012323aa7a",3,"Control A","MAIN","scar","Study1","U","JOL",2901,"1",2891,"script",60,"scar",0
182,"5ead4b9d7ea9de012323aa7a",3,"Control A","MAZE","election","Study1","U","JOL",2534,"23",5045,"trebutchet",11.111111111111,"election",0
183,"5ead4b9d7ea9de012323aa7a",3,"Control A","MEAT","obtain","Study1","U","JOL",2023,"2",12843,"get",22.222222222222,"obtain",0
184,"5ead4b9d7ea9de012323aa7a",3,"Control A","MIRROR","children","Study1","U","JOL",2592,"9",3874,"children",100,"children",1
185,"5ead4b9d7ea9de012323aa7a",3,"Control A","MOAT","clear","Study1","U","JOL",3837,"0",2980,"clear",100,"clear",1
186,"5ead4b9d7ea9de012323aa7a",3,"Control A","NAME","hate","Study1","U","JOL",4428,"60",10500,"hate",100,"hate",1
187,"5ead4b9d7ea9de012323aa7a",3,"Control A","NUMBER","hard","Study1","U","JOL",2020,"15",2496,"hard",100,"hard",1
188,"5ead4b9d7ea9de012323aa7a",3,"Control A","PARCEL","throat","Study1","U","JOL",1873,"5",1474,"",0,"throat",0
189,"5ead4b9d7ea9de012323aa7a",3,"Control A","PET","moon","Study1","U","JOL",2591,"12",2605,"peeve",0,"moon",0
190,"5ead4b9d7ea9de012323aa7a",3,"Control A","RESIST","glue","Study1","U","JOL",2633,"50",6138,"temptation",14.285714285714,"glue",0
191,"5ead4b9d7ea9de012323aa7a",3,"Control A","RIPE","verify","Study1","U","JOL",6676,"0",3154,"grape",18.181818181818,"verify",0
192,"5ead4b9d7ea9de012323aa7a",3,"Control A","ROSE","neglect","Study1","U","JOL",2759,"1",2783,"",0,"neglect",0
193,"5ead4b9d7ea9de012323aa7a",3,"Control A","SHELL","shake","Study1","U","JOL",3102,"20",3507,"shake",100,"shake",1
194,"5ead4b9d7ea9de012323aa7a",3,"Control A","STRESS","yam","Study1","U","JOL",3819,"15",1195,"",0,"yam",0
195,"5ead4b9d7ea9de012323aa7a",3,"Control A","STRETCH","cloth","Study1","U","JOL",2535,"60",2802,"cloth",100,"cloth",1
196,"5ead4b9d7ea9de012323aa7a",3,"Control A","TAX","owl","Study1","U","JOL",3087,"0",2065,"man",0,"owl",0
197,"5ead4b9d7ea9de012323aa7a",3,"Control A","TEMPERATURE","morning","Study1","U","JOL",2586,"60",3532,"morning",100,"morning",1
198,"5ead4b9d7ea9de012323aa7a",3,"Control A","THICK","contest","Study1","U","JOL",1402,"23",3729,"tray",18.181818181818,"contest",0
199,"5ead4b9d7ea9de012323aa7a",3,"Control A","VEHICLE","charm","Study1","U","JOL",2912,"15",3648,"get",0,"charm",0
200,"5ead4b9d7ea9de012323aa7a",3,"Control A","WARN","sea","Study1","U","JOL",2141,"50",3736,"",0,"sea",0
201,"5ead4b9d7ea9de012323aa7a",3,"Control A","ACCIDENT","strong","Study2","U","JOL",2529,NA,2787,"morale",16.666666666667,"strong",0
202,"5ead4b9d7ea9de012323aa7a",3,"Control A","ADD","valley","Study2","U","JOL",805,"50",2500,"to",0,"valley",0
203,"5ead4b9d7ea9de012323aa7a",3,"Control A","BELT","soon","Study2","U","JOL",2228,"40",2667,"whip",0,"soon",0
204,"5ead4b9d7ea9de012323aa7a",3,"Control A","BRONZE","artery","Study2","U","JOL",2811,"50",3841,"sword",18.181818181818,"artery",0
205,"5ead4b9d7ea9de012323aa7a",3,"Control A","Business","death","Study2","U","JOL",1395,"80",4634,"smoke",20,"death",0
206,"5ead4b9d7ea9de012323aa7a",3,"Control A","CAR","happy","Study2","U","JOL",2167,"10",1718,"man",25,"happy",0
207,"5ead4b9d7ea9de012323aa7a",3,"Control A","DESIRE","noise","Study2","U","JOL",1441,"70",3142,"noise",100,"noise",1
208,"5ead4b9d7ea9de012323aa7a",3,"Control A","DETECT","free","Study2","U","JOL",1112,"70",2284,"noise",22.222222222222,"free",0
209,"5ead4b9d7ea9de012323aa7a",3,"Control A","FLOAT","harmony","Study2","U","JOL",1081,NA,5791,"man",40,"harmony",0
210,"5ead4b9d7ea9de012323aa7a",3,"Control A","FLOOR","discover","Study2","U","JOL",1071,"40",3180,"difficult",35.294117647059,"discover",0
211,"5ead4b9d7ea9de012323aa7a",3,"Control A","GUARD","wheel","Study2","U","JOL",1210,"20",3977,"wheels",90.909090909091,"wheel",1
212,"5ead4b9d7ea9de012323aa7a",3,"Control A","HAND","fix","Study2","U","JOL",2970,"20",2647,"fix",100,"fix",1
213,"5ead4b9d7ea9de012323aa7a",3,"Control A","HAND","fix","Study2","U","JOL",1683,"40",1694,"fix",100,"fix",1
214,"5ead4b9d7ea9de012323aa7a",3,"Control A","HUNGRY","park","Study2","U","JOL",1659,"0",3147,"desire",20,"park",0
215,"5ead4b9d7ea9de012323aa7a",3,"Control A","JELLY","naughty","Study2","U","JOL",1146,"50",3153,"king",36.363636363636,"naughty",0
216,"5ead4b9d7ea9de012323aa7a",3,"Control A","LAKE","opinion","Study2","U","JOL",2275,"0",3884,"opinion",100,"opinion",1
217,"5ead4b9d7ea9de012323aa7a",3,"Control A","LION","art","Study2","U","JOL",1579,"0",2874,"just",28.571428571429,"art",0
218,"5ead4b9d7ea9de012323aa7a",3,"Control A","MUTE","wave","Study2","U","JOL",811,"70",2126,"deaf",25,"wave",0
219,"5ead4b9d7ea9de012323aa7a",3,"Control A","NULL","cough","Study2","U","JOL",1418,"0",4484,"notch",40,"cough",0
220,"5ead4b9d7ea9de012323aa7a",3,"Control A","POSITION","machine","Study2","U","JOL",2469,"90",3073,"move",36.363636363636,"machine",0
221,"5ead4b9d7ea9de012323aa7a",3,"Control A","PUFF","number","Study2","U","JOL",1476,"70",2534,"crack",18.181818181818,"number",0
222,"5ead4b9d7ea9de012323aa7a",3,"Control A","PUT","roll","Study2","U","JOL",3771,"90",1899,"f",0,"roll",0
223,"5ead4b9d7ea9de012323aa7a",3,"Control A","READY","corn","Study2","U","JOL",2292,"30",3915,"player",20,"corn",0
224,"5ead4b9d7ea9de012323aa7a",3,"Control A","RIDDLE","sugar","Study2","U","JOL",2555,"49",2626,"taste",20,"sugar",0
225,"5ead4b9d7ea9de012323aa7a",3,"Control A","ROAD","scent","Study2","U","JOL",22054,"0",4839,"tremor",18.181818181818,"scent",0
226,"5ead4b9d7ea9de012323aa7a",3,"Control A","SACKING","dietary","Study2","U","JOL",1561,"70",5405,"rome",18.181818181818,"dietary",0
227,"5ead4b9d7ea9de012323aa7a",3,"Control A","SICK","hide","Study2","U","JOL",1190,"30",2335,"hide",100,"hide",1
228,"5ead4b9d7ea9de012323aa7a",3,"Control A","SIGHT","debate","Study2","U","JOL",1482,"40",3367,"kill",0,"debate",0
229,"5ead4b9d7ea9de012323aa7a",3,"Control A","SLIM","know","Study2","U","JOL",884,"60",2941,"noodle",40,"know",0
230,"5ead4b9d7ea9de012323aa7a",3,"Control A","SMOOTH","omit","Study2","U","JOL",938,"50",2282,"bum",28.571428571429,"omit",0
231,"5ead4b9d7ea9de012323aa7a",3,"Control A","SPELL","bone","Study2","U","JOL",1766,"20",4159,"yard",0,"bone",0
232,"5ead4b9d7ea9de012323aa7a",3,"Control A","STOMACH","town","Study2","U","JOL",1696,"4",4070,"pastry",20,"town",0
233,"5ead4b9d7ea9de012323aa7a",3,"Control A","SWING","fog","Study2","U","JOL",1547,"69",1997,"vote",28.571428571429,"fog",0
234,"5ead4b9d7ea9de012323aa7a",3,"Control A","SYSTEM","lick","Study2","U","JOL",2137,"10",5125,"king",25,"lick",0
235,"5ead4b9d7ea9de012323aa7a",3,"Control A","TUCK","allow","Study2","U","JOL",1865,"1",2532,"hidden",0,"allow",0
236,"5ead4b9d7ea9de012323aa7a",3,"Control A","VASE","king","Study2","U","JOL",3199,"0",1820,"king",100,"king",1
237,"5ead4b9d7ea9de012323aa7a",3,"Control A","WASTE","sedate","Study2","U","JOL",943,"50",3350,"dinner",33.333333333333,"sedate",0
238,"5ead4b9d7ea9de012323aa7a",3,"Control A","WOMAN","lift","Study2","U","JOL",1226,"0",3520,"latch",44.444444444444,"lift",0
239,"5ead4b9d7ea9de012323aa7a",3,"Control A","WOULD","cash","Study2","U","JOL",1250,"5",2066,"",0,"cash",0
240,"5ead4b9d7ea9de012323aa7a",3,"Control A","ZOO","thumb","Study2","U","JOL",2697,"40",3181,"animal",18.181818181818,"thumb",0
241,"5f3ab08d20bd47131cf856f6",3,"Control A","BAT","shaky","Study1","U","JOL",16001,"0",3722,"",0,"shaky",0
242,"5f3ab08d20bd47131cf856f6",3,"Control A","BOTH","ounce","Study1","U","JOL",2332,"0",4029,"",0,"ounce",0
243,"5f3ab08d20bd47131cf856f6",3,"Control A","BROAD","infect","Study1","U","JOL",67397,"0",1190,"",0,"infect",0
244,"5f3ab08d20bd47131cf856f6",3,"Control A","CAKE","clothes","Study1","U","JOL",3416,"20",2306,"",0,"clothes",0
245,"5f3ab08d20bd47131cf856f6",3,"Control A","CRACKLE","able","Study1","U","JOL",6161,"0",6389,"able",100,"able",1
246,"5f3ab08d20bd47131cf856f6",3,"Control A","CRAYON","rate","Study1","U","JOL",3396,"5",1306,"",0,"rate",0
247,"5f3ab08d20bd47131cf856f6",3,"Control A","DEGREE","chair","Study1","U","JOL",3274,"0",12166,"",0,"chair",0
248,"5f3ab08d20bd47131cf856f6",3,"Control A","DIFFICULT","poor","Study1","U","JOL",3261,"20",2945,"",0,"poor",0
249,"5f3ab08d20bd47131cf856f6",3,"Control A","DIZZY","sweater","Study1","U","JOL",14141,"5",2562,"",0,"sweater",0
250,"5f3ab08d20bd47131cf856f6",3,"Control A","DONKEY","lush","Study1","U","JOL",4539,"0",3024,"",0,"lush",0
251,"5f3ab08d20bd47131cf856f6",3,"Control A","FUTURE","sincere","Study1","U","JOL",6943,"15",3594,"",0,"sincere",0
252,"5f3ab08d20bd47131cf856f6",3,"Control A","FUZZY","bang","Study1","U","JOL",2130,"0",1594,"",0,"bang",0
253,"5f3ab08d20bd47131cf856f6",3,"Control A","GIVE","steak","Study1","U","JOL",2273,"0",1420,"",0,"steak",0
254,"5f3ab08d20bd47131cf856f6",3,"Control A","GRIND","stand","Study1","U","JOL",4727,"10",4050,"",0,"stand",0
255,"5f3ab08d20bd47131cf856f6",3,"Control A","INFLATE","disgust","Study1","U","JOL",3227,"0",1707,"",0,"disgust",0
256,"5f3ab08d20bd47131cf856f6",3,"Control A","JUSTICE","maroon","Study1","U","JOL",1939,"0",1259,"",0,"maroon",0
257,"5f3ab08d20bd47131cf856f6",3,"Control A","KEYS","joke","Study1","U","JOL",4387,"10",994,"",0,"joke",0
258,"5f3ab08d20bd47131cf856f6",3,"Control A","LEASE","toil","Study1","U","JOL",2515,"0",1027,"",0,"toil",0
259,"5f3ab08d20bd47131cf856f6",3,"Control A","LISTEN","fiction","Study1","U","JOL",3793,"20",1800,"",0,"fiction",0
260,"5f3ab08d20bd47131cf856f6",3,"Control A","LOAN","sign","Study1","U","JOL",3083,"0",1300,"",0,"sign",0
261,"5f3ab08d20bd47131cf856f6",3,"Control A","MAIN","scar","Study1","U","JOL",5976,"0",2318,"",0,"scar",0
262,"5f3ab08d20bd47131cf856f6",3,"Control A","MAZE","election","Study1","U","JOL",6588,"0",1153,"",0,"election",0
263,"5f3ab08d20bd47131cf856f6",3,"Control A","MEAT","obtain","Study1","U","JOL",1513,"0",1298,"",0,"obtain",0
264,"5f3ab08d20bd47131cf856f6",3,"Control A","MIRROR","children","Study1","U","JOL",3582,"10",7275,"",0,"children",0
265,"5f3ab08d20bd47131cf856f6",3,"Control A","MOAT","clear","Study1","U","JOL",4955,"0",3941,"",0,"clear",0
266,"5f3ab08d20bd47131cf856f6",3,"Control A","NAME","hate","Study1","U","JOL",1960,"0",4834,"hate",100,"hate",1
267,"5f3ab08d20bd47131cf856f6",3,"Control A","NUMBER","hard","Study1","U","JOL",2851,"30",3769,"",0,"hard",0
268,"5f3ab08d20bd47131cf856f6",3,"Control A","PARCEL","throat","Study1","U","JOL",2169,"0",1462,"",0,"throat",0
269,"5f3ab08d20bd47131cf856f6",3,"Control A","PET","moon","Study1","U","JOL",2884,"3",2196,"",0,"moon",0
270,"5f3ab08d20bd47131cf856f6",3,"Control A","RESIST","glue","Study1","U","JOL",8901,"10",1245,"",0,"glue",0
271,"5f3ab08d20bd47131cf856f6",3,"Control A","RIPE","verify","Study1","U","JOL",5067,"10",1001,"",0,"verify",0
272,"5f3ab08d20bd47131cf856f6",3,"Control A","ROSE","neglect","Study1","U","JOL",2728,"0",1750,"",0,"neglect",0
273,"5f3ab08d20bd47131cf856f6",3,"Control A","SHELL","shake","Study1","U","JOL",4218,"10",4981,"shock",60,"shake",0
274,"5f3ab08d20bd47131cf856f6",3,"Control A","STRESS","yam","Study1","U","JOL",3296,"0",1722,"",0,"yam",0
275,"5f3ab08d20bd47131cf856f6",3,"Control A","STRETCH","cloth","Study1","U","JOL",3874,"2",2767,"",0,"cloth",0
276,"5f3ab08d20bd47131cf856f6",3,"Control A","TAX","owl","Study1","U","JOL",5044,"10",2529,"",0,"owl",0
277,"5f3ab08d20bd47131cf856f6",3,"Control A","TEMPERATURE","morning","Study1","U","JOL",3243,"30",4439,"morning",100,"morning",1
278,"5f3ab08d20bd47131cf856f6",3,"Control A","THICK","contest","Study1","U","JOL",3429,"10",2456,"",0,"contest",0
279,"5f3ab08d20bd47131cf856f6",3,"Control A","VEHICLE","charm","Study1","U","JOL",3005,"5",1075,"",0,"charm",0
280,"5f3ab08d20bd47131cf856f6",3,"Control A","WARN","sea","Study1","U","JOL",4149,"10",1707,"",0,"sea",0
281,"5f3ab08d20bd47131cf856f6",3,"Control A","ACCIDENT","strong","Study2","U","JOL",2523,"0",1112,"",0,"strong",0
282,"5f3ab08d20bd47131cf856f6",3,"Control A","ADD","valley","Study2","U","JOL",1480,"0",1574,"",0,"valley",0
283,"5f3ab08d20bd47131cf856f6",3,"Control A","BELT","soon","Study2","U","JOL",2317,"0",789,"",0,"soon",0
284,"5f3ab08d20bd47131cf856f6",3,"Control A","BRONZE","artery","Study2","U","JOL",5290,"0",2662,"",0,"artery",0
285,"5f3ab08d20bd47131cf856f6",3,"Control A","Business","death","Study2","U","JOL",7903,"30",2027,"",0,"death",0
286,"5f3ab08d20bd47131cf856f6",3,"Control A","CAR","happy","Study2","U","JOL",1380,"0",1562,"",0,"happy",0
287,"5f3ab08d20bd47131cf856f6",3,"Control A","CLUTTER","pusher","Study2","U","JOL",3160,"2",696,"",0,"pusher",0
288,"5f3ab08d20bd47131cf856f6",3,"Control A","CLUTTER","pusher","Study2","U","JOL",3103,"2",1910,"",0,"pusher",0
289,"5f3ab08d20bd47131cf856f6",3,"Control A","DESIRE","noise","Study2","U","JOL",3874,"0",4572,"sign",22.222222222222,"noise",0
290,"5f3ab08d20bd47131cf856f6",3,"Control A","DETECT","free","Study2","U","JOL",2416,"0",6406,"",0,"free",0
291,"5f3ab08d20bd47131cf856f6",3,"Control A","FLOAT","harmony","Study2","U","JOL",1738,NA,4758,"boat",18.181818181818,"harmony",0
292,"5f3ab08d20bd47131cf856f6",3,"Control A","GUARD","wheel","Study2","U","JOL",2505,"0",1462,"",0,"wheel",0
293,"5f3ab08d20bd47131cf856f6",3,"Control A","HAND","fix","Study2","U","JOL",5235,"0",1164,"",0,"fix",0
294,"5f3ab08d20bd47131cf856f6",3,"Control A","HUNGRY","park","Study2","U","JOL",2906,"10",1108,"",0,"park",0
295,"5f3ab08d20bd47131cf856f6",3,"Control A","JELLY","naughty","Study2","U","JOL",295,NA,1135,"",0,"naughty",0
296,"5f3ab08d20bd47131cf856f6",3,"Control A","LAKE","opinion","Study2","U","JOL",2700,"0",943,"",0,"opinion",0
297,"5f3ab08d20bd47131cf856f6",3,"Control A","LION","art","Study2","U","JOL",2161,"0",838,"",0,"art",0
298,"5f3ab08d20bd47131cf856f6",3,"Control A","MUTE","wave","Study2","U","JOL",1800,"0",1367,"",0,"wave",0
299,"5f3ab08d20bd47131cf856f6",3,"Control A","NULL","cough","Study2","U","JOL",2643,"0",7654,"",0,"cough",0
300,"5f3ab08d20bd47131cf856f6",3,"Control A","POSITION","machine","Study2","U","JOL",2391,"20",1512,"",0,"machine",0
301,"5f3ab08d20bd47131cf856f6",3,"Control A","PUFF","number","Study2","U","JOL",39380,"0",1071,"",0,"number",0
302,"5f3ab08d20bd47131cf856f6",3,"Control A","PUT","roll","Study2","U","JOL",10664,NA,12445,"",0,"roll",0
303,"5f3ab08d20bd47131cf856f6",3,"Control A","READY","corn","Study2","U","JOL",5538,"15",833,"",0,"corn",0
304,"5f3ab08d20bd47131cf856f6",3,"Control A","RIDDLE","sugar","Study2","U","JOL",2157,"0",1093,"",0,"sugar",0
305,"5f3ab08d20bd47131cf856f6",3,"Control A","ROAD","scent","Study2","U","JOL",5600,"20",3926,"",0,"scent",0
306,"5f3ab08d20bd47131cf856f6",3,"Control A","SACKING","dietary","Study2","U","JOL",4354,"0",819,"",0,"dietary",0
307,"5f3ab08d20bd47131cf856f6",3,"Control A","SICK","hide","Study2","U","JOL",2070,"10",2516,"",0,"hide",0
308,"5f3ab08d20bd47131cf856f6",3,"Control A","SIGHT","debate","Study2","U","JOL",1325,"0",996,"",0,"debate",0
309,"5f3ab08d20bd47131cf856f6",3,"Control A","SLIM","know","Study2","U","JOL",1879,"1",2490,"",0,"know",0
310,"5f3ab08d20bd47131cf856f6",3,"Control A","SMOOTH","omit","Study2","U","JOL",8774,"5",8338,"",0,"omit",0
311,"5f3ab08d20bd47131cf856f6",3,"Control A","SPELL","bone","Study2","U","JOL",1312,NA,881,"",0,"bone",0
312,"5f3ab08d20bd47131cf856f6",3,"Control A","STOMACH","town","Study2","U","JOL",1677,"0",1989,"",0,"town",0
313,"5f3ab08d20bd47131cf856f6",3,"Control A","SWING","fog","Study2","U","JOL",2103,"0",17409,"fog",100,"fog",1
314,"5f3ab08d20bd47131cf856f6",3,"Control A","SYSTEM","lick","Study2","U","JOL",3250,"10",2679,"",0,"lick",0
315,"5f3ab08d20bd47131cf856f6",3,"Control A","TUCK","allow","Study2","U","JOL",2691,"0",1060,"",0,"allow",0
316,"5f3ab08d20bd47131cf856f6",3,"Control A","VASE","king","Study2","U","JOL",2608,"10",4055,"head",0,"king",0
317,"5f3ab08d20bd47131cf856f6",3,"Control A","WASTE","sedate","Study2","U","JOL",1943,"10",1519,"",0,"sedate",0
318,"5f3ab08d20bd47131cf856f6",3,"Control A","WOMAN","lift","Study2","U","JOL",1801,"10",2491,"lift",100,"lift",1
319,"5f3ab08d20bd47131cf856f6",3,"Control A","WOULD","cash","Study2","U","JOL",2787,"0",717,"",0,"cash",0
320,"5f3ab08d20bd47131cf856f6",3,"Control A","ZOO","thumb","Study2","U","JOL",2139,"0",2035,"",0,"thumb",0
321,"5f5714975783961908276de3",3,"Control A","BAT","shaky","Study1","U","JOL",4383,"30",3086,"",0,"shaky",0
322,"5f5714975783961908276de3",3,"Control A","BOTH","ounce","Study1","U","JOL",3781,"10",2076,"",0,"ounce",0
323,"5f5714975783961908276de3",3,"Control A","BROAD","infect","Study1","U","JOL",3821,"10",2432,"",0,"infect",0
324,"5f5714975783961908276de3",3,"Control A","CAKE","clothes","Study1","U","JOL",6166,"30",1782,"",0,"clothes",0
325,"5f5714975783961908276de3",3,"Control A","CRACKLE","able","Study1","U","JOL",4605,"5",1645,"",0,"able",0
326,"5f5714975783961908276de3",3,"Control A","CRAYON","rate","Study1","U","JOL",5303,"40",9297,"rate",100,"rate",1
327,"5f5714975783961908276de3",3,"Control A","DEGREE","chair","Study1","U","JOL",4656,"15",6676,"",0,"chair",0
328,"5f5714975783961908276de3",3,"Control A","DIFFICULT","poor","Study1","U","JOL",3654,"40",3691,"number",20,"poor",0
329,"5f5714975783961908276de3",3,"Control A","DIZZY","sweater","Study1","U","JOL",3125,"10",6854,"",0,"sweater",0
330,"5f5714975783961908276de3",3,"Control A","DONKEY","lush","Study1","U","JOL",4122,"20",2340,"",0,"lush",0
331,"5f5714975783961908276de3",3,"Control A","FUTURE","sincere","Study1","U","JOL",6007,"40",2312,"",0,"sincere",0
332,"5f5714975783961908276de3",3,"Control A","FUZZY","bang","Study1","U","JOL",5194,"20",1471,"",0,"bang",0
333,"5f5714975783961908276de3",3,"Control A","GIVE","steak","Study1","U","JOL",3957,"20",6861,"meat",44.444444444444,"steak",0
334,"5f5714975783961908276de3",3,"Control A","GRIND","stand","Study1","U","JOL",3541,"5",2017,"",0,"stand",0
335,"5f5714975783961908276de3",3,"Control A","INFLATE","disgust","Study1","U","JOL",6888,"10",7519,"",0,"disgust",0
336,"5f5714975783961908276de3",3,"Control A","JUSTICE","maroon","Study1","U","JOL",4924,"30",1446,"",0,"maroon",0
337,"5f5714975783961908276de3",3,"Control A","KEYS","joke","Study1","U","JOL",4787,"30",1463,"",0,"joke",0
338,"5f5714975783961908276de3",3,"Control A","LEASE","toil","Study1","U","JOL",4763,"1",5900,"toil",100,"toil",1
339,"5f5714975783961908276de3",3,"Control A","LISTEN","fiction","Study1","U","JOL",4042,"40",2054,"",0,"fiction",0
340,"5f5714975783961908276de3",3,"Control A","LOAN","sign","Study1","U","JOL",2898,"10",5932,"toil",25,"sign",0
341,"5f5714975783961908276de3",3,"Control A","MAIN","scar","Study1","U","JOL",4225,"5",2025,"",0,"scar",0
342,"5f5714975783961908276de3",3,"Control A","MAZE","election","Study1","U","JOL",4384,"40",2924,"",0,"election",0
343,"5f5714975783961908276de3",3,"Control A","MEAT","obtain","Study1","U","JOL",5344,"10",3797,"give",20,"obtain",0
344,"5f5714975783961908276de3",3,"Control A","MIRROR","children","Study1","U","JOL",3943,"40",4486,"children",100,"children",1
345,"5f5714975783961908276de3",3,"Control A","MOAT","clear","Study1","U","JOL",3345,"30",3055,"clear",100,"clear",1
346,"5f5714975783961908276de3",3,"Control A","NAME","hate","Study1","U","JOL",5201,"30",3136,"",0,"hate",0
347,"5f5714975783961908276de3",3,"Control A","NUMBER","hard","Study1","U","JOL",6796,"60",8774,"hard",100,"hard",1
348,"5f5714975783961908276de3",3,"Control A","PARCEL","throat","Study1","U","JOL",5996,"5",1867,"",0,"throat",0
349,"5f5714975783961908276de3",3,"Control A","PET","moon","Study1","U","JOL",5408,"5",1820,"",0,"moon",0
350,"5f5714975783961908276de3",3,"Control A","RESIST","glue","Study1","U","JOL",5605,"50",7113,"",0,"glue",0
351,"5f5714975783961908276de3",3,"Control A","RIPE","verify","Study1","U","JOL",5412,"5",1261,"",0,"verify",0
352,"5f5714975783961908276de3",3,"Control A","ROSE","neglect","Study1","U","JOL",3833,"5",2502,"",0,"neglect",0
353,"5f5714975783961908276de3",3,"Control A","SHELL","shake","Study1","U","JOL",4594,"5",4470,"shake",100,"shake",1
354,"5f5714975783961908276de3",3,"Control A","STRESS","yam","Study1","U","JOL",4925,"10",1536,"",0,"yam",0
355,"5f5714975783961908276de3",3,"Control A","STRETCH","cloth","Study1","U","JOL",3978,"50",2032,"",0,"cloth",0
356,"5f5714975783961908276de3",3,"Control A","TAX","owl","Study1","U","JOL",4115,"10",2992,"",0,"owl",0
357,"5f5714975783961908276de3",3,"Control A","TEMPERATURE","morning","Study1","U","JOL",3740,"50",6602,"morning",100,"morning",1
358,"5f5714975783961908276de3",3,"Control A","THICK","contest","Study1","U","JOL",3941,"10",1856,"",0,"contest",0
359,"5f5714975783961908276de3",3,"Control A","VEHICLE","charm","Study1","U","JOL",3314,"40",1875,"",0,"charm",0
360,"5f5714975783961908276de3",3,"Control A","WARN","sea","Study1","U","JOL",4023,"5",2867,"",0,"sea",0
361,"5f5714975783961908276de3",3,"Control A","ACCIDENT","strong","Study2","U","JOL",5173,"10",1818,"",0,"strong",0
362,"5f5714975783961908276de3",3,"Control A","ADD","valley","Study2","U","JOL",2791,"1",1908,"",0,"valley",0
363,"5f5714975783961908276de3",3,"Control A","BELT","soon","Study2","U","JOL",3603,"5",1569,"",0,"soon",0
364,"5f5714975783961908276de3",3,"Control A","BRONZE","artery","Study2","U","JOL",5370,"15",4514,"artery",100,"artery",1
365,"5f5714975783961908276de3",3,"Control A","Business","death","Study2","U","JOL",7561,"10",8217,"death",100,"death",1
366,"5f5714975783961908276de3",3,"Control A","CAR","happy","Study2","U","JOL",6545,"30",2556,"",0,"happy",0
367,"5f5714975783961908276de3",3,"Control A","CLUTTER","pusher","Study2","U","JOL",2978,"0",1852,"",0,"pusher",0
368,"5f5714975783961908276de3",3,"Control A","DESIRE","noise","Study2","U","JOL",3781,"10",1282,"",0,"noise",0
369,"5f5714975783961908276de3",3,"Control A","DETECT","free","Study2","U","JOL",3516,"2",1143,"",0,"free",0
370,"5f5714975783961908276de3",3,"Control A","FLOAT","harmony","Study2","U","JOL",6809,"2",2474,"",0,"harmony",0
371,"5f5714975783961908276de3",3,"Control A","FLOOR","discover","Study2","U","JOL",4953,"10",1320,"",0,"discover",0
372,"5f5714975783961908276de3",3,"Control A","GUARD","wheel","Study2","U","JOL",4772,"2",2783,"",0,"wheel",0
373,"5f5714975783961908276de3",3,"Control A","HAND","fix","Study2","U","JOL",6590,"30",2301,"",0,"fix",0
374,"5f5714975783961908276de3",3,"Control A","HUNGRY","park","Study2","U","JOL",5786,"30",4081,"",0,"park",0
375,"5f5714975783961908276de3",3,"Control A","JELLY","naughty","Study2","U","JOL",3051,"5",1093,"",0,"naughty",0
376,"5f5714975783961908276de3",3,"Control A","LAKE","opinion","Study2","U","JOL",3752,"5",1904,"",0,"opinion",0
377,"5f5714975783961908276de3",3,"Control A","MUTE","wave","Study2","U","JOL",4428,"5",11030,"",0,"wave",0
378,"5f5714975783961908276de3",3,"Control A","MUTE","wave","Study2","U","JOL",7107,"5",5718,"",0,"wave",0
379,"5f5714975783961908276de3",3,"Control A","NULL","cough","Study2","U","JOL",3815,"5",5475,"",0,"cough",0
380,"5f5714975783961908276de3",3,"Control A","POSITION","machine","Study2","U","JOL",5171,"20",1609,"",0,"machine",0
381,"5f5714975783961908276de3",3,"Control A","PUFF","number","Study2","U","JOL",3651,"2",4708,"",0,"number",0
382,"5f5714975783961908276de3",3,"Control A","PUT","roll","Study2","U","JOL",3260,"5",1839,"",0,"roll",0
383,"5f5714975783961908276de3",3,"Control A","READY","corn","Study2","U","JOL",3442,"3",1602,"",0,"corn",0
384,"5f5714975783961908276de3",3,"Control A","RIDDLE","sugar","Study2","U","JOL",3897,"10",1445,"",0,"sugar",0
385,"5f5714975783961908276de3",3,"Control A","ROAD","scent","Study2","U","JOL",6902,"10",1713,"",0,"scent",0
386,"5f5714975783961908276de3",3,"Control A","SACKING","dietary","Study2","U","JOL",3784,"0",2616,"",0,"dietary",0
387,"5f5714975783961908276de3",3,"Control A","SICK","hide","Study2","U","JOL",7340,"20",2629,"",0,"hide",0
388,"5f5714975783961908276de3",3,"Control A","SIGHT","debate","Study2","U","JOL",3433,"5",2036,"",0,"debate",0
389,"5f5714975783961908276de3",3,"Control A","SLIM","know","Study2","U","JOL",3410,"5",2121,"",0,"know",0
390,"5f5714975783961908276de3",3,"Control A","SMOOTH","omit","Study2","U","JOL",5500,"1",7783,"slim",25,"omit",0
391,"5f5714975783961908276de3",3,"Control A","SPELL","bone","Study2","U","JOL",4660,"2",1672,"",0,"bone",0
392,"5f5714975783961908276de3",3,"Control A","STOMACH","town","Study2","U","JOL",4311,"10",1939,"",0,"town",0
393,"5f5714975783961908276de3",3,"Control A","SWING","fog","Study2","U","JOL",2612,"2",3442,"fog",100,"fog",1
394,"5f5714975783961908276de3",3,"Control A","SYSTEM","lick","Study2","U","JOL",3573,"3",1312,"",0,"lick",0
395,"5f5714975783961908276de3",3,"Control A","TUCK","allow","Study2","U","JOL",3156,"1",1706,"",0,"allow",0
396,"5f5714975783961908276de3",3,"Control A","VASE","king","Study2","U","JOL",4976,"10",2122,"",0,"king",0
397,"5f5714975783961908276de3",3,"Control A","WASTE","sedate","Study2","U","JOL",5490,"5",2477,"",0,"sedate",0
398,"5f5714975783961908276de3",3,"Control A","WOMAN","lift","Study2","U","JOL",3230,"10",3330,"lift",100,"lift",1
399,"5f5714975783961908276de3",3,"Control A","WOULD","cash","Study2","U","JOL",4011,"5",1420,"",0,"cash",0
400,"5f5714975783961908276de3",3,"Control A","ZOO","thumb","Study2","U","JOL",3277,"10",4781,"thumb",100,"thumb",1
401,"5f5e3cf646d1426af7f28097",3,"Control A","BAT","shaky","Study1","U","JOL",3988,"10",7137,"",0,"shaky",0
402,"5f5e3cf646d1426af7f28097",3,"Control A","BOTH","ounce","Study1","U","JOL",6371,"20",1839,"",0,"ounce",0
403,"5f5e3cf646d1426af7f28097",3,"Control A","BROAD","infect","Study1","U","JOL",1795,"5",2157,"",0,"infect",0
404,"5f5e3cf646d1426af7f28097",3,"Control A","CAKE","clothes","Study1","U","JOL",3700,"11",4233,"clothes",100,"clothes",1
405,"5f5e3cf646d1426af7f28097",3,"Control A","CRACKLE","able","Study1","U","JOL",3460,"29",4200,"bang",25,"able",0
406,"5f5e3cf646d1426af7f28097",3,"Control A","CRAYON","rate","Study1","U","JOL",8684,"9",6605,"feeling",18.181818181818,"rate",0
407,"5f5e3cf646d1426af7f28097",3,"Control A","DEGREE","chair","Study1","U","JOL",3891,"22",3457,"",0,"chair",0
408,"5f5e3cf646d1426af7f28097",3,"Control A","DIFFICULT","poor","Study1","U","JOL",4188,"60",4870,"numbers",18.181818181818,"poor",0
409,"5f5e3cf646d1426af7f28097",3,"Control A","DIZZY","sweater","Study1","U","JOL",4037,"40",6341,"sweater",100,"sweater",1
410,"5f5e3cf646d1426af7f28097",3,"Control A","DONKEY","lush","Study1","U","JOL",4958,"4",5004,"kong",0,"lush",0
411,"5f5e3cf646d1426af7f28097",3,"Control A","FUTURE","sincere","Study1","U","JOL",3322,"5",5380,"peace",33.333333333333,"sincere",0
412,"5f5e3cf646d1426af7f28097",3,"Control A","FUZZY","bang","Study1","U","JOL",4412,"30",11020,"boom",25,"bang",0
413,"5f5e3cf646d1426af7f28097",3,"Control A","GIVE","steak","Study1","U","JOL",5263,"18",5123,"take",66.666666666667,"steak",0
414,"5f5e3cf646d1426af7f28097",3,"Control A","GRIND","stand","Study1","U","JOL",3149,"30",1670,"",0,"stand",0
415,"5f5e3cf646d1426af7f28097",3,"Control A","INFLATE","disgust","Study1","U","JOL",3421,"30",5679,"despair",28.571428571429,"disgust",0
416,"5f5e3cf646d1426af7f28097",3,"Control A","JUSTICE","maroon","Study1","U","JOL",2958,"20",5047,"",0,"maroon",0
417,"5f5e3cf646d1426af7f28097",3,"Control A","KEYS","joke","Study1","U","JOL",3613,"32",2770,"",0,"joke",0
418,"5f5e3cf646d1426af7f28097",3,"Control A","LEASE","toil","Study1","U","JOL",3645,"8",3536,"toil",100,"toil",1
419,"5f5e3cf646d1426af7f28097",3,"Control A","LISTEN","fiction","Study1","U","JOL",3964,"10",3730,"close",33.333333333333,"fiction",0
420,"5f5e3cf646d1426af7f28097",3,"Control A","LOAN","sign","Study1","U","JOL",4856,"50",4632,"",0,"sign",0
421,"5f5e3cf646d1426af7f28097",3,"Control A","MAIN","scar","Study1","U","JOL",3362,"16",2939,"",0,"scar",0
422,"5f5e3cf646d1426af7f28097",3,"Control A","MAZE","election","Study1","U","JOL",3198,"12",7704,"election",100,"election",1
423,"5f5e3cf646d1426af7f28097",3,"Control A","MEAT","obtain","Study1","U","JOL",4742,"23",7769,"",0,"obtain",0
424,"5f5e3cf646d1426af7f28097",3,"Control A","MIRROR","children","Study1","U","JOL",4950,"26",4416,"children",100,"children",1
425,"5f5e3cf646d1426af7f28097",3,"Control A","MOAT","clear","Study1","U","JOL",4029,"18",1951,"",0,"clear",0
426,"5f5e3cf646d1426af7f28097",3,"Control A","NAME","hate","Study1","U","JOL",4512,"40",3248,"",0,"hate",0
427,"5f5e3cf646d1426af7f28097",3,"Control A","NUMBER","hard","Study1","U","JOL",3575,"40",5014,"hard",100,"hard",1
428,"5f5e3cf646d1426af7f28097",3,"Control A","PARCEL","throat","Study1","U","JOL",3062,"10",7723,"throat",100,"throat",1
429,"5f5e3cf646d1426af7f28097",3,"Control A","PET","moon","Study1","U","JOL",2973,"17",2539,"",0,"moon",0
430,"5f5e3cf646d1426af7f28097",3,"Control A","RESIST","glue","Study1","U","JOL",6129,"13",5389,"tempt",22.222222222222,"glue",0
431,"5f5e3cf646d1426af7f28097",3,"Control A","RIPE","verify","Study1","U","JOL",4382,"23",3226,"old",0,"verify",0
432,"5f5e3cf646d1426af7f28097",3,"Control A","ROSE","neglect","Study1","U","JOL",3852,"26",5531,"neglect",100,"neglect",1
433,"5f5e3cf646d1426af7f28097",3,"Control A","SHELL","shake","Study1","U","JOL",6929,"35",5602,"shake",100,"shake",1
434,"5f5e3cf646d1426af7f28097",3,"Control A","STRESS","yam","Study1","U","JOL",12454,"19",3655,"test",0,"yam",0
435,"5f5e3cf646d1426af7f28097",3,"Control A","STRETCH","cloth","Study1","U","JOL",5978,"75",7132,"fabric",18.181818181818,"cloth",0
436,"5f5e3cf646d1426af7f28097",3,"Control A","TAX","owl","Study1","U","JOL",4603,"35",5248,"",0,"owl",0
437,"5f5e3cf646d1426af7f28097",3,"Control A","TEMPERATURE","morning","Study1","U","JOL",5431,"68",3612,"morning",100,"morning",1
438,"5f5e3cf646d1426af7f28097",3,"Control A","THICK","contest","Study1","U","JOL",2992,"1",1567,"",0,"contest",0
439,"5f5e3cf646d1426af7f28097",3,"Control A","VEHICLE","charm","Study1","U","JOL",5842,"4",3629,"hire",44.444444444444,"charm",0
440,"5f5e3cf646d1426af7f28097",3,"Control A","WARN","sea","Study1","U","JOL",7039,"27",2868,"sea",100,"sea",1
441,"5f5e3cf646d1426af7f28097",3,"Control A","ACCIDENT","strong","Study2","U","JOL",31174,"30",4502,"road",40,"strong",0
442,"5f5e3cf646d1426af7f28097",3,"Control A","ADD","valley","Study2","U","JOL",4487,"3",1065,"",0,"valley",0
443,"5f5e3cf646d1426af7f28097",3,"Control A","BELT","soon","Study2","U","JOL",6104,"9",1021,"",0,"soon",0
444,"5f5e3cf646d1426af7f28097",3,"Control A","BRONZE","artery","Study2","U","JOL",4992,"5",4350,"silver",33.333333333333,"artery",0
445,"5f5e3cf646d1426af7f28097",3,"Control A","Business","death","Study2","U","JOL",1940,"7",1879,"",0,"death",0
446,"5f5e3cf646d1426af7f28097",3,"Control A","CLUTTER","pusher","Study2","U","JOL",3087,"10",2956,"free",20,"pusher",0
447,"5f5e3cf646d1426af7f28097",3,"Control A","DESIRE","noise","Study2","U","JOL",4266,"18",2039,"noise",100,"noise",1
448,"5f5e3cf646d1426af7f28097",3,"Control A","DESIRE","noise","Study2","U","JOL",4344,"60",3907,"noise",100,"noise",1
449,"5f5e3cf646d1426af7f28097",3,"Control A","DETECT","free","Study2","U","JOL",1187,"2",3312,"",0,"free",0
450,"5f5e3cf646d1426af7f28097",3,"Control A","FLOAT","harmony","Study2","U","JOL",2737,"10",6730,"wave",18.181818181818,"harmony",0
451,"5f5e3cf646d1426af7f28097",3,"Control A","FLOOR","discover","Study2","U","JOL",2893,"20",7258,"dance",46.153846153846,"discover",0
452,"5f5e3cf646d1426af7f28097",3,"Control A","GUARD","wheel","Study2","U","JOL",2443,"45",4682,"idewa",20,"wheel",0
453,"5f5e3cf646d1426af7f28097",3,"Control A","HAND","fix","Study2","U","JOL",4643,"40",1035,"",0,"fix",0
454,"5f5e3cf646d1426af7f28097",3,"Control A","HUNGRY","park","Study2","U","JOL",4834,"22",1228,"",0,"park",0
455,"5f5e3cf646d1426af7f28097",3,"Control A","JELLY","naughty","Study2","U","JOL",3026,"23",1840,"",0,"naughty",0
456,"5f5e3cf646d1426af7f28097",3,"Control A","LAKE","opinion","Study2","U","JOL",2865,"14",6944,"mountain",40,"opinion",0
457,"5f5e3cf646d1426af7f28097",3,"Control A","LION","art","Study2","U","JOL",2083,"10",1316,"",0,"art",0
458,"5f5e3cf646d1426af7f28097",3,"Control A","MUTE","wave","Study2","U","JOL",7193,"38",4993,"wave",100,"wave",1
459,"5f5e3cf646d1426af7f28097",3,"Control A","NULL","cough","Study2","U","JOL",6204,"4",5934,"cough",100,"cough",1
460,"5f5e3cf646d1426af7f28097",3,"Control A","POSITION","machine","Study2","U","JOL",5324,"60",11068,"machiene",93.333333333333,"machine",1
461,"5f5e3cf646d1426af7f28097",3,"Control A","PUFF","number","Study2","U","JOL",11073,"8",4197,"",0,"number",0
462,"5f5e3cf646d1426af7f28097",3,"Control A","PUT","roll","Study2","U","JOL",2484,"10",5600,"away",0,"roll",0
463,"5f5e3cf646d1426af7f28097",3,"Control A","READY","corn","Study2","U","JOL",9393,"20",3868,"set",0,"corn",0
464,"5f5e3cf646d1426af7f28097",3,"Control A","RIDDLE","sugar","Study2","U","JOL",2436,"20",1397,"",0,"sugar",0
465,"5f5e3cf646d1426af7f28097",3,"Control A","ROAD","scent","Study2","U","JOL",1895,"0",7270,"map",0,"scent",0
466,"5f5e3cf646d1426af7f28097",3,"Control A","SACKING","dietary","Study2","U","JOL",3457,"0",5637,"dietary",100,"dietary",1
467,"5f5e3cf646d1426af7f28097",3,"Control A","SICK","hide","Study2","U","JOL",8651,"20",3614,"hide",100,"hide",1
468,"5f5e3cf646d1426af7f28097",3,"Control A","SIGHT","debate","Study2","U","JOL",5268,"12",2175,"",0,"debate",0
469,"5f5e3cf646d1426af7f28097",3,"Control A","SLIM","know","Study2","U","JOL",2228,"20",7002,"know",100,"know",1
470,"5f5e3cf646d1426af7f28097",3,"Control A","SMOOTH","omit","Study2","U","JOL",2270,"1",3969,"",0,"omit",0
471,"5f5e3cf646d1426af7f28097",3,"Control A","SPELL","bone","Study2","U","JOL",1920,"1",1528,"",0,"bone",0
472,"5f5e3cf646d1426af7f28097",3,"Control A","STOMACH","town","Study2","U","JOL",2841,"20",5718,"hunger",20,"town",0
473,"5f5e3cf646d1426af7f28097",3,"Control A","SWING","fog","Study2","U","JOL",2504,"15",3055,"",0,"fog",0
474,"5f5e3cf646d1426af7f28097",3,"Control A","SYSTEM","lick","Study2","U","JOL",2330,"10",6039,"upgrade",0,"lick",0
475,"5f5e3cf646d1426af7f28097",3,"Control A","TUCK","allow","Study2","U","JOL",3164,"12",3195,"in",0,"allow",0
476,"5f5e3cf646d1426af7f28097",3,"Control A","VASE","king","Study2","U","JOL",2373,"11",4073,"broken",40,"king",0
477,"5f5e3cf646d1426af7f28097",3,"Control A","WASTE","sedate","Study2","U","JOL",2495,"0",3498,"",0,"sedate",0
478,"5f5e3cf646d1426af7f28097",3,"Control A","WOMAN","lift","Study2","U","JOL",4826,"50",6899,"lif",85.714285714286,"lift",1
479,"5f5e3cf646d1426af7f28097",3,"Control A","WOULD","cash","Study2","U","JOL",4782,"8",717,"",0,"cash",0
480,"5f5e3cf646d1426af7f28097",3,"Control A","ZOO","thumb","Study2","U","JOL",3025,"1",23955,"viw",0,"thumb",0
481,"5f60eb87ae343700080fe6a9",3,"Control A","BAT","shaky","Study1","U","JOL",3205,"45",3310,"shaky",100,"shaky",1
482,"5f60eb87ae343700080fe6a9",3,"Control A","BOTH","ounce","Study1","U","JOL",5074,"20",1541,"",0,"ounce",0
483,"5f60eb87ae343700080fe6a9",3,"Control A","BROAD","infect","Study1","U","JOL",4109,"35",2921,"",0,"infect",0
484,"5f60eb87ae343700080fe6a9",3,"Control A","CAKE","clothes","Study1","U","JOL",4409,"15",2327,"eat",20,"clothes",0
485,"5f60eb87ae343700080fe6a9",3,"Control A","CRACKLE","able","Study1","U","JOL",6331,"15",3003,"",0,"able",0
486,"5f60eb87ae343700080fe6a9",3,"Control A","CRAYON","rate","Study1","U","JOL",4544,"15",4113,"rate",100,"rate",1
487,"5f60eb87ae343700080fe6a9",3,"Control A","DEGREE","chair","Study1","U","JOL",9256,"15",2920,"",0,"chair",0
488,"5f60eb87ae343700080fe6a9",3,"Control A","DIFFICULT","poor","Study1","U","JOL",4672,"55",2557,"poor",100,"poor",1
489,"5f60eb87ae343700080fe6a9",3,"Control A","DIZZY","sweater","Study1","U","JOL",7094,"45",8016,"sweater",100,"sweater",1
490,"5f60eb87ae343700080fe6a9",3,"Control A","DONKEY","lush","Study1","U","JOL",3616,"50",2103,"lush",100,"lush",1
491,"5f60eb87ae343700080fe6a9",3,"Control A","FUTURE","sincere","Study1","U","JOL",3207,"15",2045,"",0,"sincere",0
492,"5f60eb87ae343700080fe6a9",3,"Control A","FUZZY","bang","Study1","U","JOL",3420,"15",2267,"bang",100,"bang",1
493,"5f60eb87ae343700080fe6a9",3,"Control A","GIVE","steak","Study1","U","JOL",3212,"55",2645,"steak",100,"steak",1
494,"5f60eb87ae343700080fe6a9",3,"Control A","GRIND","stand","Study1","U","JOL",5190,"10",6229,"stand",100,"stand",1
495,"5f60eb87ae343700080fe6a9",3,"Control A","INFLATE","disgust","Study1","U","JOL",3824,"5",1879,"",0,"disgust",0
496,"5f60eb87ae343700080fe6a9",3,"Control A","JUSTICE","maroon","Study1","U","JOL",5048,"10",2250,"maroon",100,"maroon",1
497,"5f60eb87ae343700080fe6a9",3,"Control A","KEYS","joke","Study1","U","JOL",3056,"15",2115,"joke",100,"joke",1
498,"5f60eb87ae343700080fe6a9",3,"Control A","LEASE","toil","Study1","U","JOL",2112,"15",4063,"loan",25,"toil",0
499,"5f60eb87ae343700080fe6a9",3,"Control A","LISTEN","fiction","Study1","U","JOL",3726,"40",3396,"fiction",100,"fiction",1
500,"5f60eb87ae343700080fe6a9",3,"Control A","LOAN","sign","Study1","U","JOL",4935,"40",1681,"",0,"sign",0
501,"5f60eb87ae343700080fe6a9",3,"Control A","MAIN","scar","Study1","U","JOL",5067,"70",2394,"goal",25,"scar",0
502,"5f60eb87ae343700080fe6a9",3,"Control A","MAZE","election","Study1","U","JOL",3739,"40",3944,"election",100,"election",1
503,"5f60eb87ae343700080fe6a9",3,"Control A","MEAT","obtain","Study1","U","JOL",3955,"20",1547,"",0,"obtain",0
504,"5f60eb87ae343700080fe6a9",3,"Control A","MIRROR","children","Study1","U","JOL",4446,"20",2666,"children",100,"children",1
505,"5f60eb87ae343700080fe6a9",3,"Control A","MOAT","clear","Study1","U","JOL",4067,"35",3451,"clear",100,"clear",1
506,"5f60eb87ae343700080fe6a9",3,"Control A","NAME","hate","Study1","U","JOL",4772,"60",3696,"",0,"hate",0
507,"5f60eb87ae343700080fe6a9",3,"Control A","NUMBER","hard","Study1","U","JOL",4487,"25",2633,"",0,"hard",0
508,"5f60eb87ae343700080fe6a9",3,"Control A","PARCEL","throat","Study1","U","JOL",5332,"60",2135,"",0,"throat",0
509,"5f60eb87ae343700080fe6a9",3,"Control A","PET","moon","Study1","U","JOL",2581,"45",6058,"moon",100,"moon",1
510,"5f60eb87ae343700080fe6a9",3,"Control A","RESIST","glue","Study1","U","JOL",2861,"35",1953,"glue",100,"glue",1
511,"5f60eb87ae343700080fe6a9",3,"Control A","RIPE","verify","Study1","U","JOL",11348,"10",2783,"",0,"verify",0
512,"5f60eb87ae343700080fe6a9",3,"Control A","ROSE","neglect","Study1","U","JOL",4012,"35",1038,"",0,"neglect",0
513,"5f60eb87ae343700080fe6a9",3,"Control A","SHELL","shake","Study1","U","JOL",3324,"65",3830,"smash",40,"shake",0
514,"5f60eb87ae343700080fe6a9",3,"Control A","STRESS","yam","Study1","U","JOL",2836,"15",1750,"",0,"yam",0
515,"5f60eb87ae343700080fe6a9",3,"Control A","STRETCH","cloth","Study1","U","JOL",6144,"30",2428,"cloth",100,"cloth",1
516,"5f60eb87ae343700080fe6a9",3,"Control A","TAX","owl","Study1","U","JOL",6820,"45",1601,"owl",100,"owl",1
517,"5f60eb87ae343700080fe6a9",3,"Control A","TEMPERATURE","morning","Study1","U","JOL",3944,"60",1985,"morning",100,"morning",1
518,"5f60eb87ae343700080fe6a9",3,"Control A","THICK","contest","Study1","U","JOL",3971,"30",909,"",0,"contest",0
519,"5f60eb87ae343700080fe6a9",3,"Control A","VEHICLE","charm","Study1","U","JOL",3007,"15",1668,"charm",100,"charm",1
520,"5f60eb87ae343700080fe6a9",3,"Control A","WARN","sea","Study1","U","JOL",4588,"25",3115,"",0,"sea",0
521,"5f60eb87ae343700080fe6a9",3,"Control A","ACCIDENT","strong","Study2","U","JOL",4426,"25",3144,"strong",100,"strong",1
522,"5f60eb87ae343700080fe6a9",3,"Control A","ADD","valley","Study2","U","JOL",6893,"20",2003,"valley",100,"valley",1
523,"5f60eb87ae343700080fe6a9",3,"Control A","BELT","soon","Study2","U","JOL",6737,"30",1574,"soon",100,"soon",1
524,"5f60eb87ae343700080fe6a9",3,"Control A","BRONZE","artery","Study2","U","JOL",4596,"5",2030,"artery",100,"artery",1
525,"5f60eb87ae343700080fe6a9",3,"Control A","Business","death","Study2","U","JOL",7422,"30",2578,"death",100,"death",1
526,"5f60eb87ae343700080fe6a9",3,"Control A","CAR","happy","Study2","U","JOL",6328,"30",1991,"happy",100,"happy",1
527,"5f60eb87ae343700080fe6a9",3,"Control A","CLUTTER","pusher","Study2","U","JOL",4361,"30",8408,"pusher",100,"pusher",1
528,"5f60eb87ae343700080fe6a9",3,"Control A","DESIRE","noise","Study2","U","JOL",5099,"15",2135,"noise",100,"noise",1
529,"5f60eb87ae343700080fe6a9",3,"Control A","DETECT","free","Study2","U","JOL",7658,"25",1829,"free",100,"free",1
530,"5f60eb87ae343700080fe6a9",3,"Control A","FLOAT","harmony","Study2","U","JOL",8356,"25",2815,"harmony",100,"harmony",1
531,"5f60eb87ae343700080fe6a9",3,"Control A","FLOAT","harmony","Study2","U","JOL",6799,"25",1685,"harmony",100,"harmony",1
532,"5f60eb87ae343700080fe6a9",3,"Control A","FLOOR","discover","Study2","U","JOL",5008,"20",2288,"discover",100,"discover",1
533,"5f60eb87ae343700080fe6a9",3,"Control A","GUARD","wheel","Study2","U","JOL",6141,"20",5429,"quick",0,"wheel",0
534,"5f60eb87ae343700080fe6a9",3,"Control A","HAND","fix","Study2","U","JOL",4714,"30",2730,"",0,"fix",0
535,"5f60eb87ae343700080fe6a9",3,"Control A","HUNGRY","park","Study2","U","JOL",4354,"20",4548,"",0,"park",0
536,"5f60eb87ae343700080fe6a9",3,"Control A","JELLY","naughty","Study2","U","JOL",6790,"10",2338,"naughty",100,"naughty",1
537,"5f60eb87ae343700080fe6a9",3,"Control A","LAKE","opinion","Study2","U","JOL",10558,"20",9069,"thought",14.285714285714,"opinion",0
538,"5f60eb87ae343700080fe6a9",3,"Control A","LION","art","Study2","U","JOL",4275,"25",4443,"king",0,"art",0
539,"5f60eb87ae343700080fe6a9",3,"Control A","MUTE","wave","Study2","U","JOL",5562,"40",3126,"wave",100,"wave",1
540,"5f60eb87ae343700080fe6a9",3,"Control A","NULL","cough","Study2","U","JOL",8555,"20",2307,"cough",100,"cough",1
541,"5f60eb87ae343700080fe6a9",3,"Control A","POSITION","machine","Study2","U","JOL",3956,"15",10125,"",0,"machine",0
542,"5f60eb87ae343700080fe6a9",3,"Control A","PUFF","number","Study2","U","JOL",7831,"15",3192,"number",100,"number",1
543,"5f60eb87ae343700080fe6a9",3,"Control A","PUT","roll","Study2","U","JOL",4874,"25",1881,"",0,"roll",0
544,"5f60eb87ae343700080fe6a9",3,"Control A","READY","corn","Study2","U","JOL",3669,"30",5293,"go",33.333333333333,"corn",0
545,"5f60eb87ae343700080fe6a9",3,"Control A","RIDDLE","sugar","Study2","U","JOL",2954,"5",2251,"sugar",100,"sugar",1
546,"5f60eb87ae343700080fe6a9",3,"Control A","ROAD","scent","Study2","U","JOL",4450,"35",4157,"",0,"scent",0
547,"5f60eb87ae343700080fe6a9",3,"Control A","SACKING","dietary","Study2","U","JOL",4492,"10",3564,"",0,"dietary",0
548,"5f60eb87ae343700080fe6a9",3,"Control A","SICK","hide","Study2","U","JOL",6602,"40",3077,"hide",100,"hide",1
549,"5f60eb87ae343700080fe6a9",3,"Control A","SIGHT","debate","Study2","U","JOL",6426,"20",3081,"debate",100,"debate",1
550,"5f60eb87ae343700080fe6a9",3,"Control A","SLIM","know","Study2","U","JOL",4690,"15",8772,"look",25,"know",0
551,"5f60eb87ae343700080fe6a9",3,"Control A","SMOOTH","omit","Study2","U","JOL",11156,"10",2003,"butter",20,"omit",0
552,"5f60eb87ae343700080fe6a9",3,"Control A","SPELL","bone","Study2","U","JOL",7595,"30",3238,"bone",100,"bone",1
553,"5f60eb87ae343700080fe6a9",3,"Control A","STOMACH","town","Study2","U","JOL",6115,"20",6673,"town",100,"town",1
554,"5f60eb87ae343700080fe6a9",3,"Control A","SWING","fog","Study2","U","JOL",8551,"15",1546,"fog",100,"fog",1
555,"5f60eb87ae343700080fe6a9",3,"Control A","SYSTEM","lick","Study2","U","JOL",5035,"25",9103,"move",0,"lick",0
556,"5f60eb87ae343700080fe6a9",3,"Control A","TUCK","allow","Study2","U","JOL",12785,"15",3143,"allow",100,"allow",1
557,"5f60eb87ae343700080fe6a9",3,"Control A","WASTE","sedate","Study2","U","JOL",5156,"5",5750,"sedate",100,"sedate",1
558,"5f60eb87ae343700080fe6a9",3,"Control A","WOMAN","lift","Study2","U","JOL",5349,"25",3398,"man",0,"lift",0
559,"5f60eb87ae343700080fe6a9",3,"Control A","WOULD","cash","Study2","U","JOL",5843,"25",2120,"",0,"cash",0
560,"5f60eb87ae343700080fe6a9",3,"Control A","ZOO","thumb","Study2","U","JOL",5110,"15",2822,"thumb",100,"thumb",1
561,"5f8dc2ee68198210fa895827",3,"Control A","BAT","shaky","Study1","U","JOL",8029,"40",4794,"",0,"shaky",0
562,"5f8dc2ee68198210fa895827",3,"Control A","BOTH","ounce","Study1","U","JOL",4186,"40",1704,"",0,"ounce",0
563,"5f8dc2ee68198210fa895827",3,"Control A","BROAD","infect","Study1","U","JOL",5497,"40",14276,"",0,"infect",0
564,"5f8dc2ee68198210fa895827",3,"Control A","CAKE","clothes","Study1","U","JOL",4402,"50",7683,"clothes",100,"clothes",1
565,"5f8dc2ee68198210fa895827",3,"Control A","CRACKLE","able","Study1","U","JOL",6475,"40",2834,"",0,"able",0
566,"5f8dc2ee68198210fa895827",3,"Control A","CRAYON","rate","Study1","U","JOL",4184,"60",8047,"sign",0,"rate",0
567,"5f8dc2ee68198210fa895827",3,"Control A","DEGREE","chair","Study1","U","JOL",3302,"50",6478,"",0,"chair",0
568,"5f8dc2ee68198210fa895827",3,"Control A","DIFFICULT","poor","Study1","U","JOL",3422,"70",3815,"",0,"poor",0
569,"5f8dc2ee68198210fa895827",3,"Control A","DIZZY","sweater","Study1","U","JOL",5236,"50",10667,"",0,"sweater",0
570,"5f8dc2ee68198210fa895827",3,"Control A","DONKEY","lush","Study1","U","JOL",5515,"50",17557,"",0,"lush",0
571,"5f8dc2ee68198210fa895827",3,"Control A","FUTURE","sincere","Study1","U","JOL",3853,"60",12629,"",0,"sincere",0
572,"5f8dc2ee68198210fa895827",3,"Control A","FUZZY","bang","Study1","U","JOL",5061,"60",21308,"",0,"bang",0
573,"5f8dc2ee68198210fa895827",3,"Control A","GIVE","steak","Study1","U","JOL",4682,"60",3122,"take",66.666666666667,"steak",0
574,"5f8dc2ee68198210fa895827",3,"Control A","GRIND","stand","Study1","U","JOL",9689,"60",13642,"sand",88.888888888889,"stand",1
575,"5f8dc2ee68198210fa895827",3,"Control A","INFLATE","disgust","Study1","U","JOL",4787,"50",1397,"",0,"disgust",0
576,"5f8dc2ee68198210fa895827",3,"Control A","JUSTICE","maroon","Study1","U","JOL",3562,"30",4671,"",0,"maroon",0
577,"5f8dc2ee68198210fa895827",3,"Control A","KEYS","joke","Study1","U","JOL",3805,"50",8854,"",0,"joke",0
578,"5f8dc2ee68198210fa895827",3,"Control A","LEASE","toil","Study1","U","JOL",5467,"25",8716,"permit",20,"toil",0
579,"5f8dc2ee68198210fa895827",3,"Control A","LISTEN","fiction","Study1","U","JOL",4503,"60",2730,"",0,"fiction",0
580,"5f8dc2ee68198210fa895827",3,"Control A","LOAN","sign","Study1","U","JOL",3532,"50",5065,"sign",100,"sign",1
581,"5f8dc2ee68198210fa895827",3,"Control A","MAIN","scar","Study1","U","JOL",5239,"50",1940,"",0,"scar",0
582,"5f8dc2ee68198210fa895827",3,"Control A","MAZE","election","Study1","U","JOL",4474,"60",10609,"election",100,"election",1
583,"5f8dc2ee68198210fa895827",3,"Control A","MEAT","obtain","Study1","U","JOL",7900,"50",3974,"",0,"obtain",0
584,"5f8dc2ee68198210fa895827",3,"Control A","MIRROR","children","Study1","U","JOL",5397,"60",4751,"children",100,"children",1
585,"5f8dc2ee68198210fa895827",3,"Control A","MOAT","clear","Study1","U","JOL",6889,"60",4015,"clear",100,"clear",1
586,"5f8dc2ee68198210fa895827",3,"Control A","NAME","hate","Study1","U","JOL",4228,"50",3418,"",0,"hate",0
587,"5f8dc2ee68198210fa895827",3,"Control A","NUMBER","hard","Study1","U","JOL",4153,"70",3948,"hard",100,"hard",1
588,"5f8dc2ee68198210fa895827",3,"Control A","PARCEL","throat","Study1","U","JOL",3828,"30",1652,"",0,"throat",0
589,"5f8dc2ee68198210fa895827",3,"Control A","PET","moon","Study1","U","JOL",5466,"40",4739,"moon",100,"moon",1
590,"5f8dc2ee68198210fa895827",3,"Control A","RESIST","glue","Study1","U","JOL",3623,"80",9348,"glue",100,"glue",1
591,"5f8dc2ee68198210fa895827",3,"Control A","RIPE","verify","Study1","U","JOL",4623,"40",2257,"",0,"verify",0
592,"5f8dc2ee68198210fa895827",3,"Control A","ROSE","neglect","Study1","U","JOL",7287,"40",5088,"warning",28.571428571429,"neglect",0
593,"5f8dc2ee68198210fa895827",3,"Control A","SHELL","shake","Study1","U","JOL",11695,"60",9185,"shaky",80,"shake",1
594,"5f8dc2ee68198210fa895827",3,"Control A","STRESS","yam","Study1","U","JOL",8514,"35",3588,"",0,"yam",0
595,"5f8dc2ee68198210fa895827",3,"Control A","STRETCH","cloth","Study1","U","JOL",3322,"60",5352,"fabric",18.181818181818,"cloth",0
596,"5f8dc2ee68198210fa895827",3,"Control A","TAX","owl","Study1","U","JOL",5195,"50",6225,"",0,"owl",0
597,"5f8dc2ee68198210fa895827",3,"Control A","TEMPERATURE","morning","Study1","U","JOL",3777,"70",4812,"morning",100,"morning",1
598,"5f8dc2ee68198210fa895827",3,"Control A","THICK","contest","Study1","U","JOL",5729,"35",1607,"",0,"contest",0
599,"5f8dc2ee68198210fa895827",3,"Control A","VEHICLE","charm","Study1","U","JOL",3792,"60",2308,"",0,"charm",0
600,"5f8dc2ee68198210fa895827",3,"Control A","WARN","sea","Study1","U","JOL",4731,"50",16747,"sea",100,"sea",1
601,"5f8dc2ee68198210fa895827",3,"Control A","ACCIDENT","strong","Study2","U","JOL",4282,"40",9102,"serious",46.153846153846,"strong",0
602,"5f8dc2ee68198210fa895827",3,"Control A","ADD","valley","Study2","U","JOL",4876,"25",903,"",0,"valley",0
603,"5f8dc2ee68198210fa895827",3,"Control A","BELT","soon","Study2","U","JOL",2908,"20",3759,"soon",100,"soon",1
604,"5f8dc2ee68198210fa895827",3,"Control A","BRONZE","artery","Study2","U","JOL",6287,"15",1221,"",0,"artery",0
605,"5f8dc2ee68198210fa895827",3,"Control A","Business","death","Study2","U","JOL",3216,"50",10301,"death",100,"death",1
606,"5f8dc2ee68198210fa895827",3,"Control A","CAR","happy","Study2","U","JOL",4946,"20",5544,"happy",100,"happy",1
607,"5f8dc2ee68198210fa895827",3,"Control A","CLUTTER","pusher","Study2","U","JOL",4445,"20",8418,"",0,"pusher",0
608,"5f8dc2ee68198210fa895827",3,"Control A","DESIRE","noise","Study2","U","JOL",4018,"20",6217,"",0,"noise",0
609,"5f8dc2ee68198210fa895827",3,"Control A","DETECT","free","Study2","U","JOL",4092,"30",7038,"",0,"free",0
610,"5f8dc2ee68198210fa895827",3,"Control A","FLOAT","harmony","Study2","U","JOL",4063,"30",1620,"",0,"harmony",0
611,"5f8dc2ee68198210fa895827",3,"Control A","FLOOR","discover","Study2","U","JOL",3583,"30",9213,"discover",100,"discover",1
612,"5f8dc2ee68198210fa895827",3,"Control A","GUARD","wheel","Study2","U","JOL",2498,"10",9517,"shield",54.545454545455,"wheel",0
613,"5f8dc2ee68198210fa895827",3,"Control A","HAND","fix","Study2","U","JOL",2631,"50",4819,"thumb",0,"fix",0
614,"5f8dc2ee68198210fa895827",3,"Control A","HUNGRY","park","Study2","U","JOL",4622,"20",4054,"park",100,"park",1
615,"5f8dc2ee68198210fa895827",3,"Control A","JELLY","naughty","Study2","U","JOL",6812,"30",5000,"",0,"naughty",0
616,"5f8dc2ee68198210fa895827",3,"Control A","LAKE","opinion","Study2","U","JOL",3950,"20",12791,"",0,"opinion",0
617,"5f8dc2ee68198210fa895827",3,"Control A","LION","art","Study2","U","JOL",2874,"50",3615,"art",100,"art",1
618,"5f8dc2ee68198210fa895827",3,"Control A","MUTE","wave","Study2","U","JOL",4178,"25",1827,"",0,"wave",0
619,"5f8dc2ee68198210fa895827",3,"Control A","NULL","cough","Study2","U","JOL",4336,"20",8701,"",0,"cough",0
620,"5f8dc2ee68198210fa895827",3,"Control A","POSITION","machine","Study2","U","JOL",3707,"30",2366,"",0,"machine",0
621,"5f8dc2ee68198210fa895827",3,"Control A","PUFF","number","Study2","U","JOL",5282,"10",5634,"number",100,"number",1
622,"5f8dc2ee68198210fa895827",3,"Control A","READY","corn","Study2","U","JOL",7269,"25",3960,"",0,"corn",0
623,"5f8dc2ee68198210fa895827",3,"Control A","RIDDLE","sugar","Study2","U","JOL",6824,"10",10014,"sweet",20,"sugar",0
624,"5f8dc2ee68198210fa895827",3,"Control A","ROAD","scent","Study2","U","JOL",3104,"10",11738,"scent",100,"scent",1
625,"5f8dc2ee68198210fa895827",3,"Control A","SACKING","dietary","Study2","U","JOL",5530,"10",2049,"",0,"dietary",0
626,"5f8dc2ee68198210fa895827",3,"Control A","SICK","hide","Study2","U","JOL",3439,"30",3104,"",0,"hide",0
627,"5f8dc2ee68198210fa895827",3,"Control A","SIGHT","debate","Study2","U","JOL",4456,"35",3615,"",0,"debate",0
628,"5f8dc2ee68198210fa895827",3,"Control A","SIGHT","debate","Study2","U","JOL",7959,"45",1430,"",0,"debate",0
629,"5f8dc2ee68198210fa895827",3,"Control A","SLIM","know","Study2","U","JOL",9618,"35",3567,"",0,"know",0
630,"5f8dc2ee68198210fa895827",3,"Control A","SMOOTH","omit","Study2","U","JOL",4482,"25",3325,"",0,"omit",0
631,"5f8dc2ee68198210fa895827",3,"Control A","SPELL","bone","Study2","U","JOL",5660,"30",5186,"bones",88.888888888889,"bone",1
632,"5f8dc2ee68198210fa895827",3,"Control A","STOMACH","town","Study2","U","JOL",4193,"5",2029,"",0,"town",0
633,"5f8dc2ee68198210fa895827",3,"Control A","SWING","fog","Study2","U","JOL",3250,"20",2065,"",0,"fog",0
634,"5f8dc2ee68198210fa895827",3,"Control A","SYSTEM","lick","Study2","U","JOL",3944,"20",6494,"",0,"lick",0
635,"5f8dc2ee68198210fa895827",3,"Control A","TUCK","allow","Study2","U","JOL",3408,"10",1402,"",0,"allow",0
636,"5f8dc2ee68198210fa895827",3,"Control A","VASE","king","Study2","U","JOL",4814,"20",3012,"king",100,"king",1
637,"5f8dc2ee68198210fa895827",3,"Control A","WASTE","sedate","Study2","U","JOL",5255,"15",13457,"",0,"sedate",0
638,"5f8dc2ee68198210fa895827",3,"Control A","WOMAN","lift","Study2","U","JOL",2263,"10",4541,"",0,"lift",0
639,"5f8dc2ee68198210fa895827",3,"Control A","WOULD","cash","Study2","U","JOL",3703,"30",1362,"",0,"cash",0
640,"5f8dc2ee68198210fa895827",3,"Control A","ZOO","thumb","Study2","U","JOL",5025,"40",4950,"hand",22.222222222222,"thumb",0
641,"W10001293_KMR",3,"Control A","BAT","shaky","Study1","U","JOL",4205,"2",12594,"man",25,"shaky",0
642,"W10001293_KMR",3,"Control A","BOTH","ounce","Study1","U","JOL",4480,"0",19710,"of",28.571428571429,"ounce",0
643,"W10001293_KMR",3,"Control A","BROAD","infect","Study1","U","JOL",51368,"0",29871,"wide",40,"infect",0
644,"W10001293_KMR",3,"Control A","CAKE","clothes","Study1","U","JOL",5488,"10",11270,"chocolate",37.5,"clothes",0
645,"W10001293_KMR",3,"Control A","CRACKLE","able","Study1","U","JOL",11302,"0",16294,"barrel ",40,"able",0
646,"W10001293_KMR",3,"Control A","CRAYON","rate","Study1","U","JOL",69838,"0",23307,"color",22.222222222222,"rate",0
647,"W10001293_KMR",3,"Control A","DEGREE","chair","Study1","U","JOL",17875,"70",9215,"school",36.363636363636,"chair",0
648,"W10001293_KMR",3,"Control A","DIFFICULT","poor","Study1","U","JOL",6755,"20",73785,"hard",25,"poor",0
649,"W10001293_KMR",3,"Control A","DIZZY","sweater","Study1","U","JOL",7153,"8",14509,"sleep",50,"sweater",0
650,"W10001293_KMR",3,"Control A","DONKEY","lush","Study1","U","JOL",7820,"0",5984,"king",0,"lush",0
651,"W10001293_KMR",3,"Control A","FUTURE","sincere","Study1","U","JOL",137514,"0",27630,"husband ",28.571428571429,"sincere",0
652,"W10001293_KMR",3,"Control A","FUZZY","bang","Study1","U","JOL",6165,"0",8062,"hair",25,"bang",0
653,"W10001293_KMR",3,"Control A","GIVE","steak","Study1","U","JOL",12502,"0",4342,"take",66.666666666667,"steak",0
654,"W10001293_KMR",3,"Control A","GRIND","stand","Study1","U","JOL",4881,"5",11193,"work",0,"stand",0
655,"W10001293_KMR",3,"Control A","INFLATE","disgust","Study1","U","JOL",3733,"5",18798,"balloon ",0,"disgust",0
656,"W10001293_KMR",3,"Control A","JUSTICE","maroon","Study1","U","JOL",4336,"0",5437,"league",16.666666666667,"maroon",0
657,"W10001293_KMR",3,"Control A","KEYS","joke","Study1","U","JOL",7785,"0",21034,"lock",50,"joke",0
658,"W10001293_KMR",3,"Control A","LEASE","toil","Study1","U","JOL",2973,"0",54634,"apartment ",15.384615384615,"toil",0
659,"W10001293_KMR",3,"Control A","LISTEN","fiction","Study1","U","JOL",67932,"9",7532,"hear",0,"fiction",0
660,"W10001293_KMR",3,"Control A","LOAN","sign","Study1","U","JOL",5808,"0",7950,"money",22.222222222222,"sign",0
661,"W10001293_KMR",3,"Control A","MAIN","scar","Study1","U","JOL",6943,"0",7197,"street",40,"scar",0
662,"W10001293_KMR",3,"Control A","MAZE","election","Study1","U","JOL",8119,"10",30021,"runner",14.285714285714,"election",0
663,"W10001293_KMR",3,"Control A","MEAT","obtain","Study1","U","JOL",6624,"0",8846,"ball",40,"obtain",0
664,"W10001293_KMR",3,"Control A","MIRROR","children","Study1","U","JOL",87526,"5",46734,"reflect",26.666666666667,"children",0
665,"W10001293_KMR",3,"Control A","MOAT","clear","Study1","U","JOL",4083,"0",47545,"lie",50,"clear",0
666,"W10001293_KMR",3,"Control A","NAME","hate","Study1","U","JOL",69928,"70",6441,"tag",28.571428571429,"hate",0
667,"W10001293_KMR",3,"Control A","NUMBER","hard","Study1","U","JOL",19827,"10",6434,"two",0,"hard",0
668,"W10001293_KMR",3,"Control A","PARCEL","throat","Study1","U","JOL",25930,"0",43211,"couch",18.181818181818,"throat",0
669,"W10001293_KMR",3,"Control A","PET","moon","Study1","U","JOL",4748,"0",16410,"dog",28.571428571429,"moon",0
670,"W10001293_KMR",3,"Control A","RESIST","glue","Study1","U","JOL",7789,"10",20745,"train",0,"glue",0
671,"W10001293_KMR",3,"Control A","RIPE","verify","Study1","U","JOL",9018,"0",8786,"fruit",18.181818181818,"verify",0
672,"W10001293_KMR",3,"Control A","ROSE","neglect","Study1","U","JOL",89888,"20",5717,"petal",33.333333333333,"neglect",0
673,"W10001293_KMR",3,"Control A","SHELL","shake","Study1","U","JOL",62586,"50",4777,"oyster",36.363636363636,"shake",0
674,"W10001293_KMR",3,"Control A","STRESS","yam","Study1","U","JOL",4513,"2",5519,"relief",0,"yam",0
675,"W10001293_KMR",3,"Control A","STRETCH","cloth","Study1","U","JOL",31817,"50",7469,"back",22.222222222222,"cloth",0
676,"W10001293_KMR",3,"Control A","TAX","owl","Study1","U","JOL",9738,"1",9339,"income",22.222222222222,"owl",0
677,"W10001293_KMR",3,"Control A","TEMPERATURE","morning","Study1","U","JOL",5359,"60",19608,"morning ",100,"morning",1
678,"W10001293_KMR",3,"Control A","THICK","contest","Study1","U","JOL",8765,"70",19610,"big",0,"contest",0
679,"W10001293_KMR",3,"Control A","VEHICLE","charm","Study1","U","JOL",6313,"2",4115,"car",75,"charm",1
680,"W10001293_KMR",3,"Control A","WARN","sea","Study1","U","JOL",7525,"20",6489,"you",0,"sea",0
681,"W10001293_KMR",3,"Control A","ACCIDENT","strong","Study2","U","JOL",8412,"2",7133,"report",33.333333333333,"strong",0
682,"W10001293_KMR",3,"Control A","ADD","valley","Study2","U","JOL",22122,"1",8621,"subtract",14.285714285714,"valley",0
683,"W10001293_KMR",3,"Control A","BELT","soon","Study2","U","JOL",7187,"0",42945,"loop",50,"soon",1
684,"W10001293_KMR",3,"Control A","BRONZE","artery","Study2","U","JOL",9690,"0",10986,"metal",18.181818181818,"artery",0
685,"W10001293_KMR",3,"Control A","Business","death","Study2","U","JOL",5648,"0",7138,"card",22.222222222222,"death",0
686,"W10001293_KMR",3,"Control A","CAR","happy","Study2","U","JOL",9274,"70",6132,"happy",100,"happy",1
687,"W10001293_KMR",3,"Control A","CLUTTER","pusher","Study2","U","JOL",3553,"0",7303,"clothes",30.769230769231,"pusher",0
688,"W10001293_KMR",3,"Control A","DESIRE","noise","Study2","U","JOL",71017,"0",18121,"waste",40,"noise",0
689,"W10001293_KMR",3,"Control A","DESIRE","noise","Study2","U","JOL",7978,"5",32485,"waste",40,"noise",0
690,"W10001293_KMR",3,"Control A","DETECT","free","Study2","U","JOL",5376,"1",14214,"seek",50,"free",0
691,"W10001293_KMR",3,"Control A","FLOOR","discover","Study2","U","JOL",5886,"5",10801,"mop",18.181818181818,"discover",0
692,"W10001293_KMR",3,"Control A","GUARD","wheel","Study2","U","JOL",12170,"1",39421,"body",0,"wheel",0
693,"W10001293_KMR",3,"Control A","HAND","fix","Study2","U","JOL",5301,"7",11123,"arm",0,"fix",0
694,"W10001293_KMR",3,"Control A","HUNGRY","park","Study2","U","JOL",6600,"0",9498,"food",0,"park",0
695,"W10001293_KMR",3,"Control A","JELLY","naughty","Study2","U","JOL",13568,"1",7248,"bean",18.181818181818,"naughty",0
696,"W10001293_KMR",3,"Control A","LAKE","opinion","Study2","U","JOL",3298,"0",5976,"pond",54.545454545455,"opinion",0
697,"W10001293_KMR",3,"Control A","LION","art","Study2","U","JOL",5820,"1",20296,"pit",33.333333333333,"art",1
698,"W10001293_KMR",3,"Control A","MUTE","wave","Study2","U","JOL",4035,"0",9631,"quiet",22.222222222222,"wave",0
699,"W10001293_KMR",3,"Control A","NULL","cough","Study2","U","JOL",4141,"0",32567,"void",22.222222222222,"cough",0
700,"W10001293_KMR",3,"Control A","POSITION","machine","Study2","U","JOL",16998,"7",26269,"form",18.181818181818,"machine",0
701,"W10001293_KMR",3,"Control A","PUFF","number","Study2","U","JOL",10317,"5",5900,"pass",0,"number",0
702,"W10001293_KMR",3,"Control A","PUT","roll","Study2","U","JOL",4163,"2",4983,"out",28.571428571429,"roll",0
703,"W10001293_KMR",3,"Control A","READY","corn","Study2","U","JOL",7595,"10",5135,"go",33.333333333333,"corn",0
704,"W10001293_KMR",3,"Control A","RIDDLE","sugar","Study2","U","JOL",5801,"0",8148,"poet",0,"sugar",0
705,"W10001293_KMR",3,"Control A","ROAD","scent","Study2","U","JOL",4400,"0",26430,"trip",22.222222222222,"scent",0
706,"W10001293_KMR",3,"Control A","SACKING","dietary","Study2","U","JOL",52257,"0",40274,"lunch",0,"dietary",0
707,"W10001293_KMR",3,"Control A","SICK","hide","Study2","U","JOL",24825,"1",11520,"him",57.142857142857,"hide",1
708,"W10001293_KMR",3,"Control A","SIGHT","debate","Study2","U","JOL",5145,"0",7132,"see",44.444444444444,"debate",0
709,"W10001293_KMR",3,"Control A","SLIM","know","Study2","U","JOL",6389,"2",6292,"fit",0,"know",0
710,"W10001293_KMR",3,"Control A","SMOOTH","omit","Study2","U","JOL",3488,"0",13720,"criminal ",33.333333333333,"omit",0
711,"W10001293_KMR",3,"Control A","SPELL","bone","Study2","U","JOL",4619,"0",14205,"you",28.571428571429,"bone",0
712,"W10001293_KMR",3,"Control A","STOMACH","town","Study2","U","JOL",9943,"0",23003,"pain",25,"town",0
713,"W10001293_KMR",3,"Control A","SWING","fog","Study2","U","JOL",4191,"0",6575,"set",0,"fog",0
714,"W10001293_KMR",3,"Control A","SYSTEM","lick","Study2","U","JOL",4753,"0",34438,"lock",75,"lick",1
715,"W10001293_KMR",3,"Control A","TUCK","allow","Study2","U","JOL",5406,"0",44497,"hide",0,"allow",0
716,"W10001293_KMR",3,"Control A","VASE","king","Study2","U","JOL",12632,"1",7709,"flower",0,"king",0
717,"W10001293_KMR",3,"Control A","WASTE","sedate","Study2","U","JOL",3517,"0",9141,"basket",33.333333333333,"sedate",0
718,"W10001293_KMR",3,"Control A","WOMAN","lift","Study2","U","JOL",14333,"1",30755,"kids",25,"lift",0
719,"W10001293_KMR",3,"Control A","WOULD","cash","Study2","U","JOL",8647,"0",4805,"you",0,"cash",0
720,"W10001293_KMR",3,"Control A","ZOO","thumb","Study2","U","JOL",6353,"0",8393,"animal",18.181818181818,"thumb",0
721,"W10027383_MES",3,"Control A","BAT","shaky","Study1","U","JOL",5500,"15",3049,"moon",0,"shaky",0
722,"W10027383_MES",3,"Control A","BOTH","ounce","Study1","U","JOL",2549,"1",4010,"",0,"ounce",0
723,"W10027383_MES",3,"Control A","BROAD","infect","Study1","U","JOL",3287,"16",10972,"moon",20,"infect",0
724,"W10027383_MES",3,"Control A","CAKE","clothes","Study1","U","JOL",1807,"3",6885,"",0,"clothes",0
725,"W10027383_MES",3,"Control A","CRACKLE","able","Study1","U","JOL",3215,"35",2104,"",0,"able",0
726,"W10027383_MES",3,"Control A","CRAYON","rate","Study1","U","JOL",9237,"35",5417,"draw",50,"rate",0
727,"W10027383_MES",3,"Control A","DEGREE","chair","Study1","U","JOL",2167,"10",12308,"election",30.769230769231,"chair",0
728,"W10027383_MES",3,"Control A","DIFFICULT","poor","Study1","U","JOL",4099,"40",6173,"sky",0,"poor",0
729,"W10027383_MES",3,"Control A","DIZZY","sweater","Study1","U","JOL",7198,"35",3486,"green",16.666666666667,"sweater",0
730,"W10027383_MES",3,"Control A","DONKEY","lush","Study1","U","JOL",2734,"10",3198,"horse",22.222222222222,"lush",0
731,"W10027383_MES",3,"Control A","FUTURE","sincere","Study1","U","JOL",2822,"1",4293,"moon",18.181818181818,"sincere",0
732,"W10027383_MES",3,"Control A","FUZZY","bang","Study1","U","JOL",2879,"78",7771,"owl",0,"bang",0
733,"W10027383_MES",3,"Control A","GIVE","steak","Study1","U","JOL",2745,"10",4375,"police",18.181818181818,"steak",0
734,"W10027383_MES",3,"Control A","GRIND","stand","Study1","U","JOL",5212,"10",18628,"",0,"stand",0
735,"W10027383_MES",3,"Control A","INFLATE","disgust","Study1","U","JOL",4707,"29",4643,"",0,"disgust",0
736,"W10027383_MES",3,"Control A","JUSTICE","maroon","Study1","U","JOL",2610,"2",3402,"election",28.571428571429,"maroon",0
737,"W10027383_MES",3,"Control A","KEYS","joke","Study1","U","JOL",4219,"13",19628,"man",0,"joke",0
738,"W10027383_MES",3,"Control A","LEASE","toil","Study1","U","JOL",12143,"20",3519,"",0,"toil",0
739,"W10027383_MES",3,"Control A","LISTEN","fiction","Study1","U","JOL",2189,"10",9533,"time",36.363636363636,"fiction",0
740,"W10027383_MES",3,"Control A","LOAN","sign","Study1","U","JOL",3730,"60",2694,"moon",25,"sign",0
741,"W10027383_MES",3,"Control A","MAIN","scar","Study1","U","JOL",5990,"50",4923,"sweater",54.545454545455,"scar",0
742,"W10027383_MES",3,"Control A","MAZE","election","Study1","U","JOL",4170,"80",8209,"sweater",26.666666666667,"election",0
743,"W10027383_MES",3,"Control A","MEAT","obtain","Study1","U","JOL",3860,"20",12714,"",0,"obtain",0
744,"W10027383_MES",3,"Control A","MIRROR","children","Study1","U","JOL",3028,"5",20514,"",0,"children",0
745,"W10027383_MES",3,"Control A","MOAT","clear","Study1","U","JOL",3502,"24",8727,"",0,"clear",0
746,"W10027383_MES",3,"Control A","NAME","hate","Study1","U","JOL",5779,"12",7755,"",0,"hate",0
747,"W10027383_MES",3,"Control A","NUMBER","hard","Study1","U","JOL",7882,"45",5404,"owl",0,"hard",0
748,"W10027383_MES",3,"Control A","PARCEL","throat","Study1","U","JOL",6986,"3",11381,"sky",0,"throat",0
749,"W10027383_MES",3,"Control A","PET","moon","Study1","U","JOL",3077,"80",2758,"play",0,"moon",0
750,"W10027383_MES",3,"Control A","RESIST","glue","Study1","U","JOL",3914,"55",3525,"police",40,"glue",0
751,"W10027383_MES",3,"Control A","RIPE","verify","Study1","U","JOL",3274,"20",11935,"",0,"verify",0
752,"W10027383_MES",3,"Control A","ROSE","neglect","Study1","U","JOL",3880,"10",6168,"heat",36.363636363636,"neglect",0
753,"W10027383_MES",3,"Control A","SHELL","shake","Study1","U","JOL",2616,"10",6213,"",0,"shake",0
754,"W10027383_MES",3,"Control A","STRESS","yam","Study1","U","JOL",3697,"40",5030,"",0,"yam",0
755,"W10027383_MES",3,"Control A","STRETCH","cloth","Study1","U","JOL",5277,"40",8158,"",0,"cloth",0
756,"W10027383_MES",3,"Control A","TAX","owl","Study1","U","JOL",2471,"95",5898,"police",44.444444444444,"owl",0
757,"W10027383_MES",3,"Control A","TEMPERATURE","morning","Study1","U","JOL",2823,"10",2738,"",0,"morning",0
758,"W10027383_MES",3,"Control A","THICK","contest","Study1","U","JOL",5659,"5",6017,"police",30.769230769231,"contest",0
759,"W10027383_MES",3,"Control A","VEHICLE","charm","Study1","U","JOL",5340,"5",28001,"",0,"charm",0
760,"W10027383_MES",3,"Control A","WARN","sea","Study1","U","JOL",5197,"20",13652,"moon",0,"sea",0
761,"W10027383_MES",3,"Control A","ACCIDENT","strong","Study2","U","JOL",4286,"20",1995,"",0,"strong",0
762,"W10027383_MES",3,"Control A","ADD","valley","Study2","U","JOL",1893,"10",3283,"subtract",14.285714285714,"valley",0
763,"W10027383_MES",3,"Control A","BELT","soon","Study2","U","JOL",2498,"10",3874,"strap",22.222222222222,"soon",0
764,"W10027383_MES",3,"Control A","BRONZE","artery","Study2","U","JOL",2756,"5",3416,"",0,"artery",0
765,"W10027383_MES",3,"Control A","Business","death","Study2","U","JOL",6980,"90",2017,"",0,"death",0
766,"W10027383_MES",3,"Control A","CAR","happy","Study2","U","JOL",2737,"50",4486,"happy",100,"happy",1
767,"W10027383_MES",3,"Control A","CLUTTER","pusher","Study2","U","JOL",6586,"20",1903,"",0,"pusher",0
768,"W10027383_MES",3,"Control A","DESIRE","noise","Study2","U","JOL",3794,"10",2603,"",0,"noise",0
769,"W10027383_MES",3,"Control A","DETECT","free","Study2","U","JOL",2736,"5",2797,"",0,"free",0
770,"W10027383_MES",3,"Control A","FLOAT","harmony","Study2","U","JOL",3001,"20",3002,"",0,"harmony",0
771,"W10027383_MES",3,"Control A","FLOOR","discover","Study2","U","JOL",2976,"20",3223,"ceiling",26.666666666667,"discover",0
772,"W10027383_MES",3,"Control A","GUARD","wheel","Study2","U","JOL",3208,"30",3750,"police",18.181818181818,"wheel",0
773,"W10027383_MES",3,"Control A","HAND","fix","Study2","U","JOL",4630,"60",5938,"foot",28.571428571429,"fix",0
774,"W10027383_MES",3,"Control A","HUNGRY","park","Study2","U","JOL",4962,"10",8026,"full",0,"park",0
775,"W10027383_MES",3,"Control A","JELLY","naughty","Study2","U","JOL",5386,"75",6662,"naughty",100,"naughty",1
776,"W10027383_MES",3,"Control A","LAKE","opinion","Study2","U","JOL",4389,"20",2163,"river",16.666666666667,"opinion",0
777,"W10027383_MES",3,"Control A","LION","art","Study2","U","JOL",2417,"50",5477,"animal",22.222222222222,"art",0
778,"W10027383_MES",3,"Control A","MUTE","wave","Study2","U","JOL",4442,"12",5231,"zoom",0,"wave",0
779,"W10027383_MES",3,"Control A","NULL","cough","Study2","U","JOL",3536,"15",3536,"",0,"cough",0
780,"W10027383_MES",3,"Control A","POSITION","machine","Study2","U","JOL",7467,"40",6620,"low",0,"machine",0
781,"W10027383_MES",3,"Control A","PUFF","number","Study2","U","JOL",2300,"10",2930,"",0,"number",0
782,"W10027383_MES",3,"Control A","PUT","roll","Study2","U","JOL",7655,"50",7160,"",0,"roll",0
783,"W10027383_MES",3,"Control A","READY","corn","Study2","U","JOL",2272,"60",5735,"go",33.333333333333,"corn",0
784,"W10027383_MES",3,"Control A","RIDDLE","sugar","Study2","U","JOL",2486,"3",1266,"",0,"sugar",0
785,"W10027383_MES",3,"Control A","ROAD","scent","Study2","U","JOL",3387,"30",4475,"",0,"scent",0
786,"W10027383_MES",3,"Control A","SACKING","dietary","Study2","U","JOL",3074,"10",1350,"",0,"dietary",0
787,"W10027383_MES",3,"Control A","SACKING","dietary","Study2","U","JOL",6341,"20",1536,"",0,"dietary",0
788,"W10027383_MES",3,"Control A","SICK","hide","Study2","U","JOL",4649,"20",5237,"dull",25,"hide",0
789,"W10027383_MES",3,"Control A","SIGHT","debate","Study2","U","JOL",4952,"40",2298,"",0,"debate",0
790,"W10027383_MES",3,"Control A","SLIM","know","Study2","U","JOL",2003,"10",2283,"",0,"know",0
791,"W10027383_MES",3,"Control A","SMOOTH","omit","Study2","U","JOL",5364,"30",9710,"rough",22.222222222222,"omit",0
792,"W10027383_MES",3,"Control A","SPELL","bone","Study2","U","JOL",2751,"10",5193,"cast",0,"bone",0
793,"W10027383_MES",3,"Control A","STOMACH","town","Study2","U","JOL",4771,"10",3066,"",0,"town",0
794,"W10027383_MES",3,"Control A","SYSTEM","lick","Study2","U","JOL",4179,"10",3196,"",0,"lick",0
795,"W10027383_MES",3,"Control A","TUCK","allow","Study2","U","JOL",3494,"12",3466,"",0,"allow",0
796,"W10027383_MES",3,"Control A","VASE","king","Study2","U","JOL",2566,"20",4866,"ring",75,"king",1
797,"W10027383_MES",3,"Control A","WASTE","sedate","Study2","U","JOL",3486,"60",2008,"",0,"sedate",0
798,"W10027383_MES",3,"Control A","WOMAN","lift","Study2","U","JOL",3188,"75",4213,"",0,"lift",0
799,"W10027383_MES",3,"Control A","WOULD","cash","Study2","U","JOL",5736,"25",1818,"",0,"cash",0
800,"W10027383_MES",3,"Control A","ZOO","thumb","Study2","U","JOL",3292,"25",3957,"animal",18.181818181818,"thumb",0
801,"w10027834",3,"Control A","BAT","shaky","Study1","U","JOL",4636,"50",9356,"shaky",100,"shaky",1
802,"w10027834",3,"Control A","BOTH","ounce","Study1","U","JOL",5152,"25",18755,"ounce",100,"ounce",1
803,"w10027834",3,"Control A","BROAD","infect","Study1","U","JOL",4205,"25",12649,"",0,"infect",0
804,"w10027834",3,"Control A","CAKE","clothes","Study1","U","JOL",10694,"50",4092,"clothes",100,"clothes",1
805,"w10027834",3,"Control A","CRACKLE","able","Study1","U","JOL",5798,"25",6065,"able",100,"able",1
806,"w10027834",3,"Control A","CRAYON","rate","Study1","U","JOL",7676,"20",5652,"",0,"rate",0
807,"w10027834",3,"Control A","DEGREE","chair","Study1","U","JOL",10038,"25",6202,"chair",100,"chair",1
808,"w10027834",3,"Control A","DIFFICULT","poor","Study1","U","JOL",8158,"50",5109,"poor",100,"poor",1
809,"w10027834",3,"Control A","DIZZY","sweater","Study1","U","JOL",7035,"15",11879,"",0,"sweater",0
810,"w10027834",3,"Control A","DONKEY","lush","Study1","U","JOL",9131,"15",4653,"lush",100,"lush",1
811,"w10027834",3,"Control A","FUTURE","sincere","Study1","U","JOL",9365,"15",9377,"",0,"sincere",0
812,"w10027834",3,"Control A","FUZZY","bang","Study1","U","JOL",4444,"50",15788,"",0,"bang",0
813,"w10027834",3,"Control A","GIVE","steak","Study1","U","JOL",4698,"25",29141,"take",66.666666666667,"steak",0
814,"w10027834",3,"Control A","GRIND","stand","Study1","U","JOL",9064,"20",5175,"stand",100,"stand",1
815,"w10027834",3,"Control A","INFLATE","disgust","Study1","U","JOL",13416,"10",11361,"",0,"disgust",0
816,"w10027834",3,"Control A","JUSTICE","maroon","Study1","U","JOL",8242,"20",18582,"",0,"maroon",0
817,"w10027834",3,"Control A","KEYS","joke","Study1","U","JOL",3827,"15",9922,"",0,"joke",0
818,"w10027834",3,"Control A","LEASE","toil","Study1","U","JOL",2660,"5",5685,"",0,"toil",0
819,"w10027834",3,"Control A","LISTEN","fiction","Study1","U","JOL",4007,"25",18327,"",0,"fiction",0
820,"w10027834",3,"Control A","LOAN","sign","Study1","U","JOL",7996,"50",3424,"sign",100,"sign",1
821,"w10027834",3,"Control A","MAIN","scar","Study1","U","JOL",8500,"10",6561,"",0,"scar",0
822,"w10027834",3,"Control A","MAZE","election","Study1","U","JOL",3610,"25",9459,"",0,"election",0
823,"w10027834",3,"Control A","MEAT","obtain","Study1","U","JOL",4480,"50",18730,"",0,"obtain",0
824,"w10027834",3,"Control A","MIRROR","children","Study1","U","JOL",3104,"50",5830,"children",100,"children",1
825,"w10027834",3,"Control A","MOAT","clear","Study1","U","JOL",3131,"5",3650,"",0,"clear",0
826,"w10027834",3,"Control A","NAME","hate","Study1","U","JOL",3206,"50",8834,"",0,"hate",0
827,"w10027834",3,"Control A","NUMBER","hard","Study1","U","JOL",5059,"50",8669,"hard",100,"hard",1
828,"w10027834",3,"Control A","PARCEL","throat","Study1","U","JOL",3814,"15",3686,"",0,"throat",0
829,"w10027834",3,"Control A","PET","moon","Study1","U","JOL",14048,"25",7878,"",0,"moon",0
830,"w10027834",3,"Control A","RESIST","glue","Study1","U","JOL",3695,"25",13505,"",0,"glue",0
831,"w10027834",3,"Control A","RIPE","verify","Study1","U","JOL",11251,"20",16417,"",0,"verify",0
832,"w10027834",3,"Control A","ROSE","neglect","Study1","U","JOL",5973,"25",3380,"",0,"neglect",0
833,"w10027834",3,"Control A","SHELL","shake","Study1","U","JOL",3496,"50",3517,"shake",100,"shake",1
834,"w10027834",3,"Control A","STRESS","yam","Study1","U","JOL",8659,"15",7684,"yam",100,"yam",1
835,"w10027834",3,"Control A","STRETCH","cloth","Study1","U","JOL",3271,"50",2828,"cloth",100,"cloth",1
836,"w10027834",3,"Control A","TAX","owl","Study1","U","JOL",7900,"50",13539,"owe",66.666666666667,"owl",1
837,"w10027834",3,"Control A","TEMPERATURE","morning","Study1","U","JOL",9404,"50",9121,"morning",100,"morning",1
838,"w10027834",3,"Control A","THICK","contest","Study1","U","JOL",9118,"15",5355,"",0,"contest",0
839,"w10027834",3,"Control A","VEHICLE","charm","Study1","U","JOL",9809,"20",5859,"charm",100,"charm",1
840,"w10027834",3,"Control A","WARN","sea","Study1","U","JOL",8294,"15",14689,"",0,"sea",0
841,"w10027834",3,"Control A","ACCIDENT","strong","Study2","U","JOL",2970,"25",4899,"",0,"strong",0
842,"w10027834",3,"Control A","ADD","valley","Study2","U","JOL",6709,"30",3074,"",0,"valley",0
843,"w10027834",3,"Control A","BELT","soon","Study2","U","JOL",8461,"25",4292,"",0,"soon",0
844,"w10027834",3,"Control A","BRONZE","artery","Study2","U","JOL",8706,"50",11103,"archery",76.923076923077,"artery",1
845,"w10027834",3,"Control A","Business","death","Study2","U","JOL",11032,"20",27399,"",0,"death",0
846,"w10027834",3,"Control A","CAR","happy","Study2","U","JOL",5612,"75",5064,"happy",100,"happy",1
847,"w10027834",3,"Control A","CLUTTER","pusher","Study2","U","JOL",8057,"25",5690,"",0,"pusher",0
848,"w10027834",3,"Control A","DESIRE","noise","Study2","U","JOL",6162,"25",15341,"",0,"noise",0
849,"w10027834",3,"Control A","DETECT","free","Study2","U","JOL",9758,"50",7643,"",0,"free",0
850,"w10027834",3,"Control A","FLOAT","harmony","Study2","U","JOL",7048,"20",8071,"",0,"harmony",0
851,"w10027834",3,"Control A","FLOOR","discover","Study2","U","JOL",14718,"30",11108,"harmony",13.333333333333,"discover",0
852,"w10027834",3,"Control A","GUARD","wheel","Study2","U","JOL",6428,"20",3912,"wheel",100,"wheel",1
853,"w10027834",3,"Control A","HAND","fix","Study2","U","JOL",5945,"30",5838,"",0,"fix",0
854,"w10027834",3,"Control A","HUNGRY","park","Study2","U","JOL",6539,"50",3182,"",0,"park",0
855,"w10027834",3,"Control A","JELLY","naughty","Study2","U","JOL",8953,"40",18088,"bad",20,"naughty",0
856,"w10027834",3,"Control A","LAKE","opinion","Study2","U","JOL",6779,"25",6028,"",0,"opinion",0
857,"w10027834",3,"Control A","LION","art","Study2","U","JOL",5441,"75",9435,"art",100,"art",1
858,"w10027834",3,"Control A","MUTE","wave","Study2","U","JOL",6637,"20",7030,"",0,"wave",0
859,"w10027834",3,"Control A","NULL","cough","Study2","U","JOL",5060,"25",6668,"",0,"cough",0
860,"w10027834",3,"Control A","POSITION","machine","Study2","U","JOL",8038,"20",4734,"",0,"machine",0
861,"w10027834",3,"Control A","PUFF","number","Study2","U","JOL",7209,"20",17532,"",0,"number",0
862,"w10027834",3,"Control A","PUT","roll","Study2","U","JOL",6360,"50",6466,"roll",100,"roll",1
863,"w10027834",3,"Control A","READY","corn","Study2","U","JOL",7554,"20",4497,"corn",100,"corn",1
864,"w10027834",3,"Control A","RIDDLE","sugar","Study2","U","JOL",7852,"30",8702,"sugar",100,"sugar",1
865,"w10027834",3,"Control A","ROAD","scent","Study2","U","JOL",7362,"25",4058,"",0,"scent",0
866,"w10027834",3,"Control A","SACKING","dietary","Study2","U","JOL",9286,"20",3432,"",0,"dietary",0
867,"w10027834",3,"Control A","SICK","hide","Study2","U","JOL",5572,"50",4964,"hide",100,"hide",1
868,"w10027834",3,"Control A","SIGHT","debate","Study2","U","JOL",7269,"20",6395,"debate",100,"debate",1
869,"w10027834",3,"Control A","SIGHT","debate","Study2","U","JOL",7015,"20",4930,"debate",100,"debate",1
870,"w10027834",3,"Control A","SLIM","know","Study2","U","JOL",3054,"50",7366,"knew",75,"know",1
871,"w10027834",3,"Control A","SMOOTH","omit","Study2","U","JOL",7913,"15",4419,"",0,"omit",0
872,"w10027834",3,"Control A","SPELL","bone","Study2","U","JOL",5326,"20",4187,"bone",100,"bone",1
873,"w10027834",3,"Control A","STOMACH","town","Study2","U","JOL",7663,"20",12046,"",0,"town",0
874,"w10027834",3,"Control A","SWING","fog","Study2","U","JOL",8522,"25",7149,"fog",100,"fog",1
875,"w10027834",3,"Control A","SYSTEM","lick","Study2","U","JOL",6017,"30",9773,"",0,"lick",0
876,"w10027834",3,"Control A","TUCK","allow","Study2","U","JOL",5780,"35",3255,"allow",100,"allow",1
877,"w10027834",3,"Control A","VASE","king","Study2","U","JOL",5487,"30",9340,"king",100,"king",1
878,"w10027834",3,"Control A","WOMAN","lift","Study2","U","JOL",7420,"40",11290,"left",75,"lift",1
879,"w10027834",3,"Control A","WOULD","cash","Study2","U","JOL",6680,"15",5785,"cash",100,"cash",1
880,"w10027834",3,"Control A","ZOO","thumb","Study2","U","JOL",5717,"50",4435,"",0,"thumb",0
881,"w10042357_SGH",3,"Control A","BAT","shaky","Study1","U","JOL",2864,"0",3058,"shaky",100,"shaky",1
882,"w10042357_SGH",3,"Control A","BOTH","ounce","Study1","U","JOL",2239,"0",4072,"don't know",26.666666666667,"ounce",0
883,"w10042357_SGH",3,"Control A","BROAD","infect","Study1","U","JOL",1920,"0",3301,"don't know",25,"infect",0
884,"w10042357_SGH",3,"Control A","CAKE","clothes","Study1","U","JOL",5531,"25",4893,"clothes",100,"clothes",1
