"Trial.ID","Sub.ID","Condition.Number","Condition.Description","Stimuli.Cue","Stimuli.Answer","Stimuli.Shuffle","Stimuli.Stimuli.Notes","Procedure.Trial.Type","JOL.RT","Response.JOL","Response.RT.1","Responses","Response.Accuracy","Answer","Scored"
1,"10089997",1,"Sans F A","CRACKLE","able","Study1","U","JOL",5896,"0",3319,"pop",0,"able",0
2,"10089997",1,"Sans F A","TUCK","allow","Study2","U","JOL_SF",1657,"10",4532,"down",44.444444444444,"allow",0
3,"10089997",1,"Sans F A","LION","art","Study2","U","JOL_SF",1988,"50",6331,"park",57.142857142857,"art",1
4,"10089997",1,"Sans F A","BRONZE","artery","Study2","U","JOL",2002,"10",2260,"gold",0,"artery",0
5,"10089997",1,"Sans F A","FUZZY","bang","Study1","U","JOL_SF",8057,"10",3021,"messy",0,"bang",0
6,"10089997",1,"Sans F A","SPELL","bone","Study2","U","JOL",2314,"90",3110,"number",40,"bone",0
7,"10089997",1,"Sans F A","DEGREE","chair","Study1","U","JOL_SF",2323,"31",3991,"college",16.666666666667,"chair",0
8,"10089997",1,"Sans F A","VEHICLE","charm","Study1","U","JOL_SF",2307,"90",2110,"car",75,"charm",1
9,"10089997",1,"Sans F A","MIRROR","children","Study1","U","JOL",4479,"90",3179,"reflect",26.666666666667,"children",0
10,"10089997",1,"Sans F A","MOAT","clear","Study1","U","JOL_SF",5722,"40",3921,"idk",0,"clear",0
11,"10089997",1,"Sans F A","STRETCH","cloth","Study1","U","JOL_SF",15589,"93",4985,"clothes",83.333333333333,"cloth",1
12,"10089997",1,"Sans F A","CAKE","clothes","Study1","U","JOL",2793,"0",2735,"clothes",100,"clothes",1
13,"10089997",1,"Sans F A","THICK","contest","Study1","U","JOL_SF",4559,"80",6354,"chocolate",50,"contest",0
14,"10089997",1,"Sans F A","READY","corn","Study2","U","JOL_SF",4772,"20",3909,"set go",20,"corn",0
15,"10089997",1,"Sans F A","NULL","cough","Study2","U","JOL_SF",6959,"50",2187,"idk",0,"cough",0
16,"10089997",1,"Sans F A","Business","death","Study2","U","JOL",2244,"0",4654,"card",22.222222222222,"death",0
17,"10089997",1,"Sans F A","SIGHT","debate","Study2","U","JOL_SF",1842,"10",2574,"see",44.444444444444,"debate",0
18,"10089997",1,"Sans F A","SACKING","dietary","Study2","U","JOL_SF",2743,"80",2486,"idk",20,"dietary",0
19,"10089997",1,"Sans F A","FLOOR","discover","Study2","U","JOL_SF",2273,"90",4698,"ground",14.285714285714,"discover",0
20,"10089997",1,"Sans F A","INFLATE","disgust","Study1","U","JOL_SF",5313,"0",9784,"small",16.666666666667,"disgust",0
21,"10089997",1,"Sans F A","MAZE","election","Study1","U","JOL",11549,"50",4559,"lines",46.153846153846,"election",0
22,"10089997",1,"Sans F A","LISTEN","fiction","Study1","U","JOL_SF",9179,"20",4312,"carefully",12.5,"fiction",0
23,"10089997",1,"Sans F A","HAND","fix","Study2","U","JOL",1449,"12",3821,"arm",0,"fix",0
24,"10089997",1,"Sans F A","SWING","fog","Study2","U","JOL",2058,"30",3520,"",0,"fog",0
25,"10089997",1,"Sans F A","DETECT","free","Study2","U","JOL",832,"3",3392,"ive",28.571428571429,"free",0
26,"10089997",1,"Sans F A","RESIST","glue","Study1","U","JOL",4889,"74",8194,"bands",0,"glue",0
27,"10089997",1,"Sans F A","CAR","happy","Study2","U","JOL_SF",2727,"70",3416,"truck",0,"happy",0
28,"10089997",1,"Sans F A","NUMBER","hard","Study1","U","JOL_SF",3975,"80",6716,"alphabet",33.333333333333,"hard",0
29,"10089997",1,"Sans F A","FLOAT","harmony","Study2","U","JOL_SF",2390,"70",3689,"high",18.181818181818,"harmony",0
30,"10089997",1,"Sans F A","NAME","hate","Study1","U","JOL_SF",3280,"60",2934,"number",20,"hate",0
31,"10089997",1,"Sans F A","SICK","hide","Study2","U","JOL_SF",1910,"80",4817,"doctor",20,"hide",0
32,"10089997",1,"Sans F A","BROAD","infect","Study1","U","JOL_SF",5172,"0",8307,"daylight",28.571428571429,"infect",0
33,"10089997",1,"Sans F A","KEYS","joke","Study1","U","JOL_SF",4046,"5",4487,"jiggle",40,"joke",0
34,"10089997",1,"Sans F A","VASE","king","Study2","U","JOL",847,"15",5545,"flowers",0,"king",0
35,"10089997",1,"Sans F A","SLIM","know","Study2","U","JOL",2182,"30",3421,"down",50,"know",0
36,"10089997",1,"Sans F A","SYSTEM","lick","Study2","U","JOL",1989,"20",2741,"wicked",60,"lick",0
37,"10089997",1,"Sans F A","WOMAN","lift","Study2","U","JOL",1527,"0",1973,"man",0,"lift",0
38,"10089997",1,"Sans F A","DONKEY","lush","Study1","U","JOL",4421,"73",4784,"animal",20,"lush",0
39,"10089997",1,"Sans F A","POSITION","machine","Study2","U","JOL",779,"56",8371,"space",50,"machine",0
40,"10089997",1,"Sans F A","JUSTICE","maroon","Study1","U","JOL_SF",4103,"10",5458,"league",16.666666666667,"maroon",0
41,"10089997",1,"Sans F A","PET","moon","Study1","U","JOL",3644,"90",4954,"obey",25,"moon",0
42,"10089997",1,"Sans F A","TEMPERATURE","morning","Study1","U","JOL_SF",4027,"70",2559,"cold",18.181818181818,"morning",0
43,"10089997",1,"Sans F A","JELLY","naughty","Study2","U","JOL_SF",1779,"20",10202,"bread",16.666666666667,"naughty",0
44,"10089997",1,"Sans F A","ROSE","neglect","Study1","U","JOL",3378,"0",3292,"petals",30.769230769231,"neglect",0
45,"10089997",1,"Sans F A","DESIRE","noise","Study2","U","JOL",1616,"90",5978,"orleans",33.333333333333,"noise",0
46,"10089997",1,"Sans F A","PUFF","number","Study2","U","JOL",1714,"0",6777,"smoke",36.363636363636,"number",0
47,"10089997",1,"Sans F A","MEAT","obtain","Study1","U","JOL_SF",4578,"5",3769,"grind",36.363636363636,"obtain",0
48,"10089997",1,"Sans F A","SMOOTH","omit","Study2","U","JOL",3279,"0",3156,"criminal",33.333333333333,"omit",0
49,"10089997",1,"Sans F A","LAKE","opinion","Study2","U","JOL_SF",3028,"37",2894,"pool",36.363636363636,"opinion",0
50,"10089997",1,"Sans F A","BOTH","ounce","Study1","U","JOL_SF",9011,"7",6145,"inflate",33.333333333333,"ounce",0
51,"10089997",1,"Sans F A","TAX","owl","Study1","U","JOL_SF",3685,"0",3080,"return",0,"owl",0
52,"10089997",1,"Sans F A","HUNGRY","park","Study2","U","JOL_SF",1574,"24",2228,"eat",28.571428571429,"park",0
53,"10089997",1,"Sans F A","DIFFICULT","poor","Study1","U","JOL_SF",6771,"60",3056,"stress",20,"poor",0
54,"10089997",1,"Sans F A","CLUTTER","pusher","Study2","U","JOL_SF",4682,"12",3936,"space",36.363636363636,"pusher",0
55,"10089997",1,"Sans F A","CRAYON","rate","Study1","U","JOL",3802,"57",2766,"colors",20,"rate",0
56,"10089997",1,"Sans F A","PUT","roll","Study2","U","JOL",2441,"50",3673,"idk",0,"roll",0
57,"10089997",1,"Sans F A","MAIN","scar","Study1","U","JOL_SF",3767,"12",5860,"event",0,"scar",0
58,"10089997",1,"Sans F A","ROAD","scent","Study2","U","JOL_SF",1973,"25",2400,"trip",22.222222222222,"scent",0
59,"10089997",1,"Sans F A","WARN","sea","Study1","U","JOL",3522,"0",3595,"ing",0,"sea",0
60,"10089997",1,"Sans F A","WASTE","sedate","Study2","U","JOL",543,"4",3373,"of time",30.769230769231,"sedate",0
61,"10089997",1,"Sans F A","SHELL","shake","Study1","U","JOL",2629,"30",3492,"crack",40,"shake",0
62,"10089997",1,"Sans F A","BAT","shaky","Study1","U","JOL",4163,"20",2560,"mobile",0,"shaky",0
63,"10089997",1,"Sans F A","LOAN","sign","Study1","U","JOL",3278,"70",3200,"sign",100,"sign",1
64,"10089997",1,"Sans F A","FUTURE","sincere","Study1","U","JOL",16114,"55",7334,"future",30.769230769231,"sincere",0
65,"10089997",1,"Sans F A","BELT","soon","Study2","U","JOL",1513,"0",3078,"clothes",18.181818181818,"soon",0
66,"10089997",1,"Sans F A","GRIND","stand","Study1","U","JOL_SF",5360,"60",6160,"mussy",20,"stand",0
67,"10089997",1,"Sans F A","GIVE","steak","Study1","U","JOL",16721,"10",4775,"recive",18.181818181818,"steak",0
68,"10089997",1,"Sans F A","ACCIDENT","strong","Study2","U","JOL",1819,"100",2800,"car",22.222222222222,"strong",0
69,"10089997",1,"Sans F A","RIDDLE","sugar","Study2","U","JOL_SF",2956,"30",5020,"puzzle",18.181818181818,"sugar",0
70,"10089997",1,"Sans F A","RIDDLE","sugar","Study2","U","JOL_SF",3060,"3",2933,"puzzle",18.181818181818,"sugar",0
71,"10089997",1,"Sans F A","DIZZY","sweater","Study1","U","JOL",4502,"50",4204,"fuzzy",0,"sweater",0
72,"10089997",1,"Sans F A","PARCEL","throat","Study1","U","JOL",5655,"30",2005,"idk",0,"throat",0
73,"10089997",1,"Sans F A","ZOO","thumb","Study2","U","JOL_SF",2845,"70",4454,"park",0,"thumb",0
74,"10089997",1,"Sans F A","LEASE","toil","Study1","U","JOL",5129,"21",2211,"sign",25,"toil",0
75,"10089997",1,"Sans F A","STOMACH","town","Study2","U","JOL_SF",23717,"70",2958,"body",25,"town",0
76,"10089997",1,"Sans F A","ADD","valley","Study2","U","JOL_SF",23891,"0",5833,"subtract",14.285714285714,"valley",0
77,"10089997",1,"Sans F A","RIPE","verify","Study1","U","JOL",8525,"30",4762,"ready",36.363636363636,"verify",0
78,"10089997",1,"Sans F A","MUTE","wave","Study2","U","JOL",1876,"0",3497,"silent",20,"wave",0
79,"10089997",1,"Sans F A","GUARD","wheel","Study2","U","JOL",1268,"0",2710,"down",22.222222222222,"wheel",0
80,"10089997",1,"Sans F A","STRESS","yam","Study1","U","JOL",11393,"31",2200,"free",0,"yam",0
81,"5c4764aca7b7980001713a73",1,"Sans F A","CRACKLE","able","Study1","U","JOL",5970,"0",6153,"fizz",0,"able",0
82,"5c4764aca7b7980001713a73",1,"Sans F A","TUCK","allow","Study2","U","JOL_SF",4181,"12",5229,"pull",44.444444444444,"allow",0
83,"5c4764aca7b7980001713a73",1,"Sans F A","LION","art","Study2","U","JOL_SF",6623,"20",12405,"heart",75,"art",1
84,"5c4764aca7b7980001713a73",1,"Sans F A","LION","art","Study2","U","JOL_SF",3234,"33",5017,"heart",75,"art",1
85,"5c4764aca7b7980001713a73",1,"Sans F A","BRONZE","artery","Study2","U","JOL",5086,"22",13363,"artery",100,"artery",1
86,"5c4764aca7b7980001713a73",1,"Sans F A","FUZZY","bang","Study1","U","JOL_SF",4961,"19",13566,"moon",25,"bang",0
87,"5c4764aca7b7980001713a73",1,"Sans F A","SPELL","bone","Study2","U","JOL",5197,"20",3458,"check",22.222222222222,"bone",0
88,"5c4764aca7b7980001713a73",1,"Sans F A","WOULD","cash","Study2","U","JOL",5612,"35",7201,"wouldnt",0,"cash",0
89,"5c4764aca7b7980001713a73",1,"Sans F A","DEGREE","chair","Study1","U","JOL_SF",3467,"22",6340,"hard",66.666666666667,"chair",0
90,"5c4764aca7b7980001713a73",1,"Sans F A","VEHICLE","charm","Study1","U","JOL",3274,"0",3315,"car",75,"charm",1
91,"5c4764aca7b7980001713a73",1,"Sans F A","MIRROR","children","Study1","U","JOL",4856,"50",5120,"children ",100,"children",1
92,"5c4764aca7b7980001713a73",1,"Sans F A","MOAT","clear","Study1","U","JOL_SF",3523,"25",5076,"clear",100,"clear",1
93,"5c4764aca7b7980001713a73",1,"Sans F A","STRETCH","cloth","Study1","U","JOL",4657,"35",4281,"clothes",83.333333333333,"cloth",1
94,"5c4764aca7b7980001713a73",1,"Sans F A","CAKE","clothes","Study1","U","JOL",7162,"15",6067,"clothes",100,"clothes",1
95,"5c4764aca7b7980001713a73",1,"Sans F A","THICK","contest","Study1","U","JOL",6171,"50",7876,"page",18.181818181818,"contest",0
96,"5c4764aca7b7980001713a73",1,"Sans F A","READY","corn","Study2","U","JOL_SF",5046,"20",3404,"go",33.333333333333,"corn",0
97,"5c4764aca7b7980001713a73",1,"Sans F A","NULL","cough","Study2","U","JOL",3515,"20",3580,"void",22.222222222222,"cough",0
98,"5c4764aca7b7980001713a73",1,"Sans F A","Business","death","Study2","U","JOL",3656,"10",3876,"detest",54.545454545455,"death",0
99,"5c4764aca7b7980001713a73",1,"Sans F A","SIGHT","debate","Study2","U","JOL_SF",8158,"20",5465,"eyes",40,"debate",0
100,"5c4764aca7b7980001713a73",1,"Sans F A","SACKING","dietary","Study2","U","JOL_SF",4515,"5",17443,"",0,"dietary",0
101,"5c4764aca7b7980001713a73",1,"Sans F A","FLOOR","discover","Study2","U","JOL_SF",7153,"8",5153,"mat",0,"discover",0
102,"5c4764aca7b7980001713a73",1,"Sans F A","INFLATE","disgust","Study1","U","JOL",5138,"50",8872,"disgusting ",82.352941176471,"disgust",0
103,"5c4764aca7b7980001713a73",1,"Sans F A","MAZE","election","Study1","U","JOL_SF",5301,"20",7863,"income",28.571428571429,"election",0
104,"5c4764aca7b7980001713a73",1,"Sans F A","LISTEN","fiction","Study1","U","JOL",5174,"20",3021,"talk",18.181818181818,"fiction",0
105,"5c4764aca7b7980001713a73",1,"Sans F A","HAND","fix","Study2","U","JOL",3239,"12",4367,"thumb",0,"fix",0
106,"5c4764aca7b7980001713a73",1,"Sans F A","SWING","fog","Study2","U","JOL_SF",4611,"34",3636,"fog",100,"fog",1
107,"5c4764aca7b7980001713a73",1,"Sans F A","DETECT","free","Study2","U","JOL_SF",6098,"23",4666,"invest",20,"free",0
108,"5c4764aca7b7980001713a73",1,"Sans F A","RESIST","glue","Study1","U","JOL",4421,"50",7891,"stance",20,"glue",0
109,"5c4764aca7b7980001713a73",1,"Sans F A","CAR","happy","Study2","U","JOL",4783,"10",5070,"vehicle ",16.666666666667,"happy",0
110,"5c4764aca7b7980001713a73",1,"Sans F A","NUMBER","hard","Study1","U","JOL",3466,"5",3373,"one",0,"hard",0
111,"5c4764aca7b7980001713a73",1,"Sans F A","FLOAT","harmony","Study2","U","JOL_SF",5483,"30",6796,"boat",18.181818181818,"harmony",0
112,"5c4764aca7b7980001713a73",1,"Sans F A","NAME","hate","Study1","U","JOL",5992,"25",5195,"ball",25,"hate",0
113,"5c4764aca7b7980001713a73",1,"Sans F A","SICK","hide","Study2","U","JOL",6935,"12",5360,"ill",28.571428571429,"hide",0
114,"5c4764aca7b7980001713a73",1,"Sans F A","BROAD","infect","Study1","U","JOL",3437,"5",7129,"bean",20,"infect",0
115,"5c4764aca7b7980001713a73",1,"Sans F A","KEYS","joke","Study1","U","JOL_SF",11059,"5",4075,"lock",50,"joke",0
116,"5c4764aca7b7980001713a73",1,"Sans F A","VASE","king","Study2","U","JOL",4944,"33",4131,"flower",0,"king",0
117,"5c4764aca7b7980001713a73",1,"Sans F A","SLIM","know","Study2","U","JOL",5637,"29",4475,"know",100,"know",1
118,"5c4764aca7b7980001713a73",1,"Sans F A","SYSTEM","lick","Study2","U","JOL",5724,"19",6305,"share",0,"lick",0
119,"5c4764aca7b7980001713a73",1,"Sans F A","WOMAN","lift","Study2","U","JOL_SF",5039,"33",3335,"lift",100,"lift",1
120,"5c4764aca7b7980001713a73",1,"Sans F A","DONKEY","lush","Study1","U","JOL_SF",4185,"4",5032,"horse",22.222222222222,"lush",0
121,"5c4764aca7b7980001713a73",1,"Sans F A","POSITION","machine","Study2","U","JOL_SF",7400,"15",5193,"front",16.666666666667,"machine",0
122,"5c4764aca7b7980001713a73",1,"Sans F A","JUSTICE","maroon","Study1","U","JOL",5298,"5",8568,"difficult",0,"maroon",0
123,"5c4764aca7b7980001713a73",1,"Sans F A","PET","moon","Study1","U","JOL_SF",3913,"50",3855,"moon",100,"moon",1
124,"5c4764aca7b7980001713a73",1,"Sans F A","TEMPERATURE","morning","Study1","U","JOL",3937,"50",7794,"morning ",100,"morning",1
125,"5c4764aca7b7980001713a73",1,"Sans F A","JELLY","naughty","Study2","U","JOL",5818,"45",3783,"naughty",100,"naughty",1
126,"5c4764aca7b7980001713a73",1,"Sans F A","ROSE","neglect","Study1","U","JOL_SF",6753,"20",4266,"thorn",16.666666666667,"neglect",0
127,"5c4764aca7b7980001713a73",1,"Sans F A","PUFF","number","Study2","U","JOL",6587,"15",8405,"blow",20,"number",0
128,"5c4764aca7b7980001713a73",1,"Sans F A","MEAT","obtain","Study1","U","JOL_SF",4234,"22",8715,"clothes",30.769230769231,"obtain",0
129,"5c4764aca7b7980001713a73",1,"Sans F A","SMOOTH","omit","Study2","U","JOL_SF",4882,"20",4567,"rough",22.222222222222,"omit",0
130,"5c4764aca7b7980001713a73",1,"Sans F A","LAKE","opinion","Study2","U","JOL",4961,"10",6008,"water",0,"opinion",0
131,"5c4764aca7b7980001713a73",1,"Sans F A","BOTH","ounce","Study1","U","JOL_SF",3673,"12",2670,"all",0,"ounce",0
132,"5c4764aca7b7980001713a73",1,"Sans F A","TAX","owl","Study1","U","JOL_SF",5927,"22",9945,"seize",0,"owl",0
133,"5c4764aca7b7980001713a73",1,"Sans F A","HUNGRY","park","Study2","U","JOL",3635,"23",5177,"soon",0,"park",0
134,"5c4764aca7b7980001713a73",1,"Sans F A","DIFFICULT","poor","Study1","U","JOL",5034,"10",11414,"pain",25,"poor",0
135,"5c4764aca7b7980001713a73",1,"Sans F A","CLUTTER","pusher","Study2","U","JOL",5519,"20",3959,"mess",20,"pusher",0
136,"5c4764aca7b7980001713a73",1,"Sans F A","CRAYON","rate","Study1","U","JOL_SF",4648,"5",3524,"pate",75,"rate",1
137,"5c4764aca7b7980001713a73",1,"Sans F A","PUT","roll","Study2","U","JOL",6190,"12",5552,"sleep",22.222222222222,"roll",0
138,"5c4764aca7b7980001713a73",1,"Sans F A","MAIN","scar","Study1","U","JOL_SF",8617,"5",4166,"source",40,"scar",0
139,"5c4764aca7b7980001713a73",1,"Sans F A","ROAD","scent","Study2","U","JOL_SF",6218,"12",3978,"path",22.222222222222,"scent",0
140,"5c4764aca7b7980001713a73",1,"Sans F A","WARN","sea","Study1","U","JOL_SF",4736,"50",13047,"",0,"sea",0
141,"5c4764aca7b7980001713a73",1,"Sans F A","WASTE","sedate","Study2","U","JOL_SF",4677,"16",23662,"inject",33.333333333333,"sedate",0
142,"5c4764aca7b7980001713a73",1,"Sans F A","SHELL","shake","Study1","U","JOL",3958,"50",4155,"fish",44.444444444444,"shake",0
143,"5c4764aca7b7980001713a73",1,"Sans F A","BAT","shaky","Study1","U","JOL_SF",3607,"5",3561,"ball",22.222222222222,"shaky",0
144,"5c4764aca7b7980001713a73",1,"Sans F A","LOAN","sign","Study1","U","JOL_SF",4403,"20",10886,"shark",22.222222222222,"sign",0
145,"5c4764aca7b7980001713a73",1,"Sans F A","FUTURE","sincere","Study1","U","JOL_SF",5376,"5",4308,"king",36.363636363636,"sincere",0
146,"5c4764aca7b7980001713a73",1,"Sans F A","BELT","soon","Study2","U","JOL_SF",5828,"45",3235,"soon",100,"soon",1
147,"5c4764aca7b7980001713a73",1,"Sans F A","GRIND","stand","Study1","U","JOL_SF",7487,"50",3391,"stand",100,"stand",1
148,"5c4764aca7b7980001713a73",1,"Sans F A","GIVE","steak","Study1","U","JOL",6713,"20",3117,"take",66.666666666667,"steak",0
149,"5c4764aca7b7980001713a73",1,"Sans F A","ACCIDENT","strong","Study2","U","JOL_SF",8222,"33",5314,"strong",100,"strong",1
150,"5c4764aca7b7980001713a73",1,"Sans F A","RIDDLE","sugar","Study2","U","JOL",3653,"34",6945,"sugar",100,"sugar",1
151,"5c4764aca7b7980001713a73",1,"Sans F A","DIZZY","sweater","Study1","U","JOL_SF",6681,"4",4353,"stance",46.153846153846,"sweater",0
152,"5c4764aca7b7980001713a73",1,"Sans F A","PARCEL","throat","Study1","U","JOL",3910,"5",4901,"item",20,"throat",0
153,"5c4764aca7b7980001713a73",1,"Sans F A","ZOO","thumb","Study2","U","JOL",4296,"12",3900,"thumb",100,"thumb",1
154,"5c4764aca7b7980001713a73",1,"Sans F A","LEASE","toil","Study1","U","JOL",8126,"12",13808,"bet",28.571428571429,"toil",0
155,"5c4764aca7b7980001713a73",1,"Sans F A","STOMACH","town","Study2","U","JOL_SF",5853,"20",10016,"",0,"town",0
156,"5c4764aca7b7980001713a73",1,"Sans F A","ADD","valley","Study2","U","JOL_SF",4322,"23",9475,"",0,"valley",0
157,"5c4764aca7b7980001713a73",1,"Sans F A","RIPE","verify","Study1","U","JOL",3291,"12",6527,"pear",40,"verify",0
158,"5c4764aca7b7980001713a73",1,"Sans F A","MUTE","wave","Study2","U","JOL",7174,"0",3683,"",0,"wave",0
159,"5c4764aca7b7980001713a73",1,"Sans F A","GUARD","wheel","Study2","U","JOL_SF",4132,"45",6488,"prison",0,"wheel",0
160,"5c4764aca7b7980001713a73",1,"Sans F A","STRESS","yam","Study1","U","JOL_SF",5817,"5",2911,"ball",28.571428571429,"yam",0
161,"5e18762ae80b8e1495d584d7",1,"Sans F A","CRACKLE","able","Study1","U","JOL_SF",6960,"2",3855,"",0,"able",0
162,"5e18762ae80b8e1495d584d7",1,"Sans F A","TUCK","allow","Study2","U","JOL",4739,"5",5864,"allow",100,"allow",1
163,"5e18762ae80b8e1495d584d7",1,"Sans F A","LION","art","Study2","U","JOL",5556,"22",6183,"",0,"art",0
164,"5e18762ae80b8e1495d584d7",1,"Sans F A","BRONZE","artery","Study2","U","JOL_SF",8451,"32",5141,"artery",100,"artery",1
165,"5e18762ae80b8e1495d584d7",1,"Sans F A","FUZZY","bang","Study1","U","JOL",8166,"44",7438,"bang",100,"bang",1
166,"5e18762ae80b8e1495d584d7",1,"Sans F A","SPELL","bone","Study2","U","JOL_SF",8430,"24",2217,"",0,"bone",0
167,"5e18762ae80b8e1495d584d7",1,"Sans F A","WOULD","cash","Study2","U","JOL_SF",6744,"6",5963,"",0,"cash",0
168,"5e18762ae80b8e1495d584d7",1,"Sans F A","DEGREE","chair","Study1","U","JOL",6388,"4",5138,"",0,"chair",0
169,"5e18762ae80b8e1495d584d7",1,"Sans F A","VEHICLE","charm","Study1","U","JOL_SF",11996,"4",5612,"",0,"charm",0
170,"5e18762ae80b8e1495d584d7",1,"Sans F A","MIRROR","children","Study1","U","JOL_SF",10538,"25",10724,"children",100,"children",1
171,"5e18762ae80b8e1495d584d7",1,"Sans F A","MOAT","clear","Study1","U","JOL_SF",8734,"43",5760,"clear",100,"clear",1
172,"5e18762ae80b8e1495d584d7",1,"Sans F A","STRETCH","cloth","Study1","U","JOL",8851,"20",5874,"cloth",100,"cloth",1
173,"5e18762ae80b8e1495d584d7",1,"Sans F A","CAKE","clothes","Study1","U","JOL_SF",9977,"8",5819,"clothes",100,"clothes",1
174,"5e18762ae80b8e1495d584d7",1,"Sans F A","THICK","contest","Study1","U","JOL_SF",8877,"33",7425,"contest",100,"contest",1
175,"5e18762ae80b8e1495d584d7",1,"Sans F A","READY","corn","Study2","U","JOL",4799,"1",4706,"",0,"corn",0
176,"5e18762ae80b8e1495d584d7",1,"Sans F A","NULL","cough","Study2","U","JOL_SF",7383,"16",6099,"",0,"cough",0
177,"5e18762ae80b8e1495d584d7",1,"Sans F A","Business","death","Study2","U","JOL_SF",8519,"8",6107,"death",100,"death",1
178,"5e18762ae80b8e1495d584d7",1,"Sans F A","SIGHT","debate","Study2","U","JOL_SF",5696,"3",6061,"",0,"debate",0
179,"5e18762ae80b8e1495d584d7",1,"Sans F A","SACKING","dietary","Study2","U","JOL_SF",8809,"22",9017,"dietary",100,"dietary",1
180,"5e18762ae80b8e1495d584d7",1,"Sans F A","FLOOR","discover","Study2","U","JOL_SF",6167,"55",4331,"",0,"discover",0
181,"5e18762ae80b8e1495d584d7",1,"Sans F A","INFLATE","disgust","Study1","U","JOL",8126,"3",6073,"",0,"disgust",0
182,"5e18762ae80b8e1495d584d7",1,"Sans F A","MAZE","election","Study1","U","JOL",8419,"40",7603,"election",100,"election",1
183,"5e18762ae80b8e1495d584d7",1,"Sans F A","LISTEN","fiction","Study1","U","JOL_SF",9471,"9",21285,"",0,"fiction",0
184,"5e18762ae80b8e1495d584d7",1,"Sans F A","HAND","fix","Study2","U","JOL_SF",5919,"35",4551,"",0,"fix",0
185,"5e18762ae80b8e1495d584d7",1,"Sans F A","SWING","fog","Study2","U","JOL",6819,"6",8411,"fog",100,"fog",1
186,"5e18762ae80b8e1495d584d7",1,"Sans F A","DETECT","free","Study2","U","JOL_SF",9022,"18",4352,"",0,"free",0
187,"5e18762ae80b8e1495d584d7",1,"Sans F A","RESIST","glue","Study1","U","JOL_SF",10610,"18",4101,"",0,"glue",0
188,"5e18762ae80b8e1495d584d7",1,"Sans F A","CAR","happy","Study2","U","JOL",5032,"55",6215,"",0,"happy",0
189,"5e18762ae80b8e1495d584d7",1,"Sans F A","NUMBER","hard","Study1","U","JOL_SF",11042,"30",2739,"",0,"hard",0
190,"5e18762ae80b8e1495d584d7",1,"Sans F A","FLOAT","harmony","Study2","U","JOL",10661,"27",7290,"",0,"harmony",0
191,"5e18762ae80b8e1495d584d7",1,"Sans F A","NAME","hate","Study1","U","JOL_SF",9359,"15",5311,"hate",100,"hate",1
192,"5e18762ae80b8e1495d584d7",1,"Sans F A","SICK","hide","Study2","U","JOL_SF",8180,"7",7870,"",0,"hide",0
193,"5e18762ae80b8e1495d584d7",1,"Sans F A","BROAD","infect","Study1","U","JOL",15026,"3",4255,"",0,"infect",0
194,"5e18762ae80b8e1495d584d7",1,"Sans F A","KEYS","joke","Study1","U","JOL",11961,"21",5303,"joke",100,"joke",1
195,"5e18762ae80b8e1495d584d7",1,"Sans F A","VASE","king","Study2","U","JOL_SF",7275,"40",4442,"king",100,"king",1
196,"5e18762ae80b8e1495d584d7",1,"Sans F A","SLIM","know","Study2","U","JOL",11812,"28",5493,"know",100,"know",1
197,"5e18762ae80b8e1495d584d7",1,"Sans F A","SYSTEM","lick","Study2","U","JOL_SF",6433,"12",11035,"lick",100,"lick",1
198,"5e18762ae80b8e1495d584d7",1,"Sans F A","WOMAN","lift","Study2","U","JOL",6011,"44",6775,"lift",100,"lift",1
199,"5e18762ae80b8e1495d584d7",1,"Sans F A","DONKEY","lush","Study1","U","JOL",7988,"13",8631,"lush",100,"lush",1
200,"5e18762ae80b8e1495d584d7",1,"Sans F A","POSITION","machine","Study2","U","JOL",6001,"62",4032,"",0,"machine",0
201,"5e18762ae80b8e1495d584d7",1,"Sans F A","JUSTICE","maroon","Study1","U","JOL",11689,"32",12008,"maroon",100,"maroon",1
202,"5e18762ae80b8e1495d584d7",1,"Sans F A","PET","moon","Study1","U","JOL_SF",9240,"29",5379,"",0,"moon",0
203,"5e18762ae80b8e1495d584d7",1,"Sans F A","TEMPERATURE","morning","Study1","U","JOL",8405,"55",6113,"morning",100,"morning",1
204,"5e18762ae80b8e1495d584d7",1,"Sans F A","JELLY","naughty","Study2","U","JOL",15909,"53",8070,"",0,"naughty",0
205,"5e18762ae80b8e1495d584d7",1,"Sans F A","ROSE","neglect","Study1","U","JOL",9960,"17",5626,"",0,"neglect",0
206,"5e18762ae80b8e1495d584d7",1,"Sans F A","DESIRE","noise","Study2","U","JOL_SF",6696,"4",8501,"noise",100,"noise",1
207,"5e18762ae80b8e1495d584d7",1,"Sans F A","DESIRE","noise","Study2","U","JOL_SF",10603,"30",8068,"noise",100,"noise",1
208,"5e18762ae80b8e1495d584d7",1,"Sans F A","PUFF","number","Study2","U","JOL_SF",10027,"24",6462,"number",100,"number",1
209,"5e18762ae80b8e1495d584d7",1,"Sans F A","MEAT","obtain","Study1","U","JOL",5770,"7",4900,"",0,"obtain",0
210,"5e18762ae80b8e1495d584d7",1,"Sans F A","LAKE","opinion","Study2","U","JOL",4245,"5",5673,"",0,"opinion",0
211,"5e18762ae80b8e1495d584d7",1,"Sans F A","BOTH","ounce","Study1","U","JOL_SF",9924,"14",4670,"",0,"ounce",0
212,"5e18762ae80b8e1495d584d7",1,"Sans F A","TAX","owl","Study1","U","JOL_SF",11361,"37",12837,"",0,"owl",0
213,"5e18762ae80b8e1495d584d7",1,"Sans F A","HUNGRY","park","Study2","U","JOL",9459,"80",6449,"park",100,"park",1
214,"5e18762ae80b8e1495d584d7",1,"Sans F A","DIFFICULT","poor","Study1","U","JOL",7958,"45",4758,"poor",100,"poor",1
215,"5e18762ae80b8e1495d584d7",1,"Sans F A","CLUTTER","pusher","Study2","U","JOL",6819,"4",6438,"pusher",100,"pusher",1
216,"5e18762ae80b8e1495d584d7",1,"Sans F A","CRAYON","rate","Study1","U","JOL",8424,"11",7009,"",0,"rate",0
217,"5e18762ae80b8e1495d584d7",1,"Sans F A","PUT","roll","Study2","U","JOL_SF",5932,"11",3795,"",0,"roll",0
218,"5e18762ae80b8e1495d584d7",1,"Sans F A","MAIN","scar","Study1","U","JOL",14556,"27",8033,"scar",100,"scar",1
219,"5e18762ae80b8e1495d584d7",1,"Sans F A","ROAD","scent","Study2","U","JOL_SF",5150,"2",9444,"",0,"scent",0
220,"5e18762ae80b8e1495d584d7",1,"Sans F A","WARN","sea","Study1","U","JOL",8174,"1",5632,"",0,"sea",0
221,"5e18762ae80b8e1495d584d7",1,"Sans F A","WASTE","sedate","Study2","U","JOL",7718,"34",5148,"",0,"sedate",0
222,"5e18762ae80b8e1495d584d7",1,"Sans F A","SHELL","shake","Study1","U","JOL_SF",9306,"35",5886,"shake",100,"shake",1
223,"5e18762ae80b8e1495d584d7",1,"Sans F A","BAT","shaky","Study1","U","JOL_SF",8573,"6",9717,"shaky",100,"shaky",1
224,"5e18762ae80b8e1495d584d7",1,"Sans F A","LOAN","sign","Study1","U","JOL_SF",9016,"24",6516,"sign",100,"sign",1
225,"5e18762ae80b8e1495d584d7",1,"Sans F A","FUTURE","sincere","Study1","U","JOL",6015,"8",3880,"",0,"sincere",0
226,"5e18762ae80b8e1495d584d7",1,"Sans F A","BELT","soon","Study2","U","JOL",9349,"38",3272,"",0,"soon",0
227,"5e18762ae80b8e1495d584d7",1,"Sans F A","GRIND","stand","Study1","U","JOL",7965,"50",7879,"",0,"stand",0
228,"5e18762ae80b8e1495d584d7",1,"Sans F A","GIVE","steak","Study1","U","JOL_SF",8607,"22",7821,"steak",100,"steak",1
229,"5e18762ae80b8e1495d584d7",1,"Sans F A","ACCIDENT","strong","Study2","U","JOL_SF",6619,"14",3595,"",0,"strong",0
230,"5e18762ae80b8e1495d584d7",1,"Sans F A","RIDDLE","sugar","Study2","U","JOL",8595,"73",7058,"sugar",100,"sugar",1
231,"5e18762ae80b8e1495d584d7",1,"Sans F A","DIZZY","sweater","Study1","U","JOL_SF",7996,"9",5688,"",0,"sweater",0
232,"5e18762ae80b8e1495d584d7",1,"Sans F A","PARCEL","throat","Study1","U","JOL_SF",11912,"26",8324,"",0,"throat",0
233,"5e18762ae80b8e1495d584d7",1,"Sans F A","ZOO","thumb","Study2","U","JOL",9633,"58",6328,"thumb",100,"thumb",1
234,"5e18762ae80b8e1495d584d7",1,"Sans F A","LEASE","toil","Study1","U","JOL_SF",7051,"2",8596,"",0,"toil",0
235,"5e18762ae80b8e1495d584d7",1,"Sans F A","STOMACH","town","Study2","U","JOL",6484,"9",4874,"",0,"town",0
236,"5e18762ae80b8e1495d584d7",1,"Sans F A","ADD","valley","Study2","U","JOL",6258,"65",8003,"valley",100,"valley",1
237,"5e18762ae80b8e1495d584d7",1,"Sans F A","RIPE","verify","Study1","U","JOL",8432,"5",4507,"",0,"verify",0
238,"5e18762ae80b8e1495d584d7",1,"Sans F A","MUTE","wave","Study2","U","JOL",5476,"8",3986,"",0,"wave",0
239,"5e18762ae80b8e1495d584d7",1,"Sans F A","GUARD","wheel","Study2","U","JOL_SF",7444,"51",6257,"wheel",100,"wheel",1
240,"5e18762ae80b8e1495d584d7",1,"Sans F A","STRESS","yam","Study1","U","JOL",11725,"6",7202,"yam",100,"yam",1
241,"5eaa97d07eda6e01ec108107",1,"Sans F A","CRACKLE","able","Study1","U","JOL",4536,"20",2981,"pop",0,"able",0
242,"5eaa97d07eda6e01ec108107",1,"Sans F A","TUCK","allow","Study2","U","JOL_SF",2997,"20",4495,"tick",0,"allow",0
243,"5eaa97d07eda6e01ec108107",1,"Sans F A","LION","art","Study2","U","JOL",2821,"20",6823,"star",57.142857142857,"art",0
244,"5eaa97d07eda6e01ec108107",1,"Sans F A","BRONZE","artery","Study2","U","JOL",3598,"10",3740,"art",66.666666666667,"artery",0
245,"5eaa97d07eda6e01ec108107",1,"Sans F A","FUZZY","bang","Study1","U","JOL",2959,"50",15678,"fizzy",0,"bang",0
246,"5eaa97d07eda6e01ec108107",1,"Sans F A","SPELL","bone","Study2","U","JOL_SF",5017,"10",4316,"word",25,"bone",0
247,"5eaa97d07eda6e01ec108107",1,"Sans F A","WOULD","cash","Study2","U","JOL_SF",7693,"20",8669,"could",22.222222222222,"cash",0
248,"5eaa97d07eda6e01ec108107",1,"Sans F A","DEGREE","chair","Study1","U","JOL",2683,"20",9533,"burn",22.222222222222,"chair",0
249,"5eaa97d07eda6e01ec108107",1,"Sans F A","VEHICLE","charm","Study1","U","JOL_SF",4771,"20",4115,"broom",40,"charm",0
250,"5eaa97d07eda6e01ec108107",1,"Sans F A","MIRROR","children","Study1","U","JOL_SF",3978,"40",3909,"children",100,"children",1
251,"5eaa97d07eda6e01ec108107",1,"Sans F A","MOAT","clear","Study1","U","JOL_SF",4129,"10",35077,"bloat",40,"clear",0
252,"5eaa97d07eda6e01ec108107",1,"Sans F A","STRETCH","cloth","Study1","U","JOL",5421,"70",12083,"meat",22.222222222222,"cloth",0
253,"5eaa97d07eda6e01ec108107",1,"Sans F A","CAKE","clothes","Study1","U","JOL_SF",4339,"40",55180,"cool",36.363636363636,"clothes",0
254,"5eaa97d07eda6e01ec108107",1,"Sans F A","THICK","contest","Study1","U","JOL",3103,"40",6370,"thin",18.181818181818,"contest",0
255,"5eaa97d07eda6e01ec108107",1,"Sans F A","READY","corn","Study2","U","JOL",2044,"10",2933,"start",22.222222222222,"corn",0
256,"5eaa97d07eda6e01ec108107",1,"Sans F A","NULL","cough","Study2","U","JOL",12181,"20",2929,"nill",0,"cough",0
257,"5eaa97d07eda6e01ec108107",1,"Sans F A","Business","death","Study2","U","JOL",4898,"10",2471,"card",22.222222222222,"death",0
258,"5eaa97d07eda6e01ec108107",1,"Sans F A","SIGHT","debate","Study2","U","JOL",2472,"30",3772,"short",18.181818181818,"debate",0
259,"5eaa97d07eda6e01ec108107",1,"Sans F A","SACKING","dietary","Study2","U","JOL",2908,"20",4906,"staff",33.333333333333,"dietary",0
260,"5eaa97d07eda6e01ec108107",1,"Sans F A","FLOOR","discover","Study2","U","JOL_SF",2185,"20",4308,"door",50,"discover",0
261,"5eaa97d07eda6e01ec108107",1,"Sans F A","INFLATE","disgust","Study1","U","JOL",3408,"10",7447,"blow",0,"disgust",0
262,"5eaa97d07eda6e01ec108107",1,"Sans F A","MAZE","election","Study1","U","JOL",3947,"30",5799,"puzzle",28.571428571429,"election",0
263,"5eaa97d07eda6e01ec108107",1,"Sans F A","LISTEN","fiction","Study1","U","JOL_SF",3170,"30",3397,"sound",33.333333333333,"fiction",0
264,"5eaa97d07eda6e01ec108107",1,"Sans F A","HAND","fix","Study2","U","JOL",9880,"40",2748,"short",0,"fix",0
265,"5eaa97d07eda6e01ec108107",1,"Sans F A","SWING","fog","Study2","U","JOL",2344,"20",4678,"saw",0,"fog",0
266,"5eaa97d07eda6e01ec108107",1,"Sans F A","DETECT","free","Study2","U","JOL",3391,"20",4384,"stop",0,"free",0
267,"5eaa97d07eda6e01ec108107",1,"Sans F A","RESIST","glue","Study1","U","JOL_SF",4458,"50",3267,"pull",25,"glue",0
268,"5eaa97d07eda6e01ec108107",1,"Sans F A","CAR","happy","Study2","U","JOL",2772,"30",3603,"bike",0,"happy",0
269,"5eaa97d07eda6e01ec108107",1,"Sans F A","NUMBER","hard","Study1","U","JOL",3230,"60",5816,"letter",20,"hard",0
270,"5eaa97d07eda6e01ec108107",1,"Sans F A","FLOAT","harmony","Study2","U","JOL_SF",2947,"10",43920,"swim",18.181818181818,"harmony",0
271,"5eaa97d07eda6e01ec108107",1,"Sans F A","NAME","hate","Study1","U","JOL_SF",6276,"60",10888,"tag",28.571428571429,"hate",0
272,"5eaa97d07eda6e01ec108107",1,"Sans F A","SICK","hide","Study2","U","JOL",2593,"10",9836,"dog",28.571428571429,"hide",0
273,"5eaa97d07eda6e01ec108107",1,"Sans F A","BROAD","infect","Study1","U","JOL_SF",4581,"50",15779,"stretch",15.384615384615,"infect",0
274,"5eaa97d07eda6e01ec108107",1,"Sans F A","KEYS","joke","Study1","U","JOL",3585,"40",4462,"tone",50,"joke",1
275,"5eaa97d07eda6e01ec108107",1,"Sans F A","VASE","king","Study2","U","JOL_SF",2320,"10",3781,"flower",0,"king",0
276,"5eaa97d07eda6e01ec108107",1,"Sans F A","SLIM","know","Study2","U","JOL",1994,"10",9233,"thick",22.222222222222,"know",0
277,"5eaa97d07eda6e01ec108107",1,"Sans F A","SYSTEM","lick","Study2","U","JOL",2324,"10",9294,"computer",16.666666666667,"lick",0
278,"5eaa97d07eda6e01ec108107",1,"Sans F A","DONKEY","lush","Study1","U","JOL",4540,"30",52138,"mat",0,"lush",0
279,"5eaa97d07eda6e01ec108107",1,"Sans F A","POSITION","machine","Study2","U","JOL",2862,"10",7054,"back",36.363636363636,"machine",0
280,"5eaa97d07eda6e01ec108107",1,"Sans F A","JUSTICE","maroon","Study1","U","JOL_SF",5210,"10",9005,"system",16.666666666667,"maroon",0
281,"5eaa97d07eda6e01ec108107",1,"Sans F A","PET","moon","Study1","U","JOL",4433,"40",45633,"shop",25,"moon",0
282,"5eaa97d07eda6e01ec108107",1,"Sans F A","TEMPERATURE","morning","Study1","U","JOL",4053,"60",12714,"sea",0,"morning",0
283,"5eaa97d07eda6e01ec108107",1,"Sans F A","JELLY","naughty","Study2","U","JOL_SF",3387,"10",4767,"fish",18.181818181818,"naughty",0
284,"5eaa97d07eda6e01ec108107",1,"Sans F A","ROSE","neglect","Study1","U","JOL",3613,"30",5988,"blossom",14.285714285714,"neglect",0
285,"5eaa97d07eda6e01ec108107",1,"Sans F A","DESIRE","noise","Study2","U","JOL_SF",2887,"20",4369,"gold",22.222222222222,"noise",0
286,"5eaa97d07eda6e01ec108107",1,"Sans F A","PUFF","number","Study2","U","JOL_SF",3925,"20",7507,"frozen",16.666666666667,"number",0
287,"5eaa97d07eda6e01ec108107",1,"Sans F A","PUFF","number","Study2","U","JOL_SF",2896,"10",3301,"frozen",16.666666666667,"number",0
288,"5eaa97d07eda6e01ec108107",1,"Sans F A","MEAT","obtain","Study1","U","JOL_SF",4650,"10",7391,"gravy",18.181818181818,"obtain",0
289,"5eaa97d07eda6e01ec108107",1,"Sans F A","SMOOTH","omit","Study2","U","JOL_SF",2836,"10",2632,"talker",20,"omit",0
290,"5eaa97d07eda6e01ec108107",1,"Sans F A","LAKE","opinion","Study2","U","JOL_SF",1918,"20",5733,"swim",18.181818181818,"opinion",0
291,"5eaa97d07eda6e01ec108107",1,"Sans F A","BOTH","ounce","Study1","U","JOL",3654,"20",4569,"strike",18.181818181818,"ounce",0
292,"5eaa97d07eda6e01ec108107",1,"Sans F A","TAX","owl","Study1","U","JOL_SF",3973,"10",3465,"revenue",0,"owl",0
293,"5eaa97d07eda6e01ec108107",1,"Sans F A","HUNGRY","park","Study2","U","JOL_SF",2361,"10",17837,"maze",25,"park",0
294,"5eaa97d07eda6e01ec108107",1,"Sans F A","DIFFICULT","poor","Study1","U","JOL_SF",4209,"20",33774,"task",0,"poor",0
295,"5eaa97d07eda6e01ec108107",1,"Sans F A","CLUTTER","pusher","Study2","U","JOL_SF",3403,"20",2699,"bin",0,"pusher",0
296,"5eaa97d07eda6e01ec108107",1,"Sans F A","CRAYON","rate","Study1","U","JOL",6163,"20",4624,"colour",20,"rate",0
297,"5eaa97d07eda6e01ec108107",1,"Sans F A","PUT","roll","Study2","U","JOL_SF",1786,"20",5983,"chill",44.444444444444,"roll",0
298,"5eaa97d07eda6e01ec108107",1,"Sans F A","MAIN","scar","Study1","U","JOL",3490,"30",5013,"meal",25,"scar",0
299,"5eaa97d07eda6e01ec108107",1,"Sans F A","ROAD","scent","Study2","U","JOL_SF",2517,"20",2810,"sign",44.444444444444,"scent",0
300,"5eaa97d07eda6e01ec108107",1,"Sans F A","WARN","sea","Study1","U","JOL_SF",5867,"60",13043,"sign",28.571428571429,"sea",0
301,"5eaa97d07eda6e01ec108107",1,"Sans F A","WASTE","sedate","Study2","U","JOL",2832,"10",5963,"bin",0,"sedate",0
302,"5eaa97d07eda6e01ec108107",1,"Sans F A","SHELL","shake","Study1","U","JOL_SF",4260,"50",3349,"sea",50,"shake",0
303,"5eaa97d07eda6e01ec108107",1,"Sans F A","BAT","shaky","Study1","U","JOL_SF",3415,"50",6953,"mobile",0,"shaky",0
304,"5eaa97d07eda6e01ec108107",1,"Sans F A","LOAN","sign","Study1","U","JOL_SF",4023,"60",3663,"tax",0,"sign",0
305,"5eaa97d07eda6e01ec108107",1,"Sans F A","FUTURE","sincere","Study1","U","JOL",4498,"20",57471,"past",18.181818181818,"sincere",0
306,"5eaa97d07eda6e01ec108107",1,"Sans F A","BELT","soon","Study2","U","JOL_SF",2815,"20",22237,"slim",25,"soon",0
307,"5eaa97d07eda6e01ec108107",1,"Sans F A","GRIND","stand","Study1","U","JOL",9306,"20",4687,"gears",20,"stand",0
308,"5eaa97d07eda6e01ec108107",1,"Sans F A","GIVE","steak","Study1","U","JOL_SF",3993,"20",11258,"receive",16.666666666667,"steak",0
309,"5eaa97d07eda6e01ec108107",1,"Sans F A","ACCIDENT","strong","Study2","U","JOL_SF",2796,"20",8031,"car",22.222222222222,"strong",0
310,"5eaa97d07eda6e01ec108107",1,"Sans F A","RIDDLE","sugar","Study2","U","JOL_SF",3511,"20",2777,"clue",22.222222222222,"sugar",0
311,"5eaa97d07eda6e01ec108107",1,"Sans F A","DIZZY","sweater","Study1","U","JOL",4247,"40",3727,"fizzy",0,"sweater",0
312,"5eaa97d07eda6e01ec108107",1,"Sans F A","PARCEL","throat","Study1","U","JOL_SF",5679,"30",4245,"package",15.384615384615,"throat",0
313,"5eaa97d07eda6e01ec108107",1,"Sans F A","ZOO","thumb","Study2","U","JOL",3282,"20",3513,"animal",18.181818181818,"thumb",0
314,"5eaa97d07eda6e01ec108107",1,"Sans F A","LEASE","toil","Study1","U","JOL",2554,"20",11569,"money",22.222222222222,"toil",0
315,"5eaa97d07eda6e01ec108107",1,"Sans F A","STOMACH","town","Study2","U","JOL",11315,"10",2469,"bug",0,"town",0
316,"5eaa97d07eda6e01ec108107",1,"Sans F A","ADD","valley","Study2","U","JOL",2267,"30",7105,"subtract",14.285714285714,"valley",0
317,"5eaa97d07eda6e01ec108107",1,"Sans F A","RIPE","verify","Study1","U","JOL_SF",4416,"10",7527,"apple",18.181818181818,"verify",0
318,"5eaa97d07eda6e01ec108107",1,"Sans F A","MUTE","wave","Study2","U","JOL",2842,"20",3115,"sound",0,"wave",0
319,"5eaa97d07eda6e01ec108107",1,"Sans F A","GUARD","wheel","Study2","U","JOL_SF",3288,"20",4158,"stop",0,"wheel",0
320,"5eaa97d07eda6e01ec108107",1,"Sans F A","STRESS","yam","Study1","U","JOL_SF",7014,"40",3273,"ball",28.571428571429,"yam",0
321,"5f21cd95e4a314617a2b2067",1,"Sans F A","CRACKLE","able","Study1","U","JOL",9775,"80",891,"",0,"able",0
322,"5f21cd95e4a314617a2b2067",1,"Sans F A","TUCK","allow","Study2","U","JOL",570,"74",97,"",0,"allow",0
323,"5f21cd95e4a314617a2b2067",1,"Sans F A","LION","art","Study2","U","JOL_SF",470,"0",170,"",0,"art",0
324,"5f21cd95e4a314617a2b2067",1,"Sans F A","BRONZE","artery","Study2","U","JOL",1315,"75",189,"",0,"artery",0
325,"5f21cd95e4a314617a2b2067",1,"Sans F A","FUZZY","bang","Study1","U","JOL_SF",2227,"67",1524,"",0,"bang",0
326,"5f21cd95e4a314617a2b2067",1,"Sans F A","SPELL","bone","Study2","U","JOL",531,"85",51,"",0,"bone",0
327,"5f21cd95e4a314617a2b2067",1,"Sans F A","WOULD","cash","Study2","U","JOL",764,"80",207,"",0,"cash",0
328,"5f21cd95e4a314617a2b2067",1,"Sans F A","DEGREE","chair","Study1","U","JOL_SF",1341,"75",26,"",0,"chair",0
329,"5f21cd95e4a314617a2b2067",1,"Sans F A","VEHICLE","charm","Study1","U","JOL",996,"23",31,"",0,"charm",0
330,"5f21cd95e4a314617a2b2067",1,"Sans F A","MIRROR","children","Study1","U","JOL_SF",3204,"99",173,"",0,"children",0
331,"5f21cd95e4a314617a2b2067",1,"Sans F A","MOAT","clear","Study1","U","JOL",3536,"50",128,"",0,"clear",0
332,"5f21cd95e4a314617a2b2067",1,"Sans F A","STRETCH","cloth","Study1","U","JOL_SF",1997,"80",334,"",0,"cloth",0
333,"5f21cd95e4a314617a2b2067",1,"Sans F A","CAKE","clothes","Study1","U","JOL_SF",1590,"70",167,"",0,"clothes",0
334,"5f21cd95e4a314617a2b2067",1,"Sans F A","THICK","contest","Study1","U","JOL",2177,"100",627,"",0,"contest",0
335,"5f21cd95e4a314617a2b2067",1,"Sans F A","READY","corn","Study2","U","JOL_SF",520,"0",93,"",0,"corn",0
336,"5f21cd95e4a314617a2b2067",1,"Sans F A","NULL","cough","Study2","U","JOL",528,"96",33,"",0,"cough",0
337,"5f21cd95e4a314617a2b2067",1,"Sans F A","Business","death","Study2","U","JOL_SF",840,"22",558,"",0,"death",0
338,"5f21cd95e4a314617a2b2067",1,"Sans F A","Business","death","Study2","U","JOL_SF",280,"0",189,"",0,"death",0
339,"5f21cd95e4a314617a2b2067",1,"Sans F A","SIGHT","debate","Study2","U","JOL_SF",393,"0",38,"",0,"debate",0
340,"5f21cd95e4a314617a2b2067",1,"Sans F A","SACKING","dietary","Study2","U","JOL_SF",718,"16",328,"",0,"dietary",0
341,"5f21cd95e4a314617a2b2067",1,"Sans F A","FLOOR","discover","Study2","U","JOL_SF",620,"74",181,"",0,"discover",0
342,"5f21cd95e4a314617a2b2067",1,"Sans F A","INFLATE","disgust","Study1","U","JOL_SF",1209,"65",33,"",0,"disgust",0
343,"5f21cd95e4a314617a2b2067",1,"Sans F A","MAZE","election","Study1","U","JOL_SF",3874,"98",176,"",0,"election",0
344,"5f21cd95e4a314617a2b2067",1,"Sans F A","LISTEN","fiction","Study1","U","JOL_SF",774,"74",374,"",0,"fiction",0
345,"5f21cd95e4a314617a2b2067",1,"Sans F A","HAND","fix","Study2","U","JOL",219,NA,125,"",0,"fix",0
346,"5f21cd95e4a314617a2b2067",1,"Sans F A","SWING","fog","Study2","U","JOL",1798,"46",223,"",0,"fog",0
347,"5f21cd95e4a314617a2b2067",1,"Sans F A","DETECT","free","Study2","U","JOL",148,NA,96,"",0,"free",0
348,"5f21cd95e4a314617a2b2067",1,"Sans F A","RESIST","glue","Study1","U","JOL",3392,"54",484,"",0,"glue",0
349,"5f21cd95e4a314617a2b2067",1,"Sans F A","CAR","happy","Study2","U","JOL",647,"62",124,"",0,"happy",0
350,"5f21cd95e4a314617a2b2067",1,"Sans F A","NUMBER","hard","Study1","U","JOL",2766,"100",3577,"letter",20,"hard",0
351,"5f21cd95e4a314617a2b2067",1,"Sans F A","FLOAT","harmony","Study2","U","JOL",642,NA,188,"",0,"harmony",0
352,"5f21cd95e4a314617a2b2067",1,"Sans F A","NAME","hate","Study1","U","JOL",2657,"100",5579,"jam",28.571428571429,"hate",0
353,"5f21cd95e4a314617a2b2067",1,"Sans F A","SICK","hide","Study2","U","JOL_SF",467,"75",442,"",0,"hide",0
354,"5f21cd95e4a314617a2b2067",1,"Sans F A","BROAD","infect","Study1","U","JOL_SF",2514,"20",2988,"milk",20,"infect",0
355,"5f21cd95e4a314617a2b2067",1,"Sans F A","KEYS","joke","Study1","U","JOL_SF",2481,"30",4259,"lock",50,"joke",0
356,"5f21cd95e4a314617a2b2067",1,"Sans F A","VASE","king","Study2","U","JOL_SF",1051,"474",158,"",0,"king",0
357,"5f21cd95e4a314617a2b2067",1,"Sans F A","SLIM","know","Study2","U","JOL",732,"22",32,"",0,"know",0
358,"5f21cd95e4a314617a2b2067",1,"Sans F A","SYSTEM","lick","Study2","U","JOL",669,"96",208,"",0,"lick",0
359,"5f21cd95e4a314617a2b2067",1,"Sans F A","WOMAN","lift","Study2","U","JOL_SF",550,"27",168,"",0,"lift",0
360,"5f21cd95e4a314617a2b2067",1,"Sans F A","DONKEY","lush","Study1","U","JOL_SF",3689,"67",373,"",0,"lush",0
361,"5f21cd95e4a314617a2b2067",1,"Sans F A","POSITION","machine","Study2","U","JOL_SF",187,NA,123,"",0,"machine",0
362,"5f21cd95e4a314617a2b2067",1,"Sans F A","JUSTICE","maroon","Study1","U","JOL",2448,"21",960,"",0,"maroon",0
363,"5f21cd95e4a314617a2b2067",1,"Sans F A","PET","moon","Study1","U","JOL",3311,"79",329,"",0,"moon",0
364,"5f21cd95e4a314617a2b2067",1,"Sans F A","TEMPERATURE","morning","Study1","U","JOL",1739,"68",877,"",0,"morning",0
365,"5f21cd95e4a314617a2b2067",1,"Sans F A","JELLY","naughty","Study2","U","JOL",526,"27",320,"",0,"naughty",0
366,"5f21cd95e4a314617a2b2067",1,"Sans F A","ROSE","neglect","Study1","U","JOL",893,"34",113,"",0,"neglect",0
367,"5f21cd95e4a314617a2b2067",1,"Sans F A","DESIRE","noise","Study2","U","JOL",621,"10",163,"",0,"noise",0
368,"5f21cd95e4a314617a2b2067",1,"Sans F A","PUFF","number","Study2","U","JOL_SF",802,"10",321,"",0,"number",0
369,"5f21cd95e4a314617a2b2067",1,"Sans F A","MEAT","obtain","Study1","U","JOL_SF",1088,"97",3710,"food",20,"obtain",0
370,"5f21cd95e4a314617a2b2067",1,"Sans F A","SMOOTH","omit","Study2","U","JOL_SF",564,"73",119,"",0,"omit",0
371,"5f21cd95e4a314617a2b2067",1,"Sans F A","LAKE","opinion","Study2","U","JOL_SF",430,"9",391,"",0,"opinion",0
372,"5f21cd95e4a314617a2b2067",1,"Sans F A","BOTH","ounce","Study1","U","JOL",9243,"40",374,"",0,"ounce",0
373,"5f21cd95e4a314617a2b2067",1,"Sans F A","TAX","owl","Study1","U","JOL",2097,"42",205,"",0,"owl",0
374,"5f21cd95e4a314617a2b2067",1,"Sans F A","HUNGRY","park","Study2","U","JOL_SF",410,"5",147,"",0,"park",0
375,"5f21cd95e4a314617a2b2067",1,"Sans F A","DIFFICULT","poor","Study1","U","JOL",1468,"34",188,"",0,"poor",0
376,"5f21cd95e4a314617a2b2067",1,"Sans F A","CLUTTER","pusher","Study2","U","JOL_SF",660,"64",103,"",0,"pusher",0
377,"5f21cd95e4a314617a2b2067",1,"Sans F A","CRAYON","rate","Study1","U","JOL_SF",2531,"20",164,"",0,"rate",0
378,"5f21cd95e4a314617a2b2067",1,"Sans F A","PUT","roll","Study2","U","JOL",137,NA,58,"",0,"roll",0
379,"5f21cd95e4a314617a2b2067",1,"Sans F A","MAIN","scar","Study1","U","JOL",1446,"76",25,"",0,"scar",0
380,"5f21cd95e4a314617a2b2067",1,"Sans F A","ROAD","scent","Study2","U","JOL_SF",467,"0",135,"",0,"scent",0
381,"5f21cd95e4a314617a2b2067",1,"Sans F A","WARN","sea","Study1","U","JOL",2332,"87",806,"",0,"sea",0
382,"5f21cd95e4a314617a2b2067",1,"Sans F A","WASTE","sedate","Study2","U","JOL",575,"11",235,"",0,"sedate",0
383,"5f21cd95e4a314617a2b2067",1,"Sans F A","SHELL","shake","Study1","U","JOL",957,"464",381,"",0,"shake",0
384,"5f21cd95e4a314617a2b2067",1,"Sans F A","BAT","shaky","Study1","U","JOL_SF",3181,"10",680,"",0,"shaky",0
385,"5f21cd95e4a314617a2b2067",1,"Sans F A","LOAN","sign","Study1","U","JOL",720,"34",30,"",0,"sign",0
386,"5f21cd95e4a314617a2b2067",1,"Sans F A","FUTURE","sincere","Study1","U","JOL",3143,"30",94,"",0,"sincere",0
387,"5f21cd95e4a314617a2b2067",1,"Sans F A","BELT","soon","Study2","U","JOL_SF",140,NA,1779," ",0,"soon",0
388,"5f21cd95e4a314617a2b2067",1,"Sans F A","GRIND","stand","Study1","U","JOL_SF",1089,"54",129,"",0,"stand",0
389,"5f21cd95e4a314617a2b2067",1,"Sans F A","GIVE","steak","Study1","U","JOL_SF",1170,"23",1896,"butter",36.363636363636,"steak",0
390,"5f21cd95e4a314617a2b2067",1,"Sans F A","ACCIDENT","strong","Study2","U","JOL",584,"47",325,"",0,"strong",0
391,"5f21cd95e4a314617a2b2067",1,"Sans F A","RIDDLE","sugar","Study2","U","JOL_SF",637,NA,87,"",0,"sugar",0
392,"5f21cd95e4a314617a2b2067",1,"Sans F A","DIZZY","sweater","Study1","U","JOL",1274,"64",840,"",0,"sweater",0
393,"5f21cd95e4a314617a2b2067",1,"Sans F A","PARCEL","throat","Study1","U","JOL_SF",1702,"67",3909,"customer",28.571428571429,"throat",0
394,"5f21cd95e4a314617a2b2067",1,"Sans F A","ZOO","thumb","Study2","U","JOL",456,"0",116,"",0,"thumb",0
395,"5f21cd95e4a314617a2b2067",1,"Sans F A","LEASE","toil","Study1","U","JOL_SF",3629,"12",88,"",0,"toil",0
396,"5f21cd95e4a314617a2b2067",1,"Sans F A","STOMACH","town","Study2","U","JOL_SF",345,"0",137,"",0,"town",0
397,"5f21cd95e4a314617a2b2067",1,"Sans F A","RIPE","verify","Study1","U","JOL_SF",995,"34",32,"",0,"verify",0
398,"5f21cd95e4a314617a2b2067",1,"Sans F A","MUTE","wave","Study2","U","JOL",598,"68",309,"",0,"wave",0
399,"5f21cd95e4a314617a2b2067",1,"Sans F A","GUARD","wheel","Study2","U","JOL",544,"83",763,"",0,"wheel",0
400,"5f21cd95e4a314617a2b2067",1,"Sans F A","STRESS","yam","Study1","U","JOL_SF",1459,"12",230,"",0,"yam",0
401,"5f2b2c38344357530961afa1",1,"Sans F A","CRACKLE","able","Study1","U","JOL",17904,"7",1663,"pop",0,"able",0
402,"5f2b2c38344357530961afa1",1,"Sans F A","TUCK","allow","Study2","U","JOL",999,"4",1611,"",0,"allow",0
403,"5f2b2c38344357530961afa1",1,"Sans F A","LION","art","Study2","U","JOL",1334,"1",2339,"kin",0,"art",0
404,"5f2b2c38344357530961afa1",1,"Sans F A","BRONZE","artery","Study2","U","JOL_SF",10756,"4",2006,"silver",33.333333333333,"artery",0
405,"5f2b2c38344357530961afa1",1,"Sans F A","FUZZY","bang","Study1","U","JOL",3929,"15",2158,"beard",44.444444444444,"bang",0
406,"5f2b2c38344357530961afa1",1,"Sans F A","SPELL","bone","Study2","U","JOL_SF",1201,"0",1867,"magic",0,"bone",0
407,"5f2b2c38344357530961afa1",1,"Sans F A","WOULD","cash","Study2","U","JOL",3888,"10",2404,"coudl",22.222222222222,"cash",0
408,"5f2b2c38344357530961afa1",1,"Sans F A","DEGREE","chair","Study1","U","JOL",6150,"10",4008,"bachelr",50,"chair",0
409,"5f2b2c38344357530961afa1",1,"Sans F A","VEHICLE","charm","Study1","U","JOL_SF",5149,"5",7355,"drive",20,"charm",0
410,"5f2b2c38344357530961afa1",1,"Sans F A","MIRROR","children","Study1","U","JOL_SF",1288,"4",4256,"miroir",28.571428571429,"children",0
411,"5f2b2c38344357530961afa1",1,"Sans F A","MOAT","clear","Study1","U","JOL",3443,"12",2656,"water",40,"clear",0
412,"5f2b2c38344357530961afa1",1,"Sans F A","STRETCH","cloth","Study1","U","JOL_SF",5385,"2",7128,"wide",0,"cloth",0
413,"5f2b2c38344357530961afa1",1,"Sans F A","CAKE","clothes","Study1","U","JOL_SF",5023,"6",3837,"clothes",100,"clothes",1
414,"5f2b2c38344357530961afa1",1,"Sans F A","THICK","contest","Study1","U","JOL",3224,"0",3775,"",0,"contest",0
415,"5f2b2c38344357530961afa1",1,"Sans F A","READY","corn","Study2","U","JOL_SF",1315,"4",1747,"set",0,"corn",0
416,"5f2b2c38344357530961afa1",1,"Sans F A","NULL","cough","Study2","U","JOL_SF",3329,"1",2245,"zero",22.222222222222,"cough",0
417,"5f2b2c38344357530961afa1",1,"Sans F A","Business","death","Study2","U","JOL",697,"3",2695,"job",0,"death",0
418,"5f2b2c38344357530961afa1",1,"Sans F A","SIGHT","debate","Study2","U","JOL",2162,"0",2841,"loss",0,"debate",0
419,"5f2b2c38344357530961afa1",1,"Sans F A","SACKING","dietary","Study2","U","JOL_SF",2857,"3",2230,"job",0,"dietary",0
420,"5f2b2c38344357530961afa1",1,"Sans F A","FLOOR","discover","Study2","U","JOL_SF",7399,"3",1044,"",0,"discover",0
421,"5f2b2c38344357530961afa1",1,"Sans F A","INFLATE","disgust","Study1","U","JOL_SF",2613,"1",9039,"",0,"disgust",0
422,"5f2b2c38344357530961afa1",1,"Sans F A","MAZE","election","Study1","U","JOL_SF",3782,"13",2355,"hedge",30.769230769231,"election",0
423,"5f2b2c38344357530961afa1",1,"Sans F A","LISTEN","fiction","Study1","U","JOL_SF",5660,"6",927,"",0,"fiction",0
424,"5f2b2c38344357530961afa1",1,"Sans F A","HAND","fix","Study2","U","JOL",2888,"20",2659,"foot",28.571428571429,"fix",0
425,"5f2b2c38344357530961afa1",1,"Sans F A","SWING","fog","Study2","U","JOL",16521,"3",2530,"roundabout",15.384615384615,"fog",0
426,"5f2b2c38344357530961afa1",1,"Sans F A","DETECT","free","Study2","U","JOL_SF",1219,"3",2010,"find",25,"free",0
427,"5f2b2c38344357530961afa1",1,"Sans F A","RESIST","glue","Study1","U","JOL",4865,"10",2090,"hard",0,"glue",0
428,"5f2b2c38344357530961afa1",1,"Sans F A","CAR","happy","Study2","U","JOL",8934,"5",2147,"wash",22.222222222222,"happy",0
429,"5f2b2c38344357530961afa1",1,"Sans F A","NUMBER","hard","Study1","U","JOL_SF",4602,"10",4116,"hard",100,"hard",1
430,"5f2b2c38344357530961afa1",1,"Sans F A","FLOAT","harmony","Study2","U","JOL",3274,"2",5080,"",0,"harmony",0
431,"5f2b2c38344357530961afa1",1,"Sans F A","NAME","hate","Study1","U","JOL",1440,"4",2020,"tage",50,"hate",1
432,"5f2b2c38344357530961afa1",1,"Sans F A","SICK","hide","Study2","U","JOL",9292,"8",1576,"ill",28.571428571429,"hide",0
433,"5f2b2c38344357530961afa1",1,"Sans F A","BROAD","infect","Study1","U","JOL",16767,"3",2155,"wide",40,"infect",0
434,"5f2b2c38344357530961afa1",1,"Sans F A","KEYS","joke","Study1","U","JOL_SF",2661,"2",2856,"piano",22.222222222222,"joke",0
435,"5f2b2c38344357530961afa1",1,"Sans F A","VASE","king","Study2","U","JOL",818,"6",1750,"flower",0,"king",0
436,"5f2b2c38344357530961afa1",1,"Sans F A","SLIM","know","Study2","U","JOL_SF",4772,"7",2252,"thin",25,"know",0
437,"5f2b2c38344357530961afa1",1,"Sans F A","SYSTEM","lick","Study2","U","JOL_SF",4636,"3",1188,"",0,"lick",0
438,"5f2b2c38344357530961afa1",1,"Sans F A","WOMAN","lift","Study2","U","JOL",1387,"4",1341,"man",0,"lift",0
439,"5f2b2c38344357530961afa1",1,"Sans F A","DONKEY","lush","Study1","U","JOL_SF",2922,"8",1947,"kong",0,"lush",0
440,"5f2b2c38344357530961afa1",1,"Sans F A","POSITION","machine","Study2","U","JOL_SF",2977,"2",2413,"place",50,"machine",0
441,"5f2b2c38344357530961afa1",1,"Sans F A","JUSTICE","maroon","Study1","U","JOL_SF",3544,"3",4289,"given",18.181818181818,"maroon",0
442,"5f2b2c38344357530961afa1",1,"Sans F A","PET","moon","Study1","U","JOL",30907,"30",2417,"dog",28.571428571429,"moon",0
443,"5f2b2c38344357530961afa1",1,"Sans F A","TEMPERATURE","morning","Study1","U","JOL",5143,"3",6085,"warm",18.181818181818,"morning",0
444,"5f2b2c38344357530961afa1",1,"Sans F A","JELLY","naughty","Study2","U","JOL",3164,"5",2455,"wobble",0,"naughty",0
445,"5f2b2c38344357530961afa1",1,"Sans F A","ROSE","neglect","Study1","U","JOL",1043,"3",3979,"petal",33.333333333333,"neglect",0
446,"5f2b2c38344357530961afa1",1,"Sans F A","DESIRE","noise","Study2","U","JOL",1919,"3",1643,"love",44.444444444444,"noise",0
447,"5f2b2c38344357530961afa1",1,"Sans F A","PUFF","number","Study2","U","JOL",886,"3",3880,"dragon",16.666666666667,"number",0
448,"5f2b2c38344357530961afa1",1,"Sans F A","MEAT","obtain","Study1","U","JOL",1540,"1",3225,"",0,"obtain",0
449,"5f2b2c38344357530961afa1",1,"Sans F A","SMOOTH","omit","Study2","U","JOL",1316,"1",10054,"",0,"omit",0
450,"5f2b2c38344357530961afa1",1,"Sans F A","LAKE","opinion","Study2","U","JOL_SF",2700,"1",12718,"swim",18.181818181818,"opinion",0
451,"5f2b2c38344357530961afa1",1,"Sans F A","LAKE","opinion","Study2","U","JOL_SF",3771,"4",4087,"district",26.666666666667,"opinion",0
452,"5f2b2c38344357530961afa1",1,"Sans F A","BOTH","ounce","Study1","U","JOL_SF",3949,"2",1876,"neither",33.333333333333,"ounce",0
453,"5f2b2c38344357530961afa1",1,"Sans F A","TAX","owl","Study1","U","JOL_SF",3213,"10",2841,"dogdge",22.222222222222,"owl",0
454,"5f2b2c38344357530961afa1",1,"Sans F A","HUNGRY","park","Study2","U","JOL_SF",829,"3",2008,"food",0,"park",0
455,"5f2b2c38344357530961afa1",1,"Sans F A","DIFFICULT","poor","Study1","U","JOL",3610,"20",1520,"hard",25,"poor",0
456,"5f2b2c38344357530961afa1",1,"Sans F A","CLUTTER","pusher","Study2","U","JOL_SF",3528,"4",3728,"declutte",14.285714285714,"pusher",0
457,"5f2b2c38344357530961afa1",1,"Sans F A","CRAYON","rate","Study1","U","JOL",1033,"5",4751,"",0,"rate",0
458,"5f2b2c38344357530961afa1",1,"Sans F A","PUT","roll","Study2","U","JOL_SF",1090,"2",3797,"shot",25,"roll",0
459,"5f2b2c38344357530961afa1",1,"Sans F A","MAIN","scar","Study1","U","JOL",2025,"3",2326,"street",40,"scar",0
460,"5f2b2c38344357530961afa1",1,"Sans F A","ROAD","scent","Study2","U","JOL_SF",1533,"1",2531,"kill",0,"scent",0
461,"5f2b2c38344357530961afa1",1,"Sans F A","WARN","sea","Study1","U","JOL_SF",5895,"6",2348,"",0,"sea",0
462,"5f2b2c38344357530961afa1",1,"Sans F A","WASTE","sedate","Study2","U","JOL",2103,"9",2831,"garbage",30.769230769231,"sedate",0
463,"5f2b2c38344357530961afa1",1,"Sans F A","SHELL","shake","Study1","U","JOL_SF",4082,"15",2541,"shake",100,"shake",1
464,"5f2b2c38344357530961afa1",1,"Sans F A","BAT","shaky","Study1","U","JOL",1681,"3",3650,"echo",22.222222222222,"shaky",0
465,"5f2b2c38344357530961afa1",1,"Sans F A","LOAN","sign","Study1","U","JOL",3305,"2",2246,"money",22.222222222222,"sign",0
466,"5f2b2c38344357530961afa1",1,"Sans F A","FUTURE","sincere","Study1","U","JOL_SF",3425,"4",1336,"",0,"sincere",0
467,"5f2b2c38344357530961afa1",1,"Sans F A","BELT","soon","Study2","U","JOL_SF",1142,"3",4357,"loop",50,"soon",1
468,"5f2b2c38344357530961afa1",1,"Sans F A","GRIND","stand","Study1","U","JOL_SF",18725,"5",2673,"grudge",18.181818181818,"stand",0
469,"5f2b2c38344357530961afa1",1,"Sans F A","GIVE","steak","Study1","U","JOL_SF",4098,"4",1897,"",0,"steak",0
470,"5f2b2c38344357530961afa1",1,"Sans F A","ACCIDENT","strong","Study2","U","JOL_SF",4369,"10",6959,"car",22.222222222222,"strong",0
471,"5f2b2c38344357530961afa1",1,"Sans F A","RIDDLE","sugar","Study2","U","JOL_SF",2674,"2",3042,"dribble",16.666666666667,"sugar",0
472,"5f2b2c38344357530961afa1",1,"Sans F A","DIZZY","sweater","Study1","U","JOL_SF",38497,"4",9093,"gillespe",26.666666666667,"sweater",0
473,"5f2b2c38344357530961afa1",1,"Sans F A","PARCEL","throat","Study1","U","JOL",3773,"12",1087,"",0,"throat",0
474,"5f2b2c38344357530961afa1",1,"Sans F A","LEASE","toil","Study1","U","JOL",3885,"4",1121,"",0,"toil",0
475,"5f2b2c38344357530961afa1",1,"Sans F A","STOMACH","town","Study2","U","JOL",1166,"2",14570,"ache",0,"town",0
476,"5f2b2c38344357530961afa1",1,"Sans F A","ADD","valley","Study2","U","JOL_SF",5740,"6",2740,"subtract",14.285714285714,"valley",0
477,"5f2b2c38344357530961afa1",1,"Sans F A","RIPE","verify","Study1","U","JOL",2262,"3",1724,"pear",40,"verify",0
478,"5f2b2c38344357530961afa1",1,"Sans F A","MUTE","wave","Study2","U","JOL",1695,"0",2287,"silent",20,"wave",0
479,"5f2b2c38344357530961afa1",1,"Sans F A","GUARD","wheel","Study2","U","JOL",967,"4",1415,"",0,"wheel",0
480,"5f2b2c38344357530961afa1",1,"Sans F A","STRESS","yam","Study1","U","JOL_SF",16701,"5",2283,"ball",28.571428571429,"yam",0
481,"5f2e0bc767a4ed17d55942c7",1,"Sans F A","CRACKLE","able","Study1","U","JOL",8407,"70",9871,"able",100,"able",1
482,"5f2e0bc767a4ed17d55942c7",1,"Sans F A","TUCK","allow","Study2","U","JOL_SF",2440,"30",21216,"aloud",60,"allow",0
483,"5f2e0bc767a4ed17d55942c7",1,"Sans F A","LION","art","Study2","U","JOL",3880,"37",9465,"artistic",54.545454545455,"art",0
484,"5f2e0bc767a4ed17d55942c7",1,"Sans F A","BRONZE","artery","Study2","U","JOL",2297,"10",24602,"artery",100,"artery",1
485,"5f2e0bc767a4ed17d55942c7",1,"Sans F A","FUZZY","bang","Study1","U","JOL_SF",4212,"80",2017,"ball",50,"bang",1
486,"5f2e0bc767a4ed17d55942c7",1,"Sans F A","SPELL","bone","Study2","U","JOL",3191,"45",6612,"bone",100,"bone",1
487,"5f2e0bc767a4ed17d55942c7",1,"Sans F A","WOULD","cash","Study2","U","JOL",1910,"90",23621,"cash",100,"cash",1
488,"5f2e0bc767a4ed17d55942c7",1,"Sans F A","DEGREE","chair","Study1","U","JOL",3738,"30",32899,"",0,"chair",0
489,"5f2e0bc767a4ed17d55942c7",1,"Sans F A","VEHICLE","charm","Study1","U","JOL",2718,"80",26695,"charm",100,"charm",1
490,"5f2e0bc767a4ed17d55942c7",1,"Sans F A","MIRROR","children","Study1","U","JOL_SF",3198,"80",11148,"children",100,"children",1
491,"5f2e0bc767a4ed17d55942c7",1,"Sans F A","MOAT","clear","Study1","U","JOL",2775,"80",8668,"clear",100,"clear",1
492,"5f2e0bc767a4ed17d55942c7",1,"Sans F A","STRETCH","cloth","Study1","U","JOL_SF",3592,"50",898,"",0,"cloth",0
493,"5f2e0bc767a4ed17d55942c7",1,"Sans F A","CAKE","clothes","Study1","U","JOL",3796,"20",19431,"rich",36.363636363636,"clothes",0
494,"5f2e0bc767a4ed17d55942c7",1,"Sans F A","THICK","contest","Study1","U","JOL",4021,"80",22282,"concert",71.428571428571,"contest",1
495,"5f2e0bc767a4ed17d55942c7",1,"Sans F A","READY","corn","Study2","U","JOL_SF",2615,"30",20397,"not",28.571428571429,"corn",0
496,"5f2e0bc767a4ed17d55942c7",1,"Sans F A","NULL","cough","Study2","U","JOL",2880,"50",25516,"coffin",36.363636363636,"cough",0
497,"5f2e0bc767a4ed17d55942c7",1,"Sans F A","Business","death","Study2","U","JOL",3958,"100",3626,"death",100,"death",1
498,"5f2e0bc767a4ed17d55942c7",1,"Sans F A","SIGHT","debate","Study2","U","JOL_SF",2438,"80",18116,"debate",100,"debate",1
499,"5f2e0bc767a4ed17d55942c7",1,"Sans F A","SACKING","dietary","Study2","U","JOL_SF",7497,"3",11887,"diet",72.727272727273,"dietary",0
500,"5f2e0bc767a4ed17d55942c7",1,"Sans F A","FLOOR","discover","Study2","U","JOL_SF",2645,"90",15118,"",0,"discover",0
501,"5f2e0bc767a4ed17d55942c7",1,"Sans F A","INFLATE","disgust","Study1","U","JOL",3399,"40",19906,"discuss",71.428571428571,"disgust",1
502,"5f2e0bc767a4ed17d55942c7",1,"Sans F A","MAZE","election","Study1","U","JOL",2579,"70",3297,"game",16.666666666667,"election",0
503,"5f2e0bc767a4ed17d55942c7",1,"Sans F A","LISTEN","fiction","Study1","U","JOL",3022,"60",12113,"fiction",100,"fiction",1
504,"5f2e0bc767a4ed17d55942c7",1,"Sans F A","HAND","fix","Study2","U","JOL_SF",7041,"90",9714,"fix",100,"fix",1
505,"5f2e0bc767a4ed17d55942c7",1,"Sans F A","SWING","fog","Study2","U","JOL_SF",7972,"40",13482,"frog",85.714285714286,"fog",1
506,"5f2e0bc767a4ed17d55942c7",1,"Sans F A","DETECT","free","Study2","U","JOL_SF",2718,"40",9987,"free",100,"free",1
507,"5f2e0bc767a4ed17d55942c7",1,"Sans F A","RESIST","glue","Study1","U","JOL_SF",3636,"50",8049,"glue",100,"glue",1
508,"5f2e0bc767a4ed17d55942c7",1,"Sans F A","CAR","happy","Study2","U","JOL_SF",2416,"100",26504,"happy",100,"happy",1
509,"5f2e0bc767a4ed17d55942c7",1,"Sans F A","NUMBER","hard","Study1","U","JOL_SF",4261,"10",45174,"fountain",16.666666666667,"hard",0
510,"5f2e0bc767a4ed17d55942c7",1,"Sans F A","FLOAT","harmony","Study2","U","JOL_SF",3066,"25",17920,"harmoniously",73.684210526316,"harmony",0
511,"5f2e0bc767a4ed17d55942c7",1,"Sans F A","NAME","hate","Study1","U","JOL_SF",6482,"60",11688,"hate",100,"hate",1
512,"5f2e0bc767a4ed17d55942c7",1,"Sans F A","SICK","hide","Study2","U","JOL",2759,"30",10786,"hide",100,"hide",1
513,"5f2e0bc767a4ed17d55942c7",1,"Sans F A","BROAD","infect","Study1","U","JOL_SF",2493,"40",10695,"effect",66.666666666667,"infect",1
514,"5f2e0bc767a4ed17d55942c7",1,"Sans F A","KEYS","joke","Study1","U","JOL_SF",2601,"60",30784,"joke",100,"joke",1
515,"5f2e0bc767a4ed17d55942c7",1,"Sans F A","VASE","king","Study2","U","JOL_SF",6422,"45",11922,"king",100,"king",1
516,"5f2e0bc767a4ed17d55942c7",1,"Sans F A","SLIM","know","Study2","U","JOL",2534,"20",18908,"know",100,"know",1
517,"5f2e0bc767a4ed17d55942c7",1,"Sans F A","SYSTEM","lick","Study2","U","JOL_SF",2779,"60",9617,"lock",75,"lick",1
518,"5f2e0bc767a4ed17d55942c7",1,"Sans F A","WOMAN","lift","Study2","U","JOL",8022,"40",16741,"lift",100,"lift",1
519,"5f2e0bc767a4ed17d55942c7",1,"Sans F A","DONKEY","lush","Study1","U","JOL",3979,"30",13473,"loss",50,"lush",1
520,"5f2e0bc767a4ed17d55942c7",1,"Sans F A","POSITION","machine","Study2","U","JOL",2534,"60",17385,"machine",100,"machine",1
521,"5f2e0bc767a4ed17d55942c7",1,"Sans F A","JUSTICE","maroon","Study1","U","JOL",2742,"60",14782,"maroon",100,"maroon",1
522,"5f2e0bc767a4ed17d55942c7",1,"Sans F A","PET","moon","Study1","U","JOL_SF",3823,"60",8974,"moon",100,"moon",1
523,"5f2e0bc767a4ed17d55942c7",1,"Sans F A","TEMPERATURE","morning","Study1","U","JOL_SF",5351,"70",17149,"mourning",93.333333333333,"morning",1
524,"5f2e0bc767a4ed17d55942c7",1,"Sans F A","JELLY","naughty","Study2","U","JOL",2331,"40",15916,"naughty",100,"naughty",1
525,"5f2e0bc767a4ed17d55942c7",1,"Sans F A","ROSE","neglect","Study1","U","JOL_SF",3339,"60",11285,"neglect",100,"neglect",1
526,"5f2e0bc767a4ed17d55942c7",1,"Sans F A","PUFF","number","Study2","U","JOL_SF",2848,"40",22950,"pastry",16.666666666667,"number",0
527,"5f2e0bc767a4ed17d55942c7",1,"Sans F A","MEAT","obtain","Study1","U","JOL_SF",3347,"90",14242,"obtain",100,"obtain",1
528,"5f2e0bc767a4ed17d55942c7",1,"Sans F A","SMOOTH","omit","Study2","U","JOL",2884,"20",14933,"knit",50,"omit",1
529,"5f2e0bc767a4ed17d55942c7",1,"Sans F A","LAKE","opinion","Study2","U","JOL_SF",3873,"20",20215,"frozen",30.769230769231,"opinion",0
530,"5f2e0bc767a4ed17d55942c7",1,"Sans F A","LAKE","opinion","Study2","U","JOL_SF",2670,"80",8042,"opinion",100,"opinion",1
531,"5f2e0bc767a4ed17d55942c7",1,"Sans F A","BOTH","ounce","Study1","U","JOL",2242,"90",18388,"ounce",100,"ounce",1
532,"5f2e0bc767a4ed17d55942c7",1,"Sans F A","TAX","owl","Study1","U","JOL_SF",2715,"20",13055,"",0,"owl",0
533,"5f2e0bc767a4ed17d55942c7",1,"Sans F A","HUNGRY","park","Study2","U","JOL",2516,"60",13641,"park",100,"park",1
534,"5f2e0bc767a4ed17d55942c7",1,"Sans F A","DIFFICULT","poor","Study1","U","JOL_SF",2268,"90",16184,"poor",100,"poor",1
535,"5f2e0bc767a4ed17d55942c7",1,"Sans F A","CLUTTER","pusher","Study2","U","JOL",5498,"40",19509,"push",80,"pusher",1
536,"5f2e0bc767a4ed17d55942c7",1,"Sans F A","CRAYON","rate","Study1","U","JOL",2374,"30",11555,"rake",75,"rate",1
537,"5f2e0bc767a4ed17d55942c7",1,"Sans F A","PUT","roll","Study2","U","JOL",2699,"60",5716,"",0,"roll",0
538,"5f2e0bc767a4ed17d55942c7",1,"Sans F A","MAIN","scar","Study1","U","JOL",4754,"40",9185,"hate",25,"scar",0
539,"5f2e0bc767a4ed17d55942c7",1,"Sans F A","ROAD","scent","Study2","U","JOL_SF",2201,"40",18068,"kill",0,"scent",0
540,"5f2e0bc767a4ed17d55942c7",1,"Sans F A","WARN","sea","Study1","U","JOL_SF",3326,"80",14517,"sea",100,"sea",1
541,"5f2e0bc767a4ed17d55942c7",1,"Sans F A","WASTE","sedate","Study2","U","JOL",4423,"15",24052,"sedated",92.307692307692,"sedate",1
542,"5f2e0bc767a4ed17d55942c7",1,"Sans F A","SHELL","shake","Study1","U","JOL",3044,"30",23210,"solid",20,"shake",0
543,"5f2e0bc767a4ed17d55942c7",1,"Sans F A","BAT","shaky","Study1","U","JOL",2938,"40",19347,"shaky",100,"shaky",1
544,"5f2e0bc767a4ed17d55942c7",1,"Sans F A","LOAN","sign","Study1","U","JOL",7804,"50",15955,"high",50,"sign",1
545,"5f2e0bc767a4ed17d55942c7",1,"Sans F A","FUTURE","sincere","Study1","U","JOL_SF",3096,"70",13360,"low",0,"sincere",0
546,"5f2e0bc767a4ed17d55942c7",1,"Sans F A","BELT","soon","Study2","U","JOL_SF",2888,"30",8528,"soon",100,"soon",1
547,"5f2e0bc767a4ed17d55942c7",1,"Sans F A","GRIND","stand","Study1","U","JOL",3607,"60",9116,"stand",100,"stand",1
548,"5f2e0bc767a4ed17d55942c7",1,"Sans F A","GIVE","steak","Study1","U","JOL_SF",7143,"90",14281,"take",66.666666666667,"steak",0
549,"5f2e0bc767a4ed17d55942c7",1,"Sans F A","ACCIDENT","strong","Study2","U","JOL",3493,"69",6456,"strong",100,"strong",1
550,"5f2e0bc767a4ed17d55942c7",1,"Sans F A","RIDDLE","sugar","Study2","U","JOL_SF",2730,"20",11681,"sugar",100,"sugar",1
551,"5f2e0bc767a4ed17d55942c7",1,"Sans F A","DIZZY","sweater","Study1","U","JOL_SF",2343,"40",3274,"",0,"sweater",0
552,"5f2e0bc767a4ed17d55942c7",1,"Sans F A","PARCEL","throat","Study1","U","JOL",2492,"50",31537,"throat",100,"throat",1
553,"5f2e0bc767a4ed17d55942c7",1,"Sans F A","ZOO","thumb","Study2","U","JOL",3802,"63",28258,"thump",80,"thumb",1
554,"5f2e0bc767a4ed17d55942c7",1,"Sans F A","LEASE","toil","Study1","U","JOL",3630,"70",7468,"toil",100,"toil",1
555,"5f2e0bc767a4ed17d55942c7",1,"Sans F A","STOMACH","town","Study2","U","JOL_SF",3736,"100",7579,"town",100,"town",1
556,"5f2e0bc767a4ed17d55942c7",1,"Sans F A","ADD","valley","Study2","U","JOL_SF",3138,"34",9693,"opinion",0,"valley",0
557,"5f2e0bc767a4ed17d55942c7",1,"Sans F A","RIPE","verify","Study1","U","JOL_SF",3822,"30",2551,"fruit",18.181818181818,"verify",0
558,"5f2e0bc767a4ed17d55942c7",1,"Sans F A","MUTE","wave","Study2","U","JOL",3031,"47",16363,"wave",100,"wave",1
559,"5f2e0bc767a4ed17d55942c7",1,"Sans F A","GUARD","wheel","Study2","U","JOL",3190,"40",18209,"wheel",100,"wheel",1
560,"5f2e0bc767a4ed17d55942c7",1,"Sans F A","STRESS","yam","Study1","U","JOL_SF",4919,"40",1840,"high",0,"yam",0
561,"5f4808a945ed0028ede337f2",1,"Sans F A","CRACKLE","able","Study1","U","JOL",6002,"60",36192,"cold",25,"able",0
562,"5f4808a945ed0028ede337f2",1,"Sans F A","TUCK","allow","Study2","U","JOL",5333,"30",16791,"all",75,"allow",1
563,"5f4808a945ed0028ede337f2",1,"Sans F A","LION","art","Study2","U","JOL_SF",6969,"40",8398,"cat",66.666666666667,"art",1
564,"5f4808a945ed0028ede337f2",1,"Sans F A","BRONZE","artery","Study2","U","JOL",5248,"50",10710,"artery",100,"artery",1
565,"5f4808a945ed0028ede337f2",1,"Sans F A","FUZZY","bang","Study1","U","JOL_SF",4454,"50",2635,"glove",22.222222222222,"bang",0
566,"5f4808a945ed0028ede337f2",1,"Sans F A","SPELL","bone","Study2","U","JOL",2921,"75",14802,"bone",100,"bone",1
567,"5f4808a945ed0028ede337f2",1,"Sans F A","WOULD","cash","Study2","U","JOL_SF",8915,"65",8147,"dance",22.222222222222,"cash",0
568,"5f4808a945ed0028ede337f2",1,"Sans F A","DEGREE","chair","Study1","U","JOL_SF",7060,"80",17948,"chair",100,"chair",1
569,"5f4808a945ed0028ede337f2",1,"Sans F A","VEHICLE","charm","Study1","U","JOL_SF",39712,"73",10301,"wheel",20,"charm",0
570,"5f4808a945ed0028ede337f2",1,"Sans F A","MIRROR","children","Study1","U","JOL",4606,"15",3027,"child",76.923076923077,"children",0
571,"5f4808a945ed0028ede337f2",1,"Sans F A","MOAT","clear","Study1","U","JOL",4169,"80",3422,"clear",100,"clear",1
572,"5f4808a945ed0028ede337f2",1,"Sans F A","STRETCH","cloth","Study1","U","JOL_SF",22756,"95",4396,"clothes",83.333333333333,"cloth",1
573,"5f4808a945ed0028ede337f2",1,"Sans F A","CAKE","clothes","Study1","U","JOL_SF",4409,"40",10617,"play",18.181818181818,"clothes",0
574,"5f4808a945ed0028ede337f2",1,"Sans F A","THICK","contest","Study1","U","JOL",25225,"70",81016,"buffoon",28.571428571429,"contest",0
575,"5f4808a945ed0028ede337f2",1,"Sans F A","READY","corn","Study2","U","JOL",13878,"30",5895,"carrot",40,"corn",0
576,"5f4808a945ed0028ede337f2",1,"Sans F A","NULL","cough","Study2","U","JOL",16957,"35",4676,"cough",100,"cough",1
577,"5f4808a945ed0028ede337f2",1,"Sans F A","Business","death","Study2","U","JOL",18363,"60",4469,"death",100,"death",1
578,"5f4808a945ed0028ede337f2",1,"Sans F A","SIGHT","debate","Study2","U","JOL_SF",9215,"10",11269,"delegate",71.428571428571,"debate",0
579,"5f4808a945ed0028ede337f2",1,"Sans F A","SACKING","dietary","Study2","U","JOL",6078,"20",25644,"bag",20,"dietary",0
580,"5f4808a945ed0028ede337f2",1,"Sans F A","FLOOR","discover","Study2","U","JOL",2180,"60",10772,"trap",16.666666666667,"discover",0
581,"5f4808a945ed0028ede337f2",1,"Sans F A","INFLATE","disgust","Study1","U","JOL",19337,"40",7592,"toy",20,"disgust",0
582,"5f4808a945ed0028ede337f2",1,"Sans F A","MAZE","election","Study1","U","JOL_SF",8166,"50",21341,"election",100,"election",1
583,"5f4808a945ed0028ede337f2",1,"Sans F A","LISTEN","fiction","Study1","U","JOL_SF",53699,"40",35868,"liar",18.181818181818,"fiction",0
584,"5f4808a945ed0028ede337f2",1,"Sans F A","HAND","fix","Study2","U","JOL_SF",12153,"85",7169,"fix",100,"fix",1
585,"5f4808a945ed0028ede337f2",1,"Sans F A","SWING","fog","Study2","U","JOL_SF",5720,"50",6799,"fog",100,"fog",1
586,"5f4808a945ed0028ede337f2",1,"Sans F A","DETECT","free","Study2","U","JOL_SF",11466,"55",13756,"window",0,"free",0
587,"5f4808a945ed0028ede337f2",1,"Sans F A","RESIST","glue","Study1","U","JOL_SF",5724,"80",4878,"glue",100,"glue",1
588,"5f4808a945ed0028ede337f2",1,"Sans F A","CAR","happy","Study2","U","JOL",6673,"66",4108,"happy",100,"happy",1
589,"5f4808a945ed0028ede337f2",1,"Sans F A","NUMBER","hard","Study1","U","JOL",3801,"90",3871,"hard",100,"hard",1
590,"5f4808a945ed0028ede337f2",1,"Sans F A","NAME","hate","Study1","U","JOL_SF",11667,"70",6108,"plate",66.666666666667,"hate",1
591,"5f4808a945ed0028ede337f2",1,"Sans F A","SICK","hide","Study2","U","JOL",5316,"70",11845,"room",0,"hide",0
592,"5f4808a945ed0028ede337f2",1,"Sans F A","BROAD","infect","Study1","U","JOL_SF",14341,"65",5855,"infection",80,"infect",0
593,"5f4808a945ed0028ede337f2",1,"Sans F A","KEYS","joke","Study1","U","JOL_SF",3634,"70",3947,"cut",0,"joke",0
594,"5f4808a945ed0028ede337f2",1,"Sans F A","VASE","king","Study2","U","JOL_SF",11675,"80",2864,"king",100,"king",1
595,"5f4808a945ed0028ede337f2",1,"Sans F A","SLIM","know","Study2","U","JOL_SF",7247,"5",21879,"chance",20,"know",0
596,"5f4808a945ed0028ede337f2",1,"Sans F A","SYSTEM","lick","Study2","U","JOL_SF",5801,"80",7338,"lick",100,"lick",1
597,"5f4808a945ed0028ede337f2",1,"Sans F A","WOMAN","lift","Study2","U","JOL",7026,"75",10676,"light",66.666666666667,"lift",1
598,"5f4808a945ed0028ede337f2",1,"Sans F A","DONKEY","lush","Study1","U","JOL_SF",5409,"20",62458,"hat",28.571428571429,"lush",0
599,"5f4808a945ed0028ede337f2",1,"Sans F A","POSITION","machine","Study2","U","JOL",8134,"90",10495,"machine",100,"machine",1
600,"5f4808a945ed0028ede337f2",1,"Sans F A","JUSTICE","maroon","Study1","U","JOL",18376,"15",6018,"sherriff ",14.285714285714,"maroon",0
601,"5f4808a945ed0028ede337f2",1,"Sans F A","PET","moon","Study1","U","JOL_SF",26294,"50",2799,"food",50,"moon",1
602,"5f4808a945ed0028ede337f2",1,"Sans F A","TEMPERATURE","morning","Study1","U","JOL",4150,"55",5394,"cold",18.181818181818,"morning",0
603,"5f4808a945ed0028ede337f2",1,"Sans F A","JELLY","naughty","Study2","U","JOL",8876,"75",5639,"naughty",100,"naughty",1
604,"5f4808a945ed0028ede337f2",1,"Sans F A","ROSE","neglect","Study1","U","JOL",20100,"45",2321,"thorn",16.666666666667,"neglect",0
605,"5f4808a945ed0028ede337f2",1,"Sans F A","DESIRE","noise","Study2","U","JOL_SF",11235,"60",11057,"loud",22.222222222222,"noise",0
606,"5f4808a945ed0028ede337f2",1,"Sans F A","PUFF","number","Study2","U","JOL_SF",14116,"35",10536,"mist",20,"number",0
607,"5f4808a945ed0028ede337f2",1,"Sans F A","MEAT","obtain","Study1","U","JOL_SF",5513,"75",2972,"bone",40,"obtain",0
608,"5f4808a945ed0028ede337f2",1,"Sans F A","SMOOTH","omit","Study2","U","JOL_SF",13632,"40",17154,"bird",25,"omit",0
609,"5f4808a945ed0028ede337f2",1,"Sans F A","LAKE","opinion","Study2","U","JOL_SF",34228,"30",8852,"talk",0,"opinion",0
610,"5f4808a945ed0028ede337f2",1,"Sans F A","BOTH","ounce","Study1","U","JOL_SF",5750,"10",7546,"none",44.444444444444,"ounce",0
611,"5f4808a945ed0028ede337f2",1,"Sans F A","TAX","owl","Study1","U","JOL_SF",25146,"10",7143,"effect",0,"owl",0
612,"5f4808a945ed0028ede337f2",1,"Sans F A","HUNGRY","park","Study2","U","JOL",9980,"30",1754,"park",100,"park",1
613,"5f4808a945ed0028ede337f2",1,"Sans F A","DIFFICULT","poor","Study1","U","JOL",9068,"50",4051,"math",0,"poor",0
614,"5f4808a945ed0028ede337f2",1,"Sans F A","CLUTTER","pusher","Study2","U","JOL",11214,"10",3438,"mess",20,"pusher",0
615,"5f4808a945ed0028ede337f2",1,"Sans F A","CRAYON","rate","Study1","U","JOL",50433,"30",7472,"fun",0,"rate",0
616,"5f4808a945ed0028ede337f2",1,"Sans F A","PUT","roll","Study2","U","JOL_SF",8107,"80",5026,"down",25,"roll",0
617,"5f4808a945ed0028ede337f2",1,"Sans F A","MAIN","scar","Study1","U","JOL_SF",5395,"60",15855,"easy",25,"scar",0
618,"5f4808a945ed0028ede337f2",1,"Sans F A","ROAD","scent","Study2","U","JOL",4327,"50",14898,"grass",20,"scent",0
619,"5f4808a945ed0028ede337f2",1,"Sans F A","WARN","sea","Study1","U","JOL_SF",8213,"95",6347,"aware",25,"sea",0
620,"5f4808a945ed0028ede337f2",1,"Sans F A","WASTE","sedate","Study2","U","JOL",20964,"75",5071,"person",16.666666666667,"sedate",0
621,"5f4808a945ed0028ede337f2",1,"Sans F A","SHELL","shake","Study1","U","JOL",95672,"50",5159,"sea",50,"shake",0
622,"5f4808a945ed0028ede337f2",1,"Sans F A","BAT","shaky","Study1","U","JOL",8662,"60",8089,"catcher",16.666666666667,"shaky",0
623,"5f4808a945ed0028ede337f2",1,"Sans F A","LOAN","sign","Study1","U","JOL",14145,"70",40096,"sign",100,"sign",1
624,"5f4808a945ed0028ede337f2",1,"Sans F A","FUTURE","sincere","Study1","U","JOL",5611,"25",1911,"past",18.181818181818,"sincere",0
625,"5f4808a945ed0028ede337f2",1,"Sans F A","BELT","soon","Study2","U","JOL",3789,"75",2434,"soon",100,"soon",1
626,"5f4808a945ed0028ede337f2",1,"Sans F A","GRIND","stand","Study1","U","JOL",56971,"30",50826,"rock",0,"stand",0
627,"5f4808a945ed0028ede337f2",1,"Sans F A","GIVE","steak","Study1","U","JOL_SF",44434,"55",27424,"money",20,"steak",0
628,"5f4808a945ed0028ede337f2",1,"Sans F A","ACCIDENT","strong","Study2","U","JOL_SF",7404,"65",12720,"stance",50,"strong",0
629,"5f4808a945ed0028ede337f2",1,"Sans F A","RIDDLE","sugar","Study2","U","JOL_SF",55182,"20",5732,"sugar",100,"sugar",1
630,"5f4808a945ed0028ede337f2",1,"Sans F A","RIDDLE","sugar","Study2","U","JOL_SF",17443,"50",5120,"sugar",100,"sugar",1
631,"5f4808a945ed0028ede337f2",1,"Sans F A","DIZZY","sweater","Study1","U","JOL_SF",12621,"20",41126,"stable",46.153846153846,"sweater",0
632,"5f4808a945ed0028ede337f2",1,"Sans F A","PARCEL","throat","Study1","U","JOL",15650,"20",9961,"delivery",14.285714285714,"throat",0
633,"5f4808a945ed0028ede337f2",1,"Sans F A","ZOO","thumb","Study2","U","JOL_SF",11351,"70",9266,"bite",22.222222222222,"thumb",0
634,"5f4808a945ed0028ede337f2",1,"Sans F A","LEASE","toil","Study1","U","JOL",3683,"5",5817,"lease",22.222222222222,"toil",0
635,"5f4808a945ed0028ede337f2",1,"Sans F A","STOMACH","town","Study2","U","JOL_SF",10865,"30",32461,"pain",25,"town",0
636,"5f4808a945ed0028ede337f2",1,"Sans F A","ADD","valley","Study2","U","JOL_SF",7566,"5",16218,"valiant",46.153846153846,"valley",0
637,"5f4808a945ed0028ede337f2",1,"Sans F A","RIPE","verify","Study1","U","JOL",10755,"30",4208,"skin",20,"verify",0
638,"5f4808a945ed0028ede337f2",1,"Sans F A","MUTE","wave","Study2","U","JOL",5923,"70",2347,"wave",100,"wave",1
639,"5f4808a945ed0028ede337f2",1,"Sans F A","GUARD","wheel","Study2","U","JOL",8835,"70",4269,"wheel",100,"wheel",1
640,"5f4808a945ed0028ede337f2",1,"Sans F A","STRESS","yam","Study1","U","JOL",6340,"30",6991,"steel",0,"yam",0
641,"5f8b29a907e21f2236fcbe45",1,"Sans F A","CRACKLE","able","Study1","U","JOL",82534,"0",16586,"able",100,"able",1
642,"5f8b29a907e21f2236fcbe45",1,"Sans F A","TUCK","allow","Study2","U","JOL",3789,"70",11039,"allow",100,"allow",1
643,"5f8b29a907e21f2236fcbe45",1,"Sans F A","LION","art","Study2","U","JOL_SF",4784,"30",6082,"art",100,"art",1
644,"5f8b29a907e21f2236fcbe45",1,"Sans F A","BRONZE","artery","Study2","U","JOL_SF",3854,"70",9388,"art",66.666666666667,"artery",0
645,"5f8b29a907e21f2236fcbe45",1,"Sans F A","FUZZY","bang","Study1","U","JOL",3832,"0",1879,"",0,"bang",0
646,"5f8b29a907e21f2236fcbe45",1,"Sans F A","SPELL","bone","Study2","U","JOL",5228,"70",20463,"bone",100,"bone",1
647,"5f8b29a907e21f2236fcbe45",1,"Sans F A","WOULD","cash","Study2","U","JOL",4556,"40",46035,"cash",100,"cash",1
648,"5f8b29a907e21f2236fcbe45",1,"Sans F A","DEGREE","chair","Study1","U","JOL_SF",4691,"35",3255,"",0,"chair",0
649,"5f8b29a907e21f2236fcbe45",1,"Sans F A","VEHICLE","charm","Study1","U","JOL_SF",3912,"75",553,"",0,"charm",0
650,"5f8b29a907e21f2236fcbe45",1,"Sans F A","MIRROR","children","Study1","U","JOL",4242,"60",4181,"children",100,"children",1
651,"5f8b29a907e21f2236fcbe45",1,"Sans F A","MOAT","clear","Study1","U","JOL",6574,"15",1720,"",0,"clear",0
652,"5f8b29a907e21f2236fcbe45",1,"Sans F A","STRETCH","cloth","Study1","U","JOL",2528,"20",2035,"",0,"cloth",0
653,"5f8b29a907e21f2236fcbe45",1,"Sans F A","CAKE","clothes","Study1","U","JOL_SF",3320,"0",2885,"",0,"clothes",0
654,"5f8b29a907e21f2236fcbe45",1,"Sans F A","THICK","contest","Study1","U","JOL_SF",3304,"90",1286,"",0,"contest",0
655,"5f8b29a907e21f2236fcbe45",1,"Sans F A","READY","corn","Study2","U","JOL_SF",3838,"40",14812,"torn",75,"corn",1
656,"5f8b29a907e21f2236fcbe45",1,"Sans F A","NULL","cough","Study2","U","JOL",3392,"90",17743,"cough",100,"cough",1
657,"5f8b29a907e21f2236fcbe45",1,"Sans F A","Business","death","Study2","U","JOL",3195,"100",9139,"death",100,"death",1
658,"5f8b29a907e21f2236fcbe45",1,"Sans F A","SIGHT","debate","Study2","U","JOL_SF",2873,"100",23494,"omit",20,"debate",0
659,"5f8b29a907e21f2236fcbe45",1,"Sans F A","SACKING","dietary","Study2","U","JOL_SF",5796,"40",10095,"diet",72.727272727273,"dietary",0
660,"5f8b29a907e21f2236fcbe45",1,"Sans F A","FLOOR","discover","Study2","U","JOL_SF",4474,"50",32995,"drum",33.333333333333,"discover",0
661,"5f8b29a907e21f2236fcbe45",1,"Sans F A","INFLATE","disgust","Study1","U","JOL",8086,"80",5770,"",0,"disgust",0
662,"5f8b29a907e21f2236fcbe45",1,"Sans F A","MAZE","election","Study1","U","JOL",2051,"0",2529,"",0,"election",0
663,"5f8b29a907e21f2236fcbe45",1,"Sans F A","LISTEN","fiction","Study1","U","JOL",52364,"20",932,"",0,"fiction",0
664,"5f8b29a907e21f2236fcbe45",1,"Sans F A","HAND","fix","Study2","U","JOL",2493,"100",6549,"fix",100,"fix",1
665,"5f8b29a907e21f2236fcbe45",1,"Sans F A","SWING","fog","Study2","U","JOL_SF",4284,"100",30438,"soon",28.571428571429,"fog",0
666,"5f8b29a907e21f2236fcbe45",1,"Sans F A","DETECT","free","Study2","U","JOL_SF",3085,"70",22270,"free",100,"free",1
667,"5f8b29a907e21f2236fcbe45",1,"Sans F A","RESIST","glue","Study1","U","JOL_SF",54277,"0",1088,"",0,"glue",0
668,"5f8b29a907e21f2236fcbe45",1,"Sans F A","CAR","happy","Study2","U","JOL",2849,"100",10896,"happy",100,"happy",1
669,"5f8b29a907e21f2236fcbe45",1,"Sans F A","NUMBER","hard","Study1","U","JOL",2261,"70",5574,"difficult",15.384615384615,"hard",0
670,"5f8b29a907e21f2236fcbe45",1,"Sans F A","FLOAT","harmony","Study2","U","JOL",7478,"70",15429,"harmony",100,"harmony",1
671,"5f8b29a907e21f2236fcbe45",1,"Sans F A","NAME","hate","Study1","U","JOL_SF",8743,"0",1620,"",0,"hate",0
672,"5f8b29a907e21f2236fcbe45",1,"Sans F A","SICK","hide","Study2","U","JOL",4365,"100",18601,"cough",22.222222222222,"hide",0
673,"5f8b29a907e21f2236fcbe45",1,"Sans F A","BROAD","infect","Study1","U","JOL",2737,"0",2966,"",0,"infect",0
674,"5f8b29a907e21f2236fcbe45",1,"Sans F A","KEYS","joke","Study1","U","JOL_SF",8034,"0",11290,"",0,"joke",0
675,"5f8b29a907e21f2236fcbe45",1,"Sans F A","VASE","king","Study2","U","JOL_SF",2575,"80",8428,"king",100,"king",1
676,"5f8b29a907e21f2236fcbe45",1,"Sans F A","SLIM","know","Study2","U","JOL",13144,"30",28813,"ready",0,"know",0
677,"5f8b29a907e21f2236fcbe45",1,"Sans F A","SYSTEM","lick","Study2","U","JOL",3883,"100",6021,"lick",100,"lick",1
678,"5f8b29a907e21f2236fcbe45",1,"Sans F A","WOMAN","lift","Study2","U","JOL_SF",3652,"50",12002,"lift",100,"lift",1
679,"5f8b29a907e21f2236fcbe45",1,"Sans F A","DONKEY","lush","Study1","U","JOL",6084,"0",3374,"",0,"lush",0
680,"5f8b29a907e21f2236fcbe45",1,"Sans F A","POSITION","machine","Study2","U","JOL_SF",5212,"40",9104,"motor",16.666666666667,"machine",0
681,"5f8b29a907e21f2236fcbe45",1,"Sans F A","JUSTICE","maroon","Study1","U","JOL_SF",4697,"35",954,"",0,"maroon",0
682,"5f8b29a907e21f2236fcbe45",1,"Sans F A","PET","moon","Study1","U","JOL_SF",5040,"30",1768,"",0,"moon",0
683,"5f8b29a907e21f2236fcbe45",1,"Sans F A","TEMPERATURE","morning","Study1","U","JOL",2863,"70",5695,"morning",100,"morning",1
684,"5f8b29a907e21f2236fcbe45",1,"Sans F A","ROSE","neglect","Study1","U","JOL_SF",4394,"30",1888,"",0,"neglect",0
685,"5f8b29a907e21f2236fcbe45",1,"Sans F A","DESIRE","noise","Study2","U","JOL_SF",3789,"30",4880,"noise",100,"noise",1
686,"5f8b29a907e21f2236fcbe45",1,"Sans F A","PUFF","number","Study2","U","JOL_SF",6792,"40",24208,"number",100,"number",1
687,"5f8b29a907e21f2236fcbe45",1,"Sans F A","MEAT","obtain","Study1","U","JOL_SF",2817,"60",1344,"",0,"obtain",0
688,"5f8b29a907e21f2236fcbe45",1,"Sans F A","SMOOTH","omit","Study2","U","JOL_SF",9191,"30",12473,"omit",100,"omit",1
689,"5f8b29a907e21f2236fcbe45",1,"Sans F A","SMOOTH","omit","Study2","U","JOL_SF",3515,"60",7103,"omit",100,"omit",1
690,"5f8b29a907e21f2236fcbe45",1,"Sans F A","LAKE","opinion","Study2","U","JOL",11076,"100",5751,"opinion",100,"opinion",1
691,"5f8b29a907e21f2236fcbe45",1,"Sans F A","BOTH","ounce","Study1","U","JOL_SF",3293,"0",1130,"",0,"ounce",0
692,"5f8b29a907e21f2236fcbe45",1,"Sans F A","TAX","owl","Study1","U","JOL_SF",2790,"0",3289,"",0,"owl",0
693,"5f8b29a907e21f2236fcbe45",1,"Sans F A","HUNGRY","park","Study2","U","JOL_SF",2934,"100",15981,"park",100,"park",1
694,"5f8b29a907e21f2236fcbe45",1,"Sans F A","DIFFICULT","poor","Study1","U","JOL_SF",3974,"100",4475,"",0,"poor",0
695,"5f8b29a907e21f2236fcbe45",1,"Sans F A","CLUTTER","pusher","Study2","U","JOL_SF",4345,"60",7058,"pusher",100,"pusher",1
696,"5f8b29a907e21f2236fcbe45",1,"Sans F A","CRAYON","rate","Study1","U","JOL",2667,"40",7145,"",0,"rate",0
697,"5f8b29a907e21f2236fcbe45",1,"Sans F A","PUT","roll","Study2","U","JOL",3617,"20",17710,"rot",57.142857142857,"roll",1
698,"5f8b29a907e21f2236fcbe45",1,"Sans F A","MAIN","scar","Study1","U","JOL_SF",2761,"0",4372,"scape",66.666666666667,"scar",1
699,"5f8b29a907e21f2236fcbe45",1,"Sans F A","ROAD","scent","Study2","U","JOL",3729,"100",16178,"scent",100,"scent",1
700,"5f8b29a907e21f2236fcbe45",1,"Sans F A","WARN","sea","Study1","U","JOL",4084,"25",1869,"",0,"sea",0
701,"5f8b29a907e21f2236fcbe45",1,"Sans F A","WASTE","sedate","Study2","U","JOL",2783,"70",17882,"sedate",100,"sedate",1
702,"5f8b29a907e21f2236fcbe45",1,"Sans F A","SHELL","shake","Study1","U","JOL",2696,"70",1823,"",0,"shake",0
703,"5f8b29a907e21f2236fcbe45",1,"Sans F A","BAT","shaky","Study1","U","JOL_SF",3969,"15",979,"",0,"shaky",0
704,"5f8b29a907e21f2236fcbe45",1,"Sans F A","LOAN","sign","Study1","U","JOL_SF",3397,"50",1077,"",0,"sign",0
705,"5f8b29a907e21f2236fcbe45",1,"Sans F A","FUTURE","sincere","Study1","U","JOL",2729,"70",2464,"",0,"sincere",0
706,"5f8b29a907e21f2236fcbe45",1,"Sans F A","BELT","soon","Study2","U","JOL",5263,"50",6018,"soon",100,"soon",1
707,"5f8b29a907e21f2236fcbe45",1,"Sans F A","GRIND","stand","Study1","U","JOL_SF",3332,"30",815,"",0,"stand",0
708,"5f8b29a907e21f2236fcbe45",1,"Sans F A","GIVE","steak","Study1","U","JOL",10625,"20",6045,"",0,"steak",0
709,"5f8b29a907e21f2236fcbe45",1,"Sans F A","ACCIDENT","strong","Study2","U","JOL_SF",3241,"100",12603,"strong",100,"strong",1
710,"5f8b29a907e21f2236fcbe45",1,"Sans F A","RIDDLE","sugar","Study2","U","JOL",4340,"100",5189,"sugar",100,"sugar",1
711,"5f8b29a907e21f2236fcbe45",1,"Sans F A","DIZZY","sweater","Study1","U","JOL",3149,"50",2190,"",0,"sweater",0
712,"5f8b29a907e21f2236fcbe45",1,"Sans F A","PARCEL","throat","Study1","U","JOL_SF",172399,"30",3394,"",0,"throat",0
713,"5f8b29a907e21f2236fcbe45",1,"Sans F A","ZOO","thumb","Study2","U","JOL",3863,"10",10974,"thumb",100,"thumb",1
714,"5f8b29a907e21f2236fcbe45",1,"Sans F A","LEASE","toil","Study1","U","JOL_SF",3687,"0",1617,"",0,"toil",0
715,"5f8b29a907e21f2236fcbe45",1,"Sans F A","STOMACH","town","Study2","U","JOL_SF",2857,"70",9971,"tone",75,"town",1
716,"5f8b29a907e21f2236fcbe45",1,"Sans F A","ADD","valley","Study2","U","JOL",2528,"70",13900,"valley",100,"valley",1
717,"5f8b29a907e21f2236fcbe45",1,"Sans F A","RIPE","verify","Study1","U","JOL",2058,"0",604,"",0,"verify",0
718,"5f8b29a907e21f2236fcbe45",1,"Sans F A","MUTE","wave","Study2","U","JOL_SF",3862,"100",12523,"water",66.666666666667,"wave",1
719,"5f8b29a907e21f2236fcbe45",1,"Sans F A","GUARD","wheel","Study2","U","JOL",5338,"50",19713,"wheel",100,"wheel",1
720,"5f8b29a907e21f2236fcbe45",1,"Sans F A","STRESS","yam","Study1","U","JOL",2050,"0",1560,"",0,"yam",0
721,"5f90ad46f0452619e18b1653",1,"Sans F A","CRACKLE","able","Study1","U","JOL",8620,"19",5941,"",0,"able",0
722,"5f90ad46f0452619e18b1653",1,"Sans F A","TUCK","allow","Study2","U","JOL",3033,"13",5991,"lose",44.444444444444,"allow",0
723,"5f90ad46f0452619e18b1653",1,"Sans F A","LION","art","Study2","U","JOL_SF",4648,"15",1602,"art",100,"art",1
724,"5f90ad46f0452619e18b1653",1,"Sans F A","LION","art","Study2","U","JOL_SF",7672,"16",2360,"art",100,"art",1
725,"5f90ad46f0452619e18b1653",1,"Sans F A","BRONZE","artery","Study2","U","JOL_SF",7196,"4",3422,"",0,"artery",0
726,"5f90ad46f0452619e18b1653",1,"Sans F A","FUZZY","bang","Study1","U","JOL_SF",8735,"12",5450,"",0,"bang",0
727,"5f90ad46f0452619e18b1653",1,"Sans F A","SPELL","bone","Study2","U","JOL_SF",7524,"24",4073,"",0,"bone",0
728,"5f90ad46f0452619e18b1653",1,"Sans F A","WOULD","cash","Study2","U","JOL",3190,"9",3541,"",0,"cash",0
729,"5f90ad46f0452619e18b1653",1,"Sans F A","DEGREE","chair","Study1","U","JOL",7361,"26",8973,"chair",100,"chair",1
730,"5f90ad46f0452619e18b1653",1,"Sans F A","VEHICLE","charm","Study1","U","JOL",6806,"0",6790,"",0,"charm",0
731,"5f90ad46f0452619e18b1653",1,"Sans F A","MIRROR","children","Study1","U","JOL_SF",6170,"16",9335,"",0,"children",0
732,"5f90ad46f0452619e18b1653",1,"Sans F A","MOAT","clear","Study1","U","JOL",9109,"17",2764,"",0,"clear",0
733,"5f90ad46f0452619e18b1653",1,"Sans F A","STRETCH","cloth","Study1","U","JOL_SF",5618,"40",8792,"",0,"cloth",0
734,"5f90ad46f0452619e18b1653",1,"Sans F A","CAKE","clothes","Study1","U","JOL",6644,"20",7765,"",0,"clothes",0
735,"5f90ad46f0452619e18b1653",1,"Sans F A","THICK","contest","Study1","U","JOL_SF",6108,"68",3035,"contest",100,"contest",1
736,"5f90ad46f0452619e18b1653",1,"Sans F A","READY","corn","Study2","U","JOL_SF",4944,"8",5185,"space",22.222222222222,"corn",0
737,"5f90ad46f0452619e18b1653",1,"Sans F A","NULL","cough","Study2","U","JOL_SF",3988,"7",4393,"void",22.222222222222,"cough",0
738,"5f90ad46f0452619e18b1653",1,"Sans F A","Business","death","Study2","U","JOL_SF",4692,"30",3327,"",0,"death",0
739,"5f90ad46f0452619e18b1653",1,"Sans F A","SIGHT","debate","Study2","U","JOL",4707,"60",12116,"frog",0,"debate",0
740,"5f90ad46f0452619e18b1653",1,"Sans F A","SACKING","dietary","Study2","U","JOL",6785,"0",3392,"",0,"dietary",0
741,"5f90ad46f0452619e18b1653",1,"Sans F A","FLOOR","discover","Study2","U","JOL",3761,"28",5808,"",0,"discover",0
742,"5f90ad46f0452619e18b1653",1,"Sans F A","INFLATE","disgust","Study1","U","JOL_SF",9205,"9",2929,"disgust",100,"disgust",1
743,"5f90ad46f0452619e18b1653",1,"Sans F A","MAZE","election","Study1","U","JOL_SF",7478,"14",16702,"",0,"election",0
744,"5f90ad46f0452619e18b1653",1,"Sans F A","LISTEN","fiction","Study1","U","JOL",10707,"45",19744,"scare",16.666666666667,"fiction",0
745,"5f90ad46f0452619e18b1653",1,"Sans F A","HAND","fix","Study2","U","JOL",5847,"55",4744,"",0,"fix",0
746,"5f90ad46f0452619e18b1653",1,"Sans F A","SWING","fog","Study2","U","JOL",6104,"0",4174,"",0,"fog",0
747,"5f90ad46f0452619e18b1653",1,"Sans F A","DETECT","free","Study2","U","JOL",3329,"14",6434,"",0,"free",0
748,"5f90ad46f0452619e18b1653",1,"Sans F A","RESIST","glue","Study1","U","JOL",10033,"24",8850,"glue",100,"glue",1
749,"5f90ad46f0452619e18b1653",1,"Sans F A","CAR","happy","Study2","U","JOL",4967,"63",5940,"happy",100,"happy",1
750,"5f90ad46f0452619e18b1653",1,"Sans F A","NUMBER","hard","Study1","U","JOL",8765,"55",6732,"",0,"hard",0
751,"5f90ad46f0452619e18b1653",1,"Sans F A","FLOAT","harmony","Study2","U","JOL_SF",4060,"40",4578,"sea",20,"harmony",0
752,"5f90ad46f0452619e18b1653",1,"Sans F A","NAME","hate","Study1","U","JOL",9254,"38",18904,"hate",100,"hate",1
753,"5f90ad46f0452619e18b1653",1,"Sans F A","SICK","hide","Study2","U","JOL_SF",4562,"10",2503,"",0,"hide",0
754,"5f90ad46f0452619e18b1653",1,"Sans F A","BROAD","infect","Study1","U","JOL_SF",9532,"23",10123,"string",33.333333333333,"infect",0
755,"5f90ad46f0452619e18b1653",1,"Sans F A","KEYS","joke","Study1","U","JOL_SF",13582,"40",5705,"joke",100,"joke",1
756,"5f90ad46f0452619e18b1653",1,"Sans F A","VASE","king","Study2","U","JOL_SF",2873,"16",2839,"",0,"king",0
757,"5f90ad46f0452619e18b1653",1,"Sans F A","SLIM","know","Study2","U","JOL",5178,"32",6004,"know",100,"know",1
758,"5f90ad46f0452619e18b1653",1,"Sans F A","SYSTEM","lick","Study2","U","JOL_SF",3817,"10",4393,"",0,"lick",0
759,"5f90ad46f0452619e18b1653",1,"Sans F A","WOMAN","lift","Study2","U","JOL",2427,"22",4862,"",0,"lift",0
760,"5f90ad46f0452619e18b1653",1,"Sans F A","DONKEY","lush","Study1","U","JOL",11702,"5",4475,"",0,"lush",0
761,"5f90ad46f0452619e18b1653",1,"Sans F A","POSITION","machine","Study2","U","JOL",2809,"24",2911,"machine",100,"machine",1
762,"5f90ad46f0452619e18b1653",1,"Sans F A","JUSTICE","maroon","Study1","U","JOL",10747,"15",3558,"",0,"maroon",0
763,"5f90ad46f0452619e18b1653",1,"Sans F A","PET","moon","Study1","U","JOL",4966,"9",7957,"moon",100,"moon",1
764,"5f90ad46f0452619e18b1653",1,"Sans F A","TEMPERATURE","morning","Study1","U","JOL",5257,"26",11551,"since",33.333333333333,"morning",0
765,"5f90ad46f0452619e18b1653",1,"Sans F A","JELLY","naughty","Study2","U","JOL",7014,"18",5530,"naughty",100,"naughty",1
766,"5f90ad46f0452619e18b1653",1,"Sans F A","ROSE","neglect","Study1","U","JOL",8486,"27",3503,"",0,"neglect",0
767,"5f90ad46f0452619e18b1653",1,"Sans F A","DESIRE","noise","Study2","U","JOL_SF",3796,"16",2578,"",0,"noise",0
768,"5f90ad46f0452619e18b1653",1,"Sans F A","PUFF","number","Study2","U","JOL",3627,"19",4791,"fish",0,"number",0
769,"5f90ad46f0452619e18b1653",1,"Sans F A","MEAT","obtain","Study1","U","JOL_SF",12851,"30",2574,"obtain",100,"obtain",1
770,"5f90ad46f0452619e18b1653",1,"Sans F A","SMOOTH","omit","Study2","U","JOL_SF",2540,"16",3515,"slip",25,"omit",0
771,"5f90ad46f0452619e18b1653",1,"Sans F A","LAKE","opinion","Study2","U","JOL",5001,"48",8241,"",0,"opinion",0
772,"5f90ad46f0452619e18b1653",1,"Sans F A","BOTH","ounce","Study1","U","JOL",5956,"3",9821,"",0,"ounce",0
773,"5f90ad46f0452619e18b1653",1,"Sans F A","TAX","owl","Study1","U","JOL_SF",6599,"4",6157,"owl",100,"owl",1
774,"5f90ad46f0452619e18b1653",1,"Sans F A","HUNGRY","park","Study2","U","JOL",6720,"9",4006,"",0,"park",0
775,"5f90ad46f0452619e18b1653",1,"Sans F A","DIFFICULT","poor","Study1","U","JOL_SF",7696,"60",7816,"poor",100,"poor",1
776,"5f90ad46f0452619e18b1653",1,"Sans F A","CLUTTER","pusher","Study2","U","JOL_SF",3900,"28",20828,"",0,"pusher",0
777,"5f90ad46f0452619e18b1653",1,"Sans F A","CRAYON","rate","Study1","U","JOL_SF",8973,"5",12309,"pen",28.571428571429,"rate",0
778,"5f90ad46f0452619e18b1653",1,"Sans F A","PUT","roll","Study2","U","JOL",5319,"16",2927,"",0,"roll",0
779,"5f90ad46f0452619e18b1653",1,"Sans F A","MAIN","scar","Study1","U","JOL",10068,"8",15628,"sour",50,"scar",1
780,"5f90ad46f0452619e18b1653",1,"Sans F A","ROAD","scent","Study2","U","JOL_SF",4996,"33",5483,"scent",100,"scent",1
781,"5f90ad46f0452619e18b1653",1,"Sans F A","WARN","sea","Study1","U","JOL_SF",6814,"26",4746,"sea",100,"sea",1
782,"5f90ad46f0452619e18b1653",1,"Sans F A","WASTE","sedate","Study2","U","JOL_SF",4543,"55",3639,"sedate",100,"sedate",1
783,"5f90ad46f0452619e18b1653",1,"Sans F A","SHELL","shake","Study1","U","JOL",5107,"75",19230,"",0,"shake",0
784,"5f90ad46f0452619e18b1653",1,"Sans F A","BAT","shaky","Study1","U","JOL",8343,"17",7769,"hover",20,"shaky",0
785,"5f90ad46f0452619e18b1653",1,"Sans F A","LOAN","sign","Study1","U","JOL",8729,"8",10799,"sign",100,"sign",1
786,"5f90ad46f0452619e18b1653",1,"Sans F A","FUTURE","sincere","Study1","U","JOL_SF",15323,"17",4325,"since",83.333333333333,"sincere",1
787,"5f90ad46f0452619e18b1653",1,"Sans F A","BELT","soon","Study2","U","JOL_SF",2615,"5",5430,"sad",28.571428571429,"soon",0
788,"5f90ad46f0452619e18b1653",1,"Sans F A","GRIND","stand","Study1","U","JOL",9560,"18",4945,"",0,"stand",0
789,"5f90ad46f0452619e18b1653",1,"Sans F A","GIVE","steak","Study1","U","JOL_SF",7249,"44",10764,"steak",100,"steak",1
790,"5f90ad46f0452619e18b1653",1,"Sans F A","RIDDLE","sugar","Study2","U","JOL",3166,"12",3175,"",0,"sugar",0
791,"5f90ad46f0452619e18b1653",1,"Sans F A","DIZZY","sweater","Study1","U","JOL_SF",3420,"0",6778,"bang",18.181818181818,"sweater",0
792,"5f90ad46f0452619e18b1653",1,"Sans F A","PARCEL","throat","Study1","U","JOL_SF",5834,"3",4473,"",0,"throat",0
793,"5f90ad46f0452619e18b1653",1,"Sans F A","ZOO","thumb","Study2","U","JOL",3305,"19",8217,"white",20,"thumb",0
794,"5f90ad46f0452619e18b1653",1,"Sans F A","LEASE","toil","Study1","U","JOL_SF",9237,"35",8906,"sign",25,"toil",0
795,"5f90ad46f0452619e18b1653",1,"Sans F A","STOMACH","town","Study2","U","JOL",2680,"4",9108,"country",36.363636363636,"town",0
796,"5f90ad46f0452619e18b1653",1,"Sans F A","ADD","valley","Study2","U","JOL_SF",2688,"20",3840,"",0,"valley",0
797,"5f90ad46f0452619e18b1653",1,"Sans F A","RIPE","verify","Study1","U","JOL_SF",8632,"25",5258,"",0,"verify",0
798,"5f90ad46f0452619e18b1653",1,"Sans F A","MUTE","wave","Study2","U","JOL_SF",3054,"3",3920,"",0,"wave",0
799,"5f90ad46f0452619e18b1653",1,"Sans F A","GUARD","wheel","Study2","U","JOL_SF",4288,"14",3872,"rail",22.222222222222,"wheel",0
800,"5f90ad46f0452619e18b1653",1,"Sans F A","STRESS","yam","Study1","U","JOL_SF",7834,"18",5860,"",0,"yam",0
801,"w10003302_MPR",1,"Sans F A","CRACKLE","able","Study1","U","JOL",4846,"10",3317,"fackle",60,"able",0
802,"w10003302_MPR",1,"Sans F A","TUCK","allow","Study2","U","JOL",2123,"8",1963,"allow",100,"allow",1
803,"w10003302_MPR",1,"Sans F A","LION","art","Study2","U","JOL_SF",2266,"18",2723,"ate",66.666666666667,"art",1
804,"w10003302_MPR",1,"Sans F A","BRONZE","artery","Study2","U","JOL",2049,"19",3169,"age",44.444444444444,"artery",0
805,"w10003302_MPR",1,"Sans F A","FUZZY","bang","Study1","U","JOL",3954,"88",4079,"sweater",18.181818181818,"bang",0
806,"w10003302_MPR",1,"Sans F A","SPELL","bone","Study2","U","JOL_SF",3174,"19",1666,"",0,"bone",0
807,"w10003302_MPR",1,"Sans F A","WOULD","cash","Study2","U","JOL_SF",2540,"29",2287,"should",40,"cash",0
808,"w10003302_MPR",1,"Sans F A","DEGREE","chair","Study1","U","JOL_SF",3669,"99",1976,"dean",22.222222222222,"chair",0
809,"w10003302_MPR",1,"Sans F A","VEHICLE","charm","Study1","U","JOL_SF",4801,"64",1434,"",0,"charm",0
810,"w10003302_MPR",1,"Sans F A","MIRROR","children","Study1","U","JOL_SF",2692,"87",3572,"child",76.923076923077,"children",0
811,"w10003302_MPR",1,"Sans F A","MOAT","clear","Study1","U","JOL",3968,"78",3584,"float",40,"clear",0
812,"w10003302_MPR",1,"Sans F A","STRETCH","cloth","Study1","U","JOL_SF",3533,"79",1090,"",0,"cloth",0
813,"w10003302_MPR",1,"Sans F A","CAKE","clothes","Study1","U","JOL",3899,"89",3502,"shoe",18.181818181818,"clothes",0
814,"w10003302_MPR",1,"Sans F A","THICK","contest","Study1","U","JOL_SF",3044,"18",2209,"contest",100,"contest",1
815,"w10003302_MPR",1,"Sans F A","READY","corn","Study2","U","JOL_SF",3420,"32",4411,"",0,"corn",0
816,"w10003302_MPR",1,"Sans F A","NULL","cough","Study2","U","JOL",3739,"19",1775,"void",22.222222222222,"cough",0
817,"w10003302_MPR",1,"Sans F A","Business","death","Study2","U","JOL",2932,"99",2709,"death",100,"death",1
818,"w10003302_MPR",1,"Sans F A","SIGHT","debate","Study2","U","JOL_SF",3561,"87",2404,"flight",16.666666666667,"debate",0
819,"w10003302_MPR",1,"Sans F A","SACKING","dietary","Study2","U","JOL",2422,"0",2377,"packing",14.285714285714,"dietary",0
820,"w10003302_MPR",1,"Sans F A","FLOOR","discover","Study2","U","JOL_SF",1373,"20",1960,"door",50,"discover",0
821,"w10003302_MPR",1,"Sans F A","INFLATE","disgust","Study1","U","JOL",2774,"100",3009,"disgusting",82.352941176471,"disgust",0
822,"w10003302_MPR",1,"Sans F A","MAZE","election","Study1","U","JOL_SF",4438,"29",3358,"politics",37.5,"election",0
823,"w10003302_MPR",1,"Sans F A","LISTEN","fiction","Study1","U","JOL",2562,"82",944,"",0,"fiction",0
824,"w10003302_MPR",1,"Sans F A","HAND","fix","Study2","U","JOL",1736,"29",1364,"",0,"fix",0
825,"w10003302_MPR",1,"Sans F A","SWING","fog","Study2","U","JOL",4232,"34",2518,"bluff",25,"fog",0
826,"w10003302_MPR",1,"Sans F A","DETECT","free","Study2","U","JOL_SF",5902,"9",1101,"",0,"free",0
827,"w10003302_MPR",1,"Sans F A","RESIST","glue","Study1","U","JOL",6589,"70",2681,"meat",25,"glue",0
828,"w10003302_MPR",1,"Sans F A","CAR","happy","Study2","U","JOL_SF",2563,"0",1983,"happy",100,"happy",1
829,"w10003302_MPR",1,"Sans F A","NUMBER","hard","Study1","U","JOL_SF",11561,"87",1901,"game",25,"hard",0
830,"w10003302_MPR",1,"Sans F A","FLOAT","harmony","Study2","U","JOL_SF",7704,"49",1923,"",0,"harmony",0
831,"w10003302_MPR",1,"Sans F A","NAME","hate","Study1","U","JOL_SF",3417,"86",1662,"game",50,"hate",1
832,"w10003302_MPR",1,"Sans F A","SICK","hide","Study2","U","JOL_SF",4671,"29",3936,"",0,"hide",0
833,"w10003302_MPR",1,"Sans F A","BROAD","infect","Study1","U","JOL_SF",3224,"8",1485,"",0,"infect",0
834,"w10003302_MPR",1,"Sans F A","KEYS","joke","Study1","U","JOL",7546,"98",2277,"laugh",0,"joke",0
835,"w10003302_MPR",1,"Sans F A","VASE","king","Study2","U","JOL",3058,"30",2232,"king",100,"king",1
836,"w10003302_MPR",1,"Sans F A","SLIM","know","Study2","U","JOL",3540,"72",4059,"thought",18.181818181818,"know",0
837,"w10003302_MPR",1,"Sans F A","SYSTEM","lick","Study2","U","JOL",2632,"19",4928,"misuse",20,"lick",0
838,"w10003302_MPR",1,"Sans F A","WOMAN","lift","Study2","U","JOL_SF",3374,"8",1500,"lift",100,"lift",1
839,"w10003302_MPR",1,"Sans F A","DONKEY","lush","Study1","U","JOL",3543,"100",5259,"flourish",66.666666666667,"lush",0
840,"w10003302_MPR",1,"Sans F A","JUSTICE","maroon","Study1","U","JOL",3957,"78",3636,"",0,"maroon",0
841,"w10003302_MPR",1,"Sans F A","PET","moon","Study1","U","JOL_SF",5209,"40",2019,"moon",100,"moon",1
842,"w10003302_MPR",1,"Sans F A","TEMPERATURE","morning","Study1","U","JOL",4880,"81",4767,"morning",100,"morning",1
843,"w10003302_MPR",1,"Sans F A","JELLY","naughty","Study2","U","JOL",2385,"7",2484,"naughty",100,"naughty",1
844,"w10003302_MPR",1,"Sans F A","ROSE","neglect","Study1","U","JOL",4784,"89",5323,"discarded",12.5,"neglect",0
845,"w10003302_MPR",1,"Sans F A","DESIRE","noise","Study2","U","JOL",2963,"24",2364,"stomach",16.666666666667,"noise",0
846,"w10003302_MPR",1,"Sans F A","PUFF","number","Study2","U","JOL_SF",3947,"36",2307,"stuf",20,"number",0
847,"w10003302_MPR",1,"Sans F A","MEAT","obtain","Study1","U","JOL_SF",3226,"89",5628,"strike",33.333333333333,"obtain",0
848,"w10003302_MPR",1,"Sans F A","SMOOTH","omit","Study2","U","JOL",3007,"0",3048,"king",25,"omit",0
849,"w10003302_MPR",1,"Sans F A","LAKE","opinion","Study2","U","JOL",2957,"5",1497,"",0,"opinion",0
850,"w10003302_MPR",1,"Sans F A","BOTH","ounce","Study1","U","JOL_SF",4764,"45",1143,"",0,"ounce",0
851,"w10003302_MPR",1,"Sans F A","TAX","owl","Study1","U","JOL_SF",4002,"29",1076,"",0,"owl",0
852,"w10003302_MPR",1,"Sans F A","HUNGRY","park","Study2","U","JOL_SF",1804,"10",2474,"desire",20,"park",0
853,"w10003302_MPR",1,"Sans F A","DIFFICULT","poor","Study1","U","JOL",2984,"83",2469,"",0,"poor",0
854,"w10003302_MPR",1,"Sans F A","CLUTTER","pusher","Study2","U","JOL_SF",3743,"73",1944,"",0,"pusher",0
855,"w10003302_MPR",1,"Sans F A","CRAYON","rate","Study1","U","JOL",2924,"49",7233,"rate",100,"rate",1
856,"w10003302_MPR",1,"Sans F A","PUT","roll","Study2","U","JOL",5032,"34",1192,"",0,"roll",0
857,"w10003302_MPR",1,"Sans F A","MAIN","scar","Study1","U","JOL",3018,"89",1359,"",0,"scar",0
858,"w10003302_MPR",1,"Sans F A","ROAD","scent","Study2","U","JOL",2038,"9",3984,"silence",50,"scent",0
