Username,ID,ExperimentName,Session,Trial,Date,TimeDif,"Condition Number","Stimuli File","Order File","Condition Description","Condition Notes",Stimuli*Cue,Stimuli*Answer,Stimuli*Shuffle,"Stimuli*Stimuli Notes",Stimuli*Value,Procedure*Item,"Procedure*Trial Type","Procedure*Max Time","Procedure*Min Time",Procedure*Text,"Procedure*Procedure Notes",Procedure*Shuffle,Response*RT,Response*Response,Response*Accuracy,Response*RTfirst,Response*RTlast,Response*strictAcc,Response*lenientAcc,Response*focus,Response*JOL,Response*Focus
5f1052ee7e2e472c3723c782,ywwm7wu6rl,Trevor-ex1,1,1,2020-07-17T09:50:41-07:00,6.9371888637543,3,versionC_stim.csv,JOL_SIZE_VersionC.csv,"Large vs small C","Large vs small",,,,,,0,Instruct,-,5,"In this section, you will be presented with a series of word pairs.",Initial_Instruct,Instruct1,6603,,,-1,-1,,,,,1
5f1052ee7e2e472c3723c782,ywwm7wu6rl,Trevor-ex1,1,2,2020-07-17T09:51:01-07:00,20.172868013382,3,versionC_stim.csv,JOL_SIZE_VersionC.csv,"Large vs small C","Large vs small",,,,,,0,Instruct,-,10,"As you study, you will be asked to rate your ability to remember the second item in the pair if you were only shown the first at test. You will make these ratings using a 0 to 100 Scale.",,Instruct13,19523,,,-1,-1,,,,,1
5f1052ee7e2e472c3723c782,ywwm7wu6rl,Trevor-ex1,1,3,2020-07-17T09:51:20-07:00,18.838923931122,3,versionC_stim.csv,JOL_SIZE_VersionC.csv,"Large vs small C","Large vs small",,,,,,0,Instruct,-,10,"For example, if you are given the pair CAT - DOG, a rating of 0 indicates that you would not remember DOG at test, while a rating of 100 indicates full certainty that you would remember the word DOG at test.",,Instruct14,18237,,,-1,-1,,,,,1
5f1052ee7e2e472c3723c782,ywwm7wu6rl,Trevor-ex1,1,4,2020-07-17T09:51:35-07:00,15.360340118408,3,versionC_stim.csv,JOL_SIZE_VersionC.csv,"Large vs small C","Large vs small",,,,,,0,Instruct,-,10,"When making your ratings, it is criticial that you use the full range of the scale. You will be disqualified for only giving ratings of 0 or 100! After making your rating, press Enter to advance to the next pair.",,Instruct15,14791,,,-1,-1,,,,,1
5f1052ee7e2e472c3723c782,ywwm7wu6rl,Trevor-ex1,1,5,2020-07-17T09:51:42-07:00,6.8622078895569,3,versionC_stim.csv,JOL_SIZE_VersionC.csv,"Large vs small C","Large vs small",,,,,,0,Instruct,User,-,"You will now begin the study. Press Enter when you are ready to begin.",,Instruct16,6281,,,-1,-1,,,,,1
5f1052ee7e2e472c3723c782,ywwm7wu6rl,Trevor-ex1,1,6,2020-07-17T09:52:03-07:00,20.582665205002,3,versionC_stim.csv,JOL_SIZE_VersionC.csv,"Large vs small C","Large vs small",HIDE,SCARE,BUFFER1,Buffer,4,4,JOL_Small,User,-,"How likely are you to correctly recall the second item in the pair?|Type your response on a scale from 0-100 and then press Enter.",Study/JOL,BUFFER,19946,,,18133,19019,,,,70,1
5f1052ee7e2e472c3723c782,ywwm7wu6rl,Trevor-ex1,1,7,2020-07-17T09:52:10-07:00,7.6802268028259,3,versionC_stim.csv,JOL_SIZE_VersionC.csv,"Large vs small C","Large vs small",GREEN,TREES,BUFFER1,Buffer,1,3,JOL_Small,User,-,"How likely are you to correctly recall the second item in the pair?|Type your response on a scale from 0-100 and then press Enter.",Study/JOL,BUFFER,7016,,,5692,6168,,,,80,1
5f1052ee7e2e472c3723c782,ywwm7wu6rl,Trevor-ex1,1,8,2020-07-17T09:52:21-07:00,10.957041978836,3,versionC_stim.csv,JOL_SIZE_VersionC.csv,"Large vs small C","Large vs small",JAM,SPACE,BUFFER1,Buffer,5,6,JOL_Large,User,-,"How likely are you to correctly recall the second item in the pair?|Type your response on a scale from 0-100 and then press Enter.",Study/JOL,BUFFER,10389,,,8886,9381,,,,40,1
5f1052ee7e2e472c3723c782,ywwm7wu6rl,Trevor-ex1,1,9,2020-07-17T09:52:31-07:00,9.3200831413269,3,versionC_stim.csv,JOL_SIZE_VersionC.csv,"Large vs small C","Large vs small",BUTTER,PEANUT,BUFFER1,Buffer,3,5,JOL_Large,User,-,"How likely are you to correctly recall the second item in the pair?|Type your response on a scale from 0-100 and then press Enter.",Study/JOL,BUFFER,8650,,,7317,7692,,,,85,1
5f1052ee7e2e472c3723c782,ywwm7wu6rl,Trevor-ex1,1,10,2020-07-17T09:52:45-07:00,14.449622869492,3,versionC_stim.csv,JOL_SIZE_VersionC.csv,"Large vs small C","Large vs small",CATCHER,BASEBALL,BUFFER1,Buffer,2,2,JOL_Small,User,-,"How likely are you to correctly recall the second item in the pair?|Type your response on a scale from 0-100 and then press Enter.",Study/JOL,BUFFER,13890,,,12644,13011,,,,70,1
5f1052ee7e2e472c3723c782,ywwm7wu6rl,Trevor-ex1,1,11,2020-07-17T09:52:53-07:00,7.7939300537109,3,versionC_stim.csv,JOL_SIZE_VersionC.csv,"Large vs small C","Large vs small",SIP,DRINK,Study1,F,27,86,JOL_Small,User,-,"How likely are you to correctly recall the second item in the pair?|Type your response on a scale from 0-100 and then press Enter.",Study/JOL,"Study Phase",7201,,,5885,6310,,,,95,1
5f1052ee7e2e472c3723c782,ywwm7wu6rl,Trevor-ex1,1,12,2020-07-17T09:53:00-07:00,7.2438731193542,3,versionC_stim.csv,JOL_SIZE_VersionC.csv,"Large vs small C","Large vs small",WASP,BUG,Study1,F,32,65,JOL_Small,User,-,"How likely are you to correctly recall the second item in the pair?|Type your response on a scale from 0-100 and then press Enter.",Study/JOL,"Study Phase",6669,,,5568,5874,,,,85,1
5f1052ee7e2e472c3723c782,ywwm7wu6rl,Trevor-ex1,1,13,2020-07-17T09:53:06-07:00,5.6361448764801,3,versionC_stim.csv,JOL_SIZE_VersionC.csv,"Large vs small C","Large vs small",DIVISION,MATH,Study1,F,33,69,JOL_Small,User,-,"How likely are you to correctly recall the second item in the pair?|Type your response on a scale from 0-100 and then press Enter.",Study/JOL,"Study Phase",5008,,,3913,4212,,,,85,1
5f1052ee7e2e472c3723c782,ywwm7wu6rl,Trevor-ex1,1,14,2020-07-17T09:53:11-07:00,5.3382501602173,3,versionC_stim.csv,JOL_SIZE_VersionC.csv,"Large vs small C","Large vs small",FUTURE,PAST,Study1,S,61,27,JOL_Large,User,-,"How likely are you to correctly recall the second item in the pair?|Type your response on a scale from 0-100 and then press Enter.",Study/JOL,"Study Phase",4700,,,3576,3835,,,,90,1
5f1052ee7e2e472c3723c782,ywwm7wu6rl,Trevor-ex1,1,15,2020-07-17T09:53:23-07:00,12.068996906281,3,versionC_stim.csv,JOL_SIZE_VersionC.csv,"Large vs small C","Large vs small",FAMINE,HUNGER,Study1,F,40,20,JOL_Large,User,-,"How likely are you to correctly recall the second item in the pair?|Type your response on a scale from 0-100 and then press Enter.",Study/JOL,"Study Phase",11517,,,10152,10544,,,,50,1
5f1052ee7e2e472c3723c782,ywwm7wu6rl,Trevor-ex1,1,16,2020-07-17T09:53:31-07:00,7.9855399131775,3,versionC_stim.csv,JOL_SIZE_VersionC.csv,"Large vs small C","Large vs small",SICK,HIDE,Study1,U,84,8,JOL_Large,User,-,"How likely are you to correctly recall the second item in the pair?|Type your response on a scale from 0-100 and then press Enter.",Study/JOL,"Study Phase",7413,,,6336,6518,,,,45,1
5f1052ee7e2e472c3723c782,ywwm7wu6rl,Trevor-ex1,1,17,2020-07-17T09:53:38-07:00,6.6575231552124,3,versionC_stim.csv,JOL_SIZE_VersionC.csv,"Large vs small C","Large vs small",BAD,DELINQUENT,Study1,B,6,49,JOL_Small,User,-,"How likely are you to correctly recall the second item in the pair?|Type your response on a scale from 0-100 and then press Enter.",Study/JOL,"Study Phase",6046,,,4948,5142,,,,45,1
5f1052ee7e2e472c3723c782,ywwm7wu6rl,Trevor-ex1,1,18,2020-07-17T09:53:45-07:00,6.9612610340118,3,versionC_stim.csv,JOL_SIZE_VersionC.csv,"Large vs small C","Large vs small",WAR,REVOLUTION,Study1,B,20,38,JOL_Large,User,-,"How likely are you to correctly recall the second item in the pair?|Type your response on a scale from 0-100 and then press Enter.",Study/JOL,"Study Phase",6310,,,5146,5451,,,,35,1
5f1052ee7e2e472c3723c782,ywwm7wu6rl,Trevor-ex1,1,19,2020-07-17T09:53:55-07:00,10.7533659935,3,versionC_stim.csv,JOL_SIZE_VersionC.csv,"Large vs small C","Large vs small",OUT,WAY,Study1,B,16,29,JOL_Large,User,-,"How likely are you to correctly recall the second item in the pair?|Type your response on a scale from 0-100 and then press Enter.",Study/JOL,"Study Phase",10154,,,8735,9227,,,,40,1
5f1052ee7e2e472c3723c782,ywwm7wu6rl,Trevor-ex1,1,20,2020-07-17T09:54:20-07:00,24.473259925842,3,versionC_stim.csv,JOL_SIZE_VersionC.csv,"Large vs small C","Large vs small",BELT,SOON,Study1,U,70,10,JOL_Large,User,-,"How likely are you to correctly recall the second item in the pair?|Type your response on a scale from 0-100 and then press Enter.",Study/JOL,"Study Phase",23866,,,22638,23002,,,,40,1
5f1052ee7e2e472c3723c782,ywwm7wu6rl,Trevor-ex1,1,21,2020-07-17T09:54:27-07:00,6.6332850456238,3,versionC_stim.csv,JOL_SIZE_VersionC.csv,"Large vs small C","Large vs small",RIDDLE,SUGAR,Study1,U,81,57,JOL_Small,User,-,"How likely are you to correctly recall the second item in the pair?|Type your response on a scale from 0-100 and then press Enter.",Study/JOL,"Study Phase",5937,,,4584,5070,,,,30,1
5f1052ee7e2e472c3723c782,ywwm7wu6rl,Trevor-ex1,1,22,2020-07-17T09:54:33-07:00,6.4776909351349,3,versionC_stim.csv,JOL_SIZE_VersionC.csv,"Large vs small C","Large vs small",CLEAN,HYGIENE,Study1,B,17,15,JOL_Large,User,-,"How likely are you to correctly recall the second item in the pair?|Type your response on a scale from 0-100 and then press Enter.",Study/JOL,"Study Phase",5951,,,3068,5162,,,,60,1
5f1052ee7e2e472c3723c782,ywwm7wu6rl,Trevor-ex1,1,23,2020-07-17T09:54:46-07:00,12.595902919769,3,versionC_stim.csv,JOL_SIZE_VersionC.csv,"Large vs small C","Large vs small",ADD,VALLEY,Study1,U,82,72,JOL_Small,User,-,"How likely are you to correctly recall the second item in the pair?|Type your response on a scale from 0-100 and then press Enter.",Study/JOL,"Study Phase",11941,,,9463,9880,,,,30,1
5f1052ee7e2e472c3723c782,ywwm7wu6rl,Trevor-ex1,1,24,2020-07-17T09:55:01-07:00,15.745100975037,3,versionC_stim.csv,JOL_SIZE_VersionC.csv,"Large vs small C","Large vs small",BIRD,SWAN,Study1,B,14,43,JOL_Large,User,-,"How likely are you to correctly recall the second item in the pair?|Type your response on a scale from 0-100 and then press Enter.",Study/JOL,"Study Phase",14100,,,12713,13077,,,,85,1
5f1052ee7e2e472c3723c782,ywwm7wu6rl,Trevor-ex1,1,25,2020-07-17T09:55:29-07:00,27.467118024826,3,versionC_stim.csv,JOL_SIZE_VersionC.csv,"Large vs small C","Large vs small",WATER,BRIDGE,Study1,B,18,58,JOL_Small,User,-,"How likely are you to correctly recall the second item in the pair?|Type your response on a scale from 0-100 and then press Enter.",Study/JOL,"Study Phase",26786,,,25865,25981,,,,55,1
5f1052ee7e2e472c3723c782,ywwm7wu6rl,Trevor-ex1,1,26,2020-07-17T09:55:34-07:00,5.5296809673309,3,versionC_stim.csv,JOL_SIZE_VersionC.csv,"Large vs small C","Large vs small",NEWS,EDITOR,Study1,B,10,62,JOL_Small,User,-,"How likely are you to correctly recall the second item in the pair?|Type your response on a scale from 0-100 and then press Enter.",Study/JOL,"Study Phase",4955,,,3854,4162,,,,50,1
5f1052ee7e2e472c3723c782,ywwm7wu6rl,Trevor-ex1,1,27,2020-07-17T09:55:40-07:00,5.4242990016937,3,versionC_stim.csv,JOL_SIZE_VersionC.csv,"Large vs small C","Large vs small",WIND,BLOW,Study1,S,55,56,JOL_Small,User,-,"How likely are you to correctly recall the second item in the pair?|Type your response on a scale from 0-100 and then press Enter.",Study/JOL,"Study Phase",4807,,,3021,3965,,,,60,1
5f1052ee7e2e472c3723c782,ywwm7wu6rl,Trevor-ex1,1,28,2020-07-17T09:55:55-07:00,14.952581167221,3,versionC_stim.csv,JOL_SIZE_VersionC.csv,"Large vs small C","Large vs small",DOG,PAW,Study1,B,15,82,JOL_Small,User,-,"How likely are you to correctly recall the second item in the pair?|Type your response on a scale from 0-100 and then press Enter.",Study/JOL,"Study Phase",14310,,,12003,13547,,,,95,1
5f1052ee7e2e472c3723c782,ywwm7wu6rl,Trevor-ex1,1,29,2020-07-17T09:56:16-07:00,20.889526844025,3,versionC_stim.csv,JOL_SIZE_VersionC.csv,"Large vs small C","Large vs small",TALK,DISCUSSION,Study1,B,21,83,JOL_Small,User,-,"How likely are you to correctly recall the second item in the pair?|Type your response on a scale from 0-100 and then press Enter.",Study/JOL,"Study Phase",20288,,,17630,19364,,,,55,1
5f1052ee7e2e472c3723c782,ywwm7wu6rl,Trevor-ex1,1,30,2020-07-17T09:56:20-07:00,4.8113520145416,3,versionC_stim.csv,JOL_SIZE_VersionC.csv,"Large vs small C","Large vs small",VASE,KING,Study1,U,85,16,JOL_Large,User,-,"How likely are you to correctly recall the second item in the pair?|Type your response on a scale from 0-100 and then press Enter.",Study/JOL,"Study Phase",4178,,,3006,3415,,,,35,1
5f1052ee7e2e472c3723c782,ywwm7wu6rl,Trevor-ex1,1,31,2020-07-17T09:56:25-07:00,4.4051439762115,3,versionC_stim.csv,JOL_SIZE_VersionC.csv,"Large vs small C","Large vs small",STOMACH,DIGESTION,Study1,B,7,74,JOL_Small,User,-,"How likely are you to correctly recall the second item in the pair?|Type your response on a scale from 0-100 and then press Enter.",Study/JOL,"Study Phase",3787,,,2863,2957,,,,55,1
5f1052ee7e2e472c3723c782,ywwm7wu6rl,Trevor-ex1,1,32,2020-07-17T09:56:31-07:00,6.0483510494232,3,versionC_stim.csv,JOL_SIZE_VersionC.csv,"Large vs small C","Large vs small",DEFINITION,MEANING,Study1,S,62,77,JOL_Small,User,-,"How likely are you to correctly recall the second item in the pair?|Type your response on a scale from 0-100 and then press Enter.",Study/JOL,"Study Phase",5402,,,2755,4554,,,,65,1
5f1052ee7e2e472c3723c782,ywwm7wu6rl,Trevor-ex1,1,33,2020-07-17T09:56:36-07:00,5.327005147934,3,versionC_stim.csv,JOL_SIZE_VersionC.csv,"Large vs small C","Large vs small",SODA,POP,Study1,S,56,9,JOL_Large,User,-,"How likely are you to correctly recall the second item in the pair?|Type your response on a scale from 0-100 and then press Enter.",Study/JOL,"Study Phase",4582,,,2374,2655,,,,70,1
5f1052ee7e2e472c3723c782,ywwm7wu6rl,Trevor-ex1,1,34,2020-07-17T09:56:46-07:00,10.231393814087,3,versionC_stim.csv,JOL_SIZE_VersionC.csv,"Large vs small C","Large vs small",SITE,LOCATION,Study1,S,48,25,JOL_Large,User,-,"How likely are you to correctly recall the second item in the pair?|Type your response on a scale from 0-100 and then press Enter.",Study/JOL,"Study Phase",9655,,,8562,8736,,,,45,1
5f1052ee7e2e472c3723c782,ywwm7wu6rl,Trevor-ex1,1,35,2020-07-17T09:56:51-07:00,4.7107210159302,3,versionC_stim.csv,JOL_SIZE_VersionC.csv,"Large vs small C","Large vs small",COLD,BITTER,Study1,B,12,32,JOL_Large,User,-,"How likely are you to correctly recall the second item in the pair?|Type your response on a scale from 0-100 and then press Enter.",Study/JOL,"Study Phase",4133,,,3041,3213,,,,65,1
5f1052ee7e2e472c3723c782,ywwm7wu6rl,Trevor-ex1,1,36,2020-07-17T09:56:56-07:00,4.8128559589386,3,versionC_stim.csv,JOL_SIZE_VersionC.csv,"Large vs small C","Large vs small",SEIZE,TAKE,Study1,F,29,11,JOL_Large,User,-,"How likely are you to correctly recall the second item in the pair?|Type your response on a scale from 0-100 and then press Enter.",Study/JOL,"Study Phase",4163,,,3237,3435,,,,65,1
5f1052ee7e2e472c3723c782,ywwm7wu6rl,Trevor-ex1,1,37,2020-07-17T09:57:01-07:00,4.711236000061,3,versionC_stim.csv,JOL_SIZE_VersionC.csv,"Large vs small C","Large vs small",DROWSY,SLEEP,Study1,F,41,41,JOL_Large,User,-,"How likely are you to correctly recall the second item in the pair?|Type your response on a scale from 0-100 and then press Enter.",Study/JOL,"Study Phase",4063,,,2778,3260,,,,70,1
5f1052ee7e2e472c3723c782,ywwm7wu6rl,Trevor-ex1,1,38,2020-07-17T09:57:05-07:00,4.7104902267456,3,versionC_stim.csv,JOL_SIZE_VersionC.csv,"Large vs small C","Large vs small",CHORE,WORK,Study1,F,39,52,JOL_Small,User,-,"How likely are you to correctly recall the second item in the pair?|Type your response on a scale from 0-100 and then press Enter.",Study/JOL,"Study Phase",4093,,,2955,3288,,,,70,1
5f1052ee7e2e472c3723c782,ywwm7wu6rl,Trevor-ex1,1,39,2020-07-17T09:57:11-07:00,5.4285578727722,3,versionC_stim.csv,JOL_SIZE_VersionC.csv,"Large vs small C","Large vs small",HAND,FIX,Study1,U,75,67,JOL_Small,User,-,"How likely are you to correctly recall the second item in the pair?|Type your response on a scale from 0-100 and then press Enter.",Study/JOL,"Study Phase",4829,,,3689,3992,,,,50,1
5f1052ee7e2e472c3723c782,ywwm7wu6rl,Trevor-ex1,1,40,2020-07-17T09:57:17-07:00,5.7310070991516,3,versionC_stim.csv,JOL_SIZE_VersionC.csv,"Large vs small C","Large vs small",ROUND,CIRCLE,Study1,S,65,35,JOL_Large,User,-,"How likely are you to correctly recall the second item in the pair?|Type your response on a scale from 0-100 and then press Enter.",Study/JOL,"Study Phase",5129,,,4189,4388,,,,87,1
5f1052ee7e2e472c3723c782,ywwm7wu6rl,Trevor-ex1,1,41,2020-07-17T09:57:21-07:00,4.5104448795319,3,versionC_stim.csv,JOL_SIZE_VersionC.csv,"Large vs small C","Large vs small",FLOOR,DISCOVER,Study1,U,71,7,JOL_Large,User,-,"How likely are you to correctly recall the second item in the pair?|Type your response on a scale from 0-100 and then press Enter.",Study/JOL,"Study Phase",3954,,,2991,3231,,,,35,1
5f1052ee7e2e472c3723c782,ywwm7wu6rl,Trevor-ex1,1,42,2020-07-17T09:57:26-07:00,5.016921043396,3,versionC_stim.csv,JOL_SIZE_VersionC.csv,"Large vs small C","Large vs small",CHEESE,WINE,Study1,S,57,79,JOL_Small,User,-,"How likely are you to correctly recall the second item in the pair?|Type your response on a scale from 0-100 and then press Enter.",Study/JOL,"Study Phase",4407,,,3256,3591,,,,60,1
5f1052ee7e2e472c3723c782,ywwm7wu6rl,Trevor-ex1,1,43,2020-07-17T09:57:33-07:00,6.6537249088287,3,versionC_stim.csv,JOL_SIZE_VersionC.csv,"Large vs small C","Large vs small",ACCIDENT,STRONG,Study1,U,80,66,JOL_Small,User,-,"How likely are you to correctly recall the second item in the pair?|Type your response on a scale from 0-100 and then press Enter.",Study/JOL,"Study Phase",6072,,,4913,5332,,,,33,1
5f1052ee7e2e472c3723c782,ywwm7wu6rl,Trevor-ex1,1,44,2020-07-17T09:57:41-07:00,8.4960479736328,3,versionC_stim.csv,JOL_SIZE_VersionC.csv,"Large vs small C","Large vs small",WORD,SENTENCE,Study1,F,31,78,JOL_Small,User,-,"How likely are you to correctly recall the second item in the pair?|Type your response on a scale from 0-100 and then press Enter.",Study/JOL,"Study Phase",7894,,,6871,7104,,,,45,1
5f1052ee7e2e472c3723c782,ywwm7wu6rl,Trevor-ex1,1,45,2020-07-17T09:57:47-07:00,6.1467289924622,3,versionC_stim.csv,JOL_SIZE_VersionC.csv,"Large vs small C","Large vs small",STING,HORNET,Study1,B,11,18,JOL_Large,User,-,"How likely are you to correctly recall the second item in the pair?|Type your response on a scale from 0-100 and then press Enter.",Study/JOL,"Study Phase",5569,,,4319,4675,,,,40,1
5f1052ee7e2e472c3723c782,ywwm7wu6rl,Trevor-ex1,1,46,2020-07-17T09:57:52-07:00,5.0188071727753,3,versionC_stim.csv,JOL_SIZE_VersionC.csv,"Large vs small C","Large vs small",BUSINESS,DEATH,Study1,U,72,17,JOL_Large,User,-,"How likely are you to correctly recall the second item in the pair?|Type your response on a scale from 0-100 and then press Enter.",Study/JOL,"Study Phase",4431,,,3359,3625,,,,25,1
5f1052ee7e2e472c3723c782,ywwm7wu6rl,Trevor-ex1,1,47,2020-07-17T09:58:00-07:00,7.4756350517273,3,versionC_stim.csv,JOL_SIZE_VersionC.csv,"Large vs small C","Large vs small",AMOUNT,NUMBER,Study1,S,47,33,JOL_Large,User,-,"How likely are you to correctly recall the second item in the pair?|Type your response on a scale from 0-100 and then press Enter.",Study/JOL,"Study Phase",6848,,,5956,6086,,,,55,1
5f1052ee7e2e472c3723c782,ywwm7wu6rl,Trevor-ex1,1,48,2020-07-17T09:58:04-07:00,4.302649974823,3,versionC_stim.csv,JOL_SIZE_VersionC.csv,"Large vs small C","Large vs small",ASSIGNMENT,DUE,Study1,S,46,30,JOL_Large,User,-,"How likely are you to correctly recall the second item in the pair?|Type your response on a scale from 0-100 and then press Enter.",Study/JOL,"Study Phase",3679,,,2389,2730,,,,60,1
5f1052ee7e2e472c3723c782,ywwm7wu6rl,Trevor-ex1,1,49,2020-07-17T09:58:08-07:00,4.297691822052,3,versionC_stim.csv,JOL_SIZE_VersionC.csv,"Large vs small C","Large vs small",CARD,CREDIT,Study1,B,23,73,JOL_Small,User,-,"How likely are you to correctly recall the second item in the pair?|Type your response on a scale from 0-100 and then press Enter.",Study/JOL,"Study Phase",3731,,,2807,2965,,,,55,1
5f1052ee7e2e472c3723c782,ywwm7wu6rl,Trevor-ex1,1,50,2020-07-17T09:58:18-07:00,9.9363842010498,3,versionC_stim.csv,JOL_SIZE_VersionC.csv,"Large vs small C","Large vs small",SIGHT,DEBATE,Study1,U,73,53,JOL_Small,User,-,"How likely are you to correctly recall the second item in the pair?|Type your response on a scale from 0-100 and then press Enter.",Study/JOL,"Study Phase",9352,,,8316,8585,,,,25,1
5f1052ee7e2e472c3723c782,ywwm7wu6rl,Trevor-ex1,1,51,2020-07-17T09:58:26-07:00,7.4731278419495,3,versionC_stim.csv,JOL_SIZE_VersionC.csv,"Large vs small C","Large vs small",BRONZE,ARTERY,Study1,U,74,71,JOL_Small,User,-,"How likely are you to correctly recall the second item in the pair?|Type your response on a scale from 0-100 and then press Enter.",Study/JOL,"Study Phase",6878,,,5709,6078,,,,20,1
5f1052ee7e2e472c3723c782,ywwm7wu6rl,Trevor-ex1,1,52,2020-07-17T09:58:32-07:00,6.0413501262665,3,versionC_stim.csv,JOL_SIZE_VersionC.csv,"Large vs small C","Large vs small",GROWTH,HEIGHT,Study1,F,30,80,JOL_Small,User,-,"How likely are you to correctly recall the second item in the pair?|Type your response on a scale from 0-100 and then press Enter.",Study/JOL,"Study Phase",5463,,,3746,4095,,,,36,1
5f1052ee7e2e472c3723c782,ywwm7wu6rl,Trevor-ex1,1,53,2020-07-17T09:58:40-07:00,8.0723769664764,3,versionC_stim.csv,JOL_SIZE_VersionC.csv,"Large vs small C","Large vs small",TOILET,BATHROOM,Study1,S,58,24,JOL_Large,User,-,"How likely are you to correctly recall the second item in the pair?|Type your response on a scale from 0-100 and then press Enter.",Study/JOL,"Study Phase",6466,,,4313,5550,,,,80,1
5f1052ee7e2e472c3723c782,ywwm7wu6rl,Trevor-ex1,1,54,2020-07-17T09:58:47-07:00,7.286269903183,3,versionC_stim.csv,JOL_SIZE_VersionC.csv,"Large vs small C","Large vs small",WOULD,CASH,Study1,U,83,14,JOL_Large,User,-,"How likely are you to correctly recall the second item in the pair?|Type your response on a scale from 0-100 and then press Enter.",Study/JOL,"Study Phase",6647,,,3550,3955,,,,30,1
5f1052ee7e2e472c3723c782,ywwm7wu6rl,Trevor-ex1,1,55,2020-07-17T09:58:52-07:00,5.0194580554962,3,versionC_stim.csv,JOL_SIZE_VersionC.csv,"Large vs small C","Large vs small",ENOUGH,FULL,Study1,F,26,34,JOL_Large,User,-,"How likely are you to correctly recall the second item in the pair?|Type your response on a scale from 0-100 and then press Enter.",Study/JOL,"Study Phase",4443,,,3413,3553,,,,55,1
5f1052ee7e2e472c3723c782,ywwm7wu6rl,Trevor-ex1,1,56,2020-07-17T09:58:58-07:00,5.4743659496307,3,versionC_stim.csv,JOL_SIZE_VersionC.csv,"Large vs small C","Large vs small",CHILI,HOT,Study1,F,37,37,JOL_Large,User,-,"How likely are you to correctly recall the second item in the pair?|Type your response on a scale from 0-100 and then press Enter.",Study/JOL,"Study Phase",4840,,,3584,3942,,,,75,1
5f1052ee7e2e472c3723c782,ywwm7wu6rl,Trevor-ex1,1,57,2020-07-17T09:59:03-07:00,5.2791080474854,3,versionC_stim.csv,JOL_SIZE_VersionC.csv,"Large vs small C","Large vs small",STENCH,SMELL,Study1,F,42,42,JOL_Large,User,-,"How likely are you to correctly recall the second item in the pair?|Type your response on a scale from 0-100 and then press Enter.",Study/JOL,"Study Phase",4682,,,3595,3862,,,,80,1
5f1052ee7e2e472c3723c782,ywwm7wu6rl,Trevor-ex1,1,58,2020-07-17T09:59:08-07:00,5.1191248893738,3,versionC_stim.csv,JOL_SIZE_VersionC.csv,"Large vs small C","Large vs small",WASTE,DUMP,Study1,S,49,76,JOL_Small,User,-,"How likely are you to correctly recall the second item in the pair?|Type your response on a scale from 0-100 and then press Enter.",Study/JOL,"Study Phase",4548,,,3229,3721,,,,75,1
5f1052ee7e2e472c3723c782,ywwm7wu6rl,Trevor-ex1,1,59,2020-07-17T09:59:12-07:00,3.9935111999512,3,versionC_stim.csv,JOL_SIZE_VersionC.csv,"Large vs small C","Large vs small",MONEY,WAGE,Study1,B,8,12,JOL_Large,User,-,"How likely are you to correctly recall the second item in the pair?|Type your response on a scale from 0-100 and then press Enter.",Study/JOL,"Study Phase",3435,,,2465,2630,,,,65,1
5f1052ee7e2e472c3723c782,ywwm7wu6rl,Trevor-ex1,1,60,2020-07-17T09:59:17-07:00,4.9152219295502,3,versionC_stim.csv,JOL_SIZE_VersionC.csv,"Large vs small C","Large vs small",POSITION,MACHINE,Study1,U,76,23,JOL_Large,User,-,"How likely are you to correctly recall the second item in the pair?|Type your response on a scale from 0-100 and then press Enter.",Study/JOL,"Study Phase",4298,,,3072,3472,,,,35,1
5f1052ee7e2e472c3723c782,ywwm7wu6rl,Trevor-ex1,1,61,2020-07-17T09:59:23-07:00,5.5267100334167,3,versionC_stim.csv,JOL_SIZE_VersionC.csv,"Large vs small C","Large vs small",FISH,TUNA,Study1,B,25,48,JOL_Small,User,-,"How likely are you to correctly recall the second item in the pair?|Type your response on a scale from 0-100 and then press Enter.",Study/JOL,"Study Phase",4963,,,3535,4079,,,,80,1
5f1052ee7e2e472c3723c782,ywwm7wu6rl,Trevor-ex1,1,62,2020-07-17T09:59:29-07:00,6.3793878555298,3,versionC_stim.csv,JOL_SIZE_VersionC.csv,"Large vs small C","Large vs small",BAR,GRILL,Study1,S,52,36,JOL_Large,User,-,"How likely are you to correctly recall the second item in the pair?|Type your response on a scale from 0-100 and then press Enter.",Study/JOL,"Study Phase",5387,,,4119,4377,,,,53,1
5f1052ee7e2e472c3723c782,ywwm7wu6rl,Trevor-ex1,1,63,2020-07-17T09:59:34-07:00,4.8881261348724,3,versionC_stim.csv,JOL_SIZE_VersionC.csv,"Large vs small C","Large vs small",LION,ART,Study1,U,79,13,JOL_Large,User,-,"How likely are you to correctly recall the second item in the pair?|Type your response on a scale from 0-100 and then press Enter.",Study/JOL,"Study Phase",4200,,,2907,3411,,,,20,1
5f1052ee7e2e472c3723c782,ywwm7wu6rl,Trevor-ex1,1,64,2020-07-17T09:59:39-07:00,5.2562940120697,3,versionC_stim.csv,JOL_SIZE_VersionC.csv,"Large vs small C","Large vs small",HAMMER,CHISEL,Study1,B,9,31,JOL_Large,User,-,"How likely are you to correctly recall the second item in the pair?|Type your response on a scale from 0-100 and then press Enter.",Study/JOL,"Study Phase",4557,,,3400,3743,,,,40,1
5f1052ee7e2e472c3723c782,ywwm7wu6rl,Trevor-ex1,1,65,2020-07-17T09:59:48-07:00,8.4853398799896,3,versionC_stim.csv,JOL_SIZE_VersionC.csv,"Large vs small C","Large vs small",FOOT,SHOE,Study1,S,60,63,JOL_Small,User,-,"How likely are you to correctly recall the second item in the pair?|Type your response on a scale from 0-100 and then press Enter.",Study/JOL,"Study Phase",7985,,,3307,3528,,,,80,1
5f1052ee7e2e472c3723c782,ywwm7wu6rl,Trevor-ex1,1,66,2020-07-17T09:59:52-07:00,4.5907480716705,3,versionC_stim.csv,JOL_SIZE_VersionC.csv,"Large vs small C","Large vs small",CAVE,DARK,Study1,F,28,84,JOL_Small,User,-,"How likely are you to correctly recall the second item in the pair?|Type your response on a scale from 0-100 and then press Enter.",Study/JOL,"Study Phase",4015,,,2841,2964,,,,55,1
5f1052ee7e2e472c3723c782,ywwm7wu6rl,Trevor-ex1,1,67,2020-07-17T09:59:58-07:00,5.4244959354401,3,versionC_stim.csv,JOL_SIZE_VersionC.csv,"Large vs small C","Large vs small",ATTIRE,CLOTHES,Study1,F,43,60,JOL_Small,User,-,"How likely are you to correctly recall the second item in the pair?|Type your response on a scale from 0-100 and then press Enter.",Study/JOL,"Study Phase",4810,,,3764,4080,,,,50,1
5f1052ee7e2e472c3723c782,ywwm7wu6rl,Trevor-ex1,1,68,2020-07-17T10:00:02-07:00,4.709892988205,3,versionC_stim.csv,JOL_SIZE_VersionC.csv,"Large vs small C","Large vs small",CAR,HAPPY,Study1,U,77,75,JOL_Small,User,-,"How likely are you to correctly recall the second item in the pair?|Type your response on a scale from 0-100 and then press Enter.",Study/JOL,"Study Phase",4148,,,2822,3229,,,,40,1
5f1052ee7e2e472c3723c782,ywwm7wu6rl,Trevor-ex1,1,69,2020-07-17T10:00:08-07:00,5.6364901065826,3,versionC_stim.csv,JOL_SIZE_VersionC.csv,"Large vs small C","Large vs small",END,BEGIN,Study1,S,54,70,JOL_Small,User,-,"How likely are you to correctly recall the second item in the pair?|Type your response on a scale from 0-100 and then press Enter.",Study/JOL,"Study Phase",4978,,,3924,4197,,,,60,1
5f1052ee7e2e472c3723c782,ywwm7wu6rl,Trevor-ex1,1,70,2020-07-17T10:00:13-07:00,5.3234519958496,3,versionC_stim.csv,JOL_SIZE_VersionC.csv,"Large vs small C","Large vs small",BLAZE,FIRE,Study1,F,45,46,JOL_Large,User,-,"How likely are you to correctly recall the second item in the pair?|Type your response on a scale from 0-100 and then press Enter.",Study/JOL,"Study Phase",4716,,,3791,3948,,,,87,1
5f1052ee7e2e472c3723c782,ywwm7wu6rl,Trevor-ex1,1,71,2020-07-17T10:00:22-07:00,9.1153569221497,3,versionC_stim.csv,JOL_SIZE_VersionC.csv,"Large vs small C","Large vs small",JURY,TRIAL,Study1,S,50,54,JOL_Small,User,-,"How likely are you to correctly recall the second item in the pair?|Type your response on a scale from 0-100 and then press Enter.",Study/JOL,"Study Phase",8575,,,4693,6641,,,,80,1
5f1052ee7e2e472c3723c782,ywwm7wu6rl,Trevor-ex1,1,72,2020-07-17T10:00:28-07:00,5.2187459468842,3,versionC_stim.csv,JOL_SIZE_VersionC.csv,"Large vs small C","Large vs small",CHILD,BABY,Study1,S,64,61,JOL_Small,User,-,"How likely are you to correctly recall the second item in the pair?|Type your response on a scale from 0-100 and then press Enter.",Study/JOL,"Study Phase",4651,,,3043,3793,,,,65,1
5f1052ee7e2e472c3723c782,ywwm7wu6rl,Trevor-ex1,1,73,2020-07-17T10:00:32-07:00,4.0950081348419,3,versionC_stim.csv,JOL_SIZE_VersionC.csv,"Large vs small C","Large vs small",PILOT,PLANE,Study1,F,44,19,JOL_Large,User,-,"How likely are you to correctly recall the second item in the pair?|Type your response on a scale from 0-100 and then press Enter.",Study/JOL,"Study Phase",3544,,,2534,2759,,,,90,1
5f1052ee7e2e472c3723c782,ywwm7wu6rl,Trevor-ex1,1,74,2020-07-17T10:00:37-07:00,5.7344899177551,3,versionC_stim.csv,JOL_SIZE_VersionC.csv,"Large vs small C","Large vs small",SALAD,LETTUCE,Study1,S,59,45,JOL_Large,User,-,"How likely are you to correctly recall the second item in the pair?|Type your response on a scale from 0-100 and then press Enter.",Study/JOL,"Study Phase",5097,,,2599,4256,,,,87,1
5f1052ee7e2e472c3723c782,ywwm7wu6rl,Trevor-ex1,1,75,2020-07-17T10:00:45-07:00,7.066869020462,3,versionC_stim.csv,JOL_SIZE_VersionC.csv,"Large vs small C","Large vs small",HUNGRY,PARK,Study1,U,68,44,JOL_Large,User,-,"How likely are you to correctly recall the second item in the pair?|Type your response on a scale from 0-100 and then press Enter.",Study/JOL,"Study Phase",6534,,,2335,5618,,,,21,1
5f1052ee7e2e472c3723c782,ywwm7wu6rl,Trevor-ex1,1,76,2020-07-17T10:00:50-07:00,5.9392659664154,3,versionC_stim.csv,JOL_SIZE_VersionC.csv,"Large vs small C","Large vs small",LATCH,KEY,Study1,F,36,50,JOL_Small,User,-,"How likely are you to correctly recall the second item in the pair?|Type your response on a scale from 0-100 and then press Enter.",Study/JOL,"Study Phase",4197,,,3193,3375,,,,89,1
5f1052ee7e2e472c3723c782,ywwm7wu6rl,Trevor-ex1,1,77,2020-07-17T10:00:55-07:00,4.4026889801025,3,versionC_stim.csv,JOL_SIZE_VersionC.csv,"Large vs small C","Large vs small",ROCK,GEOLOGY,Study1,B,19,85,JOL_Small,User,-,"How likely are you to correctly recall the second item in the pair?|Type your response on a scale from 0-100 and then press Enter.",Study/JOL,"Study Phase",3807,,,2948,3065,,,,55,1
5f1052ee7e2e472c3723c782,ywwm7wu6rl,Trevor-ex1,1,78,2020-07-17T10:01:02-07:00,7.2707509994507,3,versionC_stim.csv,JOL_SIZE_VersionC.csv,"Large vs small C","Large vs small",SACKING,DIETARY,Study1,U,67,28,JOL_Large,User,-,"How likely are you to correctly recall the second item in the pair?|Type your response on a scale from 0-100 and then press Enter.",Study/JOL,"Study Phase",6664,,,4468,5668,,,,13,1
5f1052ee7e2e472c3723c782,ywwm7wu6rl,Trevor-ex1,1,79,2020-07-17T10:01:07-07:00,4.5093109607697,3,versionC_stim.csv,JOL_SIZE_VersionC.csv,"Large vs small C","Large vs small",FLOWER,ORCHID,Study1,B,24,26,JOL_Large,User,-,"How likely are you to correctly recall the second item in the pair?|Type your response on a scale from 0-100 and then press Enter.",Study/JOL,"Study Phase",3912,,,2852,3036,,,,45,1
5f1052ee7e2e472c3723c782,ywwm7wu6rl,Trevor-ex1,1,80,2020-07-17T10:01:13-07:00,6.1391170024872,3,versionC_stim.csv,JOL_SIZE_VersionC.csv,"Large vs small C","Large vs small",LIVER,KIDNEY,Study1,S,53,55,JOL_Small,User,-,"How likely are you to correctly recall the second item in the pair?|Type your response on a scale from 0-100 and then press Enter.",Study/JOL,"Study Phase",5598,,,3399,3692,,,,50,1
5f1052ee7e2e472c3723c782,ywwm7wu6rl,Trevor-ex1,1,81,2020-07-17T10:01:19-07:00,6.2248311042786,3,versionC_stim.csv,JOL_SIZE_VersionC.csv,"Large vs small C","Large vs small",BEE,HONEY,Study1,S,63,68,JOL_Small,User,-,"How likely are you to correctly recall the second item in the pair?|Type your response on a scale from 0-100 and then press Enter.",Study/JOL,"Study Phase",4579,,,3243,3619,,,,95,1
5f1052ee7e2e472c3723c782,ywwm7wu6rl,Trevor-ex1,1,82,2020-07-17T10:01:24-07:00,4.529876947403,3,versionC_stim.csv,JOL_SIZE_VersionC.csv,"Large vs small C","Large vs small",COW,HERD,Study1,B,22,51,JOL_Small,User,-,"How likely are you to correctly recall the second item in the pair?|Type your response on a scale from 0-100 and then press Enter.",Study/JOL,"Study Phase",3854,,,2911,3085,,,,65,1
5f1052ee7e2e472c3723c782,ywwm7wu6rl,Trevor-ex1,1,83,2020-07-17T10:01:28-07:00,4.0949420928955,3,versionC_stim.csv,JOL_SIZE_VersionC.csv,"Large vs small C","Large vs small",WOMAN,LIFT,Study1,U,69,22,JOL_Large,User,-,"How likely are you to correctly recall the second item in the pair?|Type your response on a scale from 0-100 and then press Enter.",Study/JOL,"Study Phase",3525,,,2366,2671,,,,25,1
5f1052ee7e2e472c3723c782,ywwm7wu6rl,Trevor-ex1,1,84,2020-07-17T10:01:32-07:00,4.2405200004578,3,versionC_stim.csv,JOL_SIZE_VersionC.csv,"Large vs small C","Large vs small",DESIGN,ARCHITECTURE,Study1,S,51,64,JOL_Small,User,-,"How likely are you to correctly recall the second item in the pair?|Type your response on a scale from 0-100 and then press Enter.",Study/JOL,"Study Phase",3709,,,2555,2943,,,,30,1
5f1052ee7e2e472c3723c782,ywwm7wu6rl,Trevor-ex1,1,85,2020-07-17T10:01:41-07:00,8.9893119335175,3,versionC_stim.csv,JOL_SIZE_VersionC.csv,"Large vs small C","Large vs small",ATTORNEY,LAW,Study1,F,34,47,JOL_Small,User,-,"How likely are you to correctly recall the second item in the pair?|Type your response on a scale from 0-100 and then press Enter.",Study/JOL,"Study Phase",8463,,,3551,7613,,,,35,1
5f1052ee7e2e472c3723c782,ywwm7wu6rl,Trevor-ex1,1,86,2020-07-17T10:01:46-07:00,5.6124629974365,3,versionC_stim.csv,JOL_SIZE_VersionC.csv,"Large vs small C","Large vs small",RACKET,BALL,Study1,F,38,39,JOL_Large,User,-,"How likely are you to correctly recall the second item in the pair?|Type your response on a scale from 0-100 and then press Enter.",Study/JOL,"Study Phase",5059,,,3015,4206,,,,70,1
5f1052ee7e2e472c3723c782,ywwm7wu6rl,Trevor-ex1,1,87,2020-07-17T10:01:51-07:00,4.4188709259033,3,versionC_stim.csv,JOL_SIZE_VersionC.csv,"Large vs small C","Large vs small",PLANT,ROOT,Study1,B,13,21,JOL_Large,User,-,"How likely are you to correctly recall the second item in the pair?|Type your response on a scale from 0-100 and then press Enter.",Study/JOL,"Study Phase",3776,,,2369,2866,,,,60,1
5f1052ee7e2e472c3723c782,ywwm7wu6rl,Trevor-ex1,1,88,2020-07-17T10:01:56-07:00,4.6948029994965,3,versionC_stim.csv,JOL_SIZE_VersionC.csv,"Large vs small C","Large vs small",FANTASTIC,GREAT,Study1,F,35,59,JOL_Small,User,-,"How likely are you to correctly recall the second item in the pair?|Type your response on a scale from 0-100 and then press Enter.",Study/JOL,"Study Phase",4143,,,2931,3180,,,,70,1
5f1052ee7e2e472c3723c782,ywwm7wu6rl,Trevor-ex1,1,89,2020-07-17T10:02:00-07:00,4.9160380363464,3,versionC_stim.csv,JOL_SIZE_VersionC.csv,"Large vs small C","Large vs small",CLUTTER,PUSHER,Study1,U,66,81,JOL_Small,User,-,"How likely are you to correctly recall the second item in the pair?|Type your response on a scale from 0-100 and then press Enter.",Study/JOL,"Study Phase",4282,,,2917,3388,,,,15,1
5f1052ee7e2e472c3723c782,ywwm7wu6rl,Trevor-ex1,1,90,2020-07-17T10:02:06-07:00,5.7705509662628,3,versionC_stim.csv,JOL_SIZE_VersionC.csv,"Large vs small C","Large vs small",TUCK,ALLOW,Study1,U,78,40,JOL_Large,User,-,"How likely are you to correctly recall the second item in the pair?|Type your response on a scale from 0-100 and then press Enter.",Study/JOL,"Study Phase",5100,,,3521,4177,,,,17,1
5f1052ee7e2e472c3723c782,ywwm7wu6rl,Trevor-ex1,1,91,2020-07-17T10:02:22-07:00,16.14134812355,3,versionC_stim.csv,JOL_SIZE_VersionC.csv,"Large vs small C","Large vs small",POLICE,SHERRIF,BUFFER2,Buffer,87,90,JOL_Small,User,-,"How likely are you to correctly recall the second item in the pair?|Type your response on a scale from 0-100 and then press Enter.",Study/JOL,BUFFER2,15534,,,14414,14656,,,,65,1
5f1052ee7e2e472c3723c782,ywwm7wu6rl,Trevor-ex1,1,92,2020-07-17T10:02:29-07:00,6.2481920719147,3,versionC_stim.csv,JOL_SIZE_VersionC.csv,"Large vs small C","Large vs small",CHOCOLATE,MALT,BUFFER2,Buffer,88,89,JOL_Small,User,-,"How likely are you to correctly recall the second item in the pair?|Type your response on a scale from 0-100 and then press Enter.",Study/JOL,BUFFER2,5626,,,4318,4718,,,,30,1
5f1052ee7e2e472c3723c782,ywwm7wu6rl,Trevor-ex1,1,93,2020-07-17T10:02:33-07:00,4.6067550182343,3,versionC_stim.csv,JOL_SIZE_VersionC.csv,"Large vs small C","Large vs small",STUFF,THING,BUFFER2,Buffer,90,88,JOL_Large,User,-,"How likely are you to correctly recall the second item in the pair?|Type your response on a scale from 0-100 and then press Enter.",Study/JOL,BUFFER2,3966,,,2837,3185,,,,50,1
5f1052ee7e2e472c3723c782,ywwm7wu6rl,Trevor-ex1,1,94,2020-07-17T10:02:40-07:00,6.4514780044556,3,versionC_stim.csv,JOL_SIZE_VersionC.csv,"Large vs small C","Large vs small",GOOSE,GEESE,BUFFER2,Buffer,86,87,JOL_Large,User,-,"How likely are you to correctly recall the second item in the pair?|Type your response on a scale from 0-100 and then press Enter.",Study/JOL,BUFFER2,5887,,,3174,5066,,,,70,1
5f1052ee7e2e472c3723c782,ywwm7wu6rl,Trevor-ex1,1,95,2020-07-17T10:02:44-07:00,3.8037898540497,3,versionC_stim.csv,JOL_SIZE_VersionC.csv,"Large vs small C","Large vs small",SPACE,MOON,BUFFER2,Buffer,89,91,JOL_Large,User,-,"How likely are you to correctly recall the second item in the pair?|Type your response on a scale from 0-100 and then press Enter.",Study/JOL,BUFFER2,3249,,,2286,2490,,,,80,1
5f1052ee7e2e472c3723c782,ywwm7wu6rl,Trevor-ex1,1,96,2020-07-17T10:02:46-07:00,2.2450530529022,3,versionC_stim.csv,JOL_SIZE_VersionC.csv,"Large vs small C","Large vs small",,,,,,0,Instruct,User,-,"You have completed this section. Please press Enter.",Filler_Instruction,Instruct2,1704,,,-1,-1,,,,,1
5f1052ee7e2e472c3723c782,ywwm7wu6rl,Trevor-ex1,1,97,2020-07-17T10:04:46-07:00,120.63185787201,3,versionC_stim.csv,JOL_SIZE_VersionC.csv,"Large vs small C","Large vs small",,,,,,0,FreeRecall,120,120,"Please list the 50 US states in alphabetical order. The task will automatically advance to the next screen after two minutes.",,Filler1,120022,"Alaska Atlanta Detroit Georgia Idaho Illinois Kentucky Louisiana New Jersey Ohio Pennsilvania Texas Virginia Washington ",0,10984,118243,0,0,,,1
5f1052ee7e2e472c3723c782,ywwm7wu6rl,Trevor-ex1,1,98,2020-07-17T10:05:02-07:00,15.55783700943,3,versionC_stim.csv,JOL_SIZE_VersionC.csv,"Large vs small C","Large vs small",,,,,,0,Instruct,-,10,"You will now be presented with the first word from each of the previously studied item pairs. Please type the missing word. If you do not know the word, you may guess or press Enter to skip forward to the next pair.",,Instruct3,14943,,,-1,-1,,,,,1
5f1052ee7e2e472c3723c782,ywwm7wu6rl,Trevor-ex1,1,99,2020-07-17T10:05:08-07:00,5.6319160461426,3,versionC_stim.csv,JOL_SIZE_VersionC.csv,"Large vs small C","Large vs small",ASSIGNMENT,DUE,Study1,S,46,30,Test,User,-,,Recall,Recall1,5066,Due,100,2897,4080,1,1,,,1
5f1052ee7e2e472c3723c782,ywwm7wu6rl,Trevor-ex1,1,100,2020-07-17T10:05:23-07:00,15.155112981796,3,versionC_stim.csv,JOL_SIZE_VersionC.csv,"Large vs small C","Large vs small",ENOUGH,FULL,Study1,F,26,34,Test,User,-,,Recall,Recall1,14565,,0,-1,-1,0,0,,,1
5f1052ee7e2e472c3723c782,ywwm7wu6rl,Trevor-ex1,1,101,2020-07-17T10:05:27-07:00,4.607675075531,3,versionC_stim.csv,JOL_SIZE_VersionC.csv,"Large vs small C","Large vs small",TOILET,BATHROOM,Study1,S,58,24,Test,User,-,,Recall,Recall1,3952,"Bathroom ",100,1960,2989,1,1,,,1
5f1052ee7e2e472c3723c782,ywwm7wu6rl,Trevor-ex1,1,102,2020-07-17T10:05:32-07:00,4.5065529346466,3,versionC_stim.csv,JOL_SIZE_VersionC.csv,"Large vs small C","Large vs small",ROCK,GEOLOGY,Study1,B,19,85,Test,User,-,,Recall,Recall1,3857,"Geology ",100,1688,2533,1,1,,,1
5f1052ee7e2e472c3723c782,ywwm7wu6rl,Trevor-ex1,1,103,2020-07-17T10:05:36-07:00,3.8904101848602,3,versionC_stim.csv,JOL_SIZE_VersionC.csv,"Large vs small C","Large vs small",ROUND,CIRCLE,Study1,S,65,35,Test,User,-,,Recall,Recall1,3276,"Circle ",100,1657,2353,1,1,,,1
5f1052ee7e2e472c3723c782,ywwm7wu6rl,Trevor-ex1,1,104,2020-07-17T10:05:41-07:00,5.4307129383087,3,versionC_stim.csv,JOL_SIZE_VersionC.csv,"Large vs small C","Large vs small",SEIZE,TAKE,Study1,F,29,11,Test,User,-,,Recall,Recall1,4752,"Take ",100,3415,3838,1,1,,,1
5f1052ee7e2e472c3723c782,ywwm7wu6rl,Trevor-ex1,1,105,2020-07-17T10:05:47-07:00,5.5270450115204,3,versionC_stim.csv,JOL_SIZE_VersionC.csv,"Large vs small C","Large vs small",CLEAN,HYGIENE,Study1,B,17,15,Test,User,-,,Recall,Recall1,4888,"Hygiene ",100,3135,3950,1,1,,,1
5f1052ee7e2e472c3723c782,ywwm7wu6rl,Trevor-ex1,1,106,2020-07-17T10:05:51-07:00,3.9964878559113,3,versionC_stim.csv,JOL_SIZE_VersionC.csv,"Large vs small C","Large vs small",WORD,SENTENCE,Study1,F,31,78,Test,User,-,,Recall,Recall1,3354,"Sentence ",100,1608,2531,1,1,,,1
5f1052ee7e2e472c3723c782,ywwm7wu6rl,Trevor-ex1,1,107,2020-07-17T10:06:00-07:00,9.1624519824982,3,versionC_stim.csv,JOL_SIZE_VersionC.csv,"Large vs small C","Large vs small",WATER,BRIDGE,Study1,B,18,58,Test,User,-,,Recall,Recall1,8374,"Bridge ",100,6788,7454,1,1,,,1
5f1052ee7e2e472c3723c782,ywwm7wu6rl,Trevor-ex1,1,108,2020-07-17T10:06:16-07:00,16.540142059326,3,versionC_stim.csv,JOL_SIZE_VersionC.csv,"Large vs small C","Large vs small",ADD,VALLEY,Study1,U,82,72,Test,User,-,,Recall,Recall1,15892,"Take ",40,9069,14942,0,0,,,1
5f1052ee7e2e472c3723c782,ywwm7wu6rl,Trevor-ex1,1,109,2020-07-17T10:06:23-07:00,6.656063079834,3,versionC_stim.csv,JOL_SIZE_VersionC.csv,"Large vs small C","Large vs small",FAMINE,HUNGER,Study1,F,40,20,Test,User,-,,Recall,Recall1,6021,"Hungry ",83.333333333333,1913,4993,0,1,,,1
5f1052ee7e2e472c3723c782,ywwm7wu6rl,Trevor-ex1,1,110,2020-07-17T10:06:27-07:00,4.2076539993286,3,versionC_stim.csv,JOL_SIZE_VersionC.csv,"Large vs small C","Large vs small",SALAD,LETTUCE,Study1,S,59,45,Test,User,-,,Recall,Recall1,3539,"Lettuce ",100,1784,2631,1,1,,,1
5f1052ee7e2e472c3723c782,ywwm7wu6rl,Trevor-ex1,1,111,2020-07-17T10:06:38-07:00,10.435539007187,3,versionC_stim.csv,JOL_SIZE_VersionC.csv,"Large vs small C","Large vs small",BELT,SOON,Study1,U,70,10,Test,User,-,,Recall,Recall1,9779,,0,-1,-1,0,0,,,1
5f1052ee7e2e472c3723c782,ywwm7wu6rl,Trevor-ex1,1,112,2020-07-17T10:06:47-07:00,9.2242939472198,3,versionC_stim.csv,JOL_SIZE_VersionC.csv,"Large vs small C","Large vs small",BAR,GRILL,Study1,S,52,36,Test,User,-,,Recall,Recall1,8202,"Grill ",100,5691,6552,1,1,,,1
5f1052ee7e2e472c3723c782,ywwm7wu6rl,Trevor-ex1,1,113,2020-07-17T10:07:03-07:00,16.269949913025,3,versionC_stim.csv,JOL_SIZE_VersionC.csv,"Large vs small C","Large vs small",MONEY,WAGE,Study1,B,8,12,Test,User,-,,Recall,Recall1,15584,,0,-1,-1,0,0,,,1
5f1052ee7e2e472c3723c782,ywwm7wu6rl,Trevor-ex1,1,114,2020-07-17T10:07:09-07:00,5.4964411258698,3,versionC_stim.csv,JOL_SIZE_VersionC.csv,"Large vs small C","Large vs small",BEE,HONEY,Study1,S,63,68,Test,User,-,,Recall,Recall1,3703,"Honey ",100,1735,2428,1,1,,,1
5f1052ee7e2e472c3723c782,ywwm7wu6rl,Trevor-ex1,1,115,2020-07-17T10:07:16-07:00,7.6115808486938,3,versionC_stim.csv,JOL_SIZE_VersionC.csv,"Large vs small C","Large vs small",POSITION,MACHINE,Study1,U,76,23,Test,User,-,,Recall,Recall1,6920,,0,-1,-1,0,0,,,1
5f1052ee7e2e472c3723c782,ywwm7wu6rl,Trevor-ex1,1,116,2020-07-17T10:07:24-07:00,7.5772910118103,3,versionC_stim.csv,JOL_SIZE_VersionC.csv,"Large vs small C","Large vs small",LION,ART,Study1,U,79,13,Test,User,-,,Recall,Recall1,7016,,0,-1,-1,0,0,,,1
5f1052ee7e2e472c3723c782,ywwm7wu6rl,Trevor-ex1,1,117,2020-07-17T10:07:29-07:00,5.3273801803589,3,versionC_stim.csv,JOL_SIZE_VersionC.csv,"Large vs small C","Large vs small",HAMMER,CHISEL,Study1,B,9,31,Test,User,-,,Recall,Recall1,3593,"Chisel ",100,1830,2526,1,1,,,1
5f1052ee7e2e472c3723c782,ywwm7wu6rl,Trevor-ex1,1,118,2020-07-17T10:07:34-07:00,5.2220449447632,3,versionC_stim.csv,JOL_SIZE_VersionC.csv,"Large vs small C","Large vs small",BIRD,SWAN,Study1,B,14,43,Test,User,-,,Recall,Recall1,4594,,0,-1,-1,0,0,,,1
5f1052ee7e2e472c3723c782,ywwm7wu6rl,Trevor-ex1,1,119,2020-07-17T10:07:44-07:00,10.03094792366,3,versionC_stim.csv,JOL_SIZE_VersionC.csv,"Large vs small C","Large vs small",FUTURE,PAST,Study1,S,61,27,Test,User,-,,Recall,Recall1,9471,"Past ",100,8018,8595,1,1,,,1
5f1052ee7e2e472c3723c782,ywwm7wu6rl,Trevor-ex1,1,120,2020-07-17T10:07:50-07:00,5.2283890247345,3,versionC_stim.csv,JOL_SIZE_VersionC.csv,"Large vs small C","Large vs small",FLOOR,DISCOVER,Study1,U,71,7,Test,User,-,,Recall,Recall1,4644,,0,-1,-1,0,0,,,1
5f1052ee7e2e472c3723c782,ywwm7wu6rl,Trevor-ex1,1,121,2020-07-17T10:07:54-07:00,4.1989769935608,3,versionC_stim.csv,JOL_SIZE_VersionC.csv,"Large vs small C","Large vs small",DROWSY,SLEEP,Study1,F,41,41,Test,User,-,,Recall,Recall1,3599,"Sleepy ",90.909090909091,1884,2537,0,1,,,1
5f1052ee7e2e472c3723c782,ywwm7wu6rl,Trevor-ex1,1,122,2020-07-17T10:07:58-07:00,3.7849910259247,3,versionC_stim.csv,JOL_SIZE_VersionC.csv,"Large vs small C","Large vs small",PILOT,PLANE,Study1,F,44,19,Test,User,-,,Recall,Recall1,3221,"Plane ",100,1674,2163,1,1,,,1
5f1052ee7e2e472c3723c782,ywwm7wu6rl,Trevor-ex1,1,123,2020-07-17T10:08:04-07:00,6.248694896698,3,versionC_stim.csv,JOL_SIZE_VersionC.csv,"Large vs small C","Large vs small",TUCK,ALLOW,Study1,U,78,40,Test,User,-,,Recall,Recall1,5647,"Stuff ",0,3567,4328,0,0,,,1
5f1052ee7e2e472c3723c782,ywwm7wu6rl,Trevor-ex1,1,124,2020-07-17T10:08:08-07:00,4.4068911075592,3,versionC_stim.csv,JOL_SIZE_VersionC.csv,"Large vs small C","Large vs small",HUNGRY,PARK,Study1,U,68,44,Test,User,-,,Recall,Recall1,3843,"Famine ",20,2215,2963,0,0,,,1
5f1052ee7e2e472c3723c782,ywwm7wu6rl,Trevor-ex1,1,125,2020-07-17T10:08:12-07:00,3.8842968940735,3,versionC_stim.csv,JOL_SIZE_VersionC.csv,"Large vs small C","Large vs small",ACCIDENT,STRONG,Study1,U,80,66,Test,User,-,,Recall,Recall1,3300,,0,-1,-1,0,0,,,1
5f1052ee7e2e472c3723c782,ywwm7wu6rl,Trevor-ex1,1,126,2020-07-17T10:08:16-07:00,3.7922990322113,3,versionC_stim.csv,JOL_SIZE_VersionC.csv,"Large vs small C","Large vs small",CAVE,DARK,Study1,F,28,84,Test,User,-,,Recall,Recall1,3182,"Dark ",100,1750,2367,1,1,,,1
5f1052ee7e2e472c3723c782,ywwm7wu6rl,Trevor-ex1,1,127,2020-07-17T10:08:23-07:00,6.5540840625763,3,versionC_stim.csv,JOL_SIZE_VersionC.csv,"Large vs small C","Large vs small",BAD,DELINQUENT,Study1,B,6,49,Test,User,-,,Recall,Recall1,5939,,0,3058,3589,0,0,,,1
5f1052ee7e2e472c3723c782,ywwm7wu6rl,Trevor-ex1,1,128,2020-07-17T10:08:26-07:00,3.7886710166931,3,versionC_stim.csv,JOL_SIZE_VersionC.csv,"Large vs small C","Large vs small",BLAZE,FIRE,Study1,F,45,46,Test,User,-,,Recall,Recall1,3134,"Fire ",100,1828,2310,1,1,,,1
5f1052ee7e2e472c3723c782,ywwm7wu6rl,Trevor-ex1,1,129,2020-07-17T10:08:30-07:00,3.5825190544128,3,versionC_stim.csv,JOL_SIZE_VersionC.csv,"Large vs small C","Large vs small",CHILD,BABY,Study1,S,64,61,Test,User,-,,Recall,Recall1,2998,"Baby ",100,1683,2189,1,1,,,1
5f1052ee7e2e472c3723c782,ywwm7wu6rl,Trevor-ex1,1,130,2020-07-17T10:08:35-07:00,4.7102570533752,3,versionC_stim.csv,JOL_SIZE_VersionC.csv,"Large vs small C","Large vs small",CHORE,WORK,Study1,F,39,52,Test,User,-,,Recall,Recall1,4122,Work,100,2002,2414,1,1,,,1
5f1052ee7e2e472c3723c782,ywwm7wu6rl,Trevor-ex1,1,131,2020-07-17T10:08:41-07:00,6.0247049331665,3,versionC_stim.csv,JOL_SIZE_VersionC.csv,"Large vs small C","Large vs small",CHILI,HOT,Study1,F,37,37,Test,User,-,,Recall,Recall1,4282,"Hot ",100,3084,3445,1,1,,,1
5f1052ee7e2e472c3723c782,ywwm7wu6rl,Trevor-ex1,1,132,2020-07-17T10:08:46-07:00,4.9331748485565,3,versionC_stim.csv,JOL_SIZE_VersionC.csv,"Large vs small C","Large vs small",STENCH,SMELL,Study1,F,42,42,Test,User,-,,Recall,Recall1,4212,"Smell ",100,2363,2904,1,1,,,1
5f1052ee7e2e472c3723c782,ywwm7wu6rl,Trevor-ex1,1,133,2020-07-17T10:08:53-07:00,6.967826128006,3,versionC_stim.csv,JOL_SIZE_VersionC.csv,"Large vs small C","Large vs small",CHEESE,WINE,Study1,S,57,79,Test,User,-,,Recall,Recall1,6397,,0,-1,-1,0,0,,,1
5f1052ee7e2e472c3723c782,ywwm7wu6rl,Trevor-ex1,1,134,2020-07-17T10:08:57-07:00,4.1943919658661,3,versionC_stim.csv,JOL_SIZE_VersionC.csv,"Large vs small C","Large vs small",DIVISION,MATH,Study1,F,33,69,Test,User,-,,Recall,Recall1,3532,"Math ",100,1975,2504,1,1,,,1
5f1052ee7e2e472c3723c782,ywwm7wu6rl,Trevor-ex1,1,135,2020-07-17T10:09:01-07:00,3.7931411266327,3,versionC_stim.csv,JOL_SIZE_VersionC.csv,"Large vs small C","Large vs small",LIVER,KIDNEY,Study1,S,53,55,Test,User,-,,Recall,Recall1,3190,"Kidney ",100,1666,2347,1,1,,,1
5f1052ee7e2e472c3723c782,ywwm7wu6rl,Trevor-ex1,1,136,2020-07-17T10:09:05-07:00,3.9911539554596,3,versionC_stim.csv,JOL_SIZE_VersionC.csv,"Large vs small C","Large vs small",WOMAN,LIFT,Study1,U,69,22,Test,User,-,,Recall,Recall1,3434,"Lift ",100,2105,2678,1,1,,,1
5f1052ee7e2e472c3723c782,ywwm7wu6rl,Trevor-ex1,1,137,2020-07-17T10:09:17-07:00,12.693698883057,3,versionC_stim.csv,JOL_SIZE_VersionC.csv,"Large vs small C","Large vs small",WASTE,DUMP,Study1,S,49,76,Test,User,-,,Recall,Recall1,12068,"Trash ",0,9955,11272,0,0,,,1
5f1052ee7e2e472c3723c782,ywwm7wu6rl,Trevor-ex1,1,138,2020-07-17T10:09:25-07:00,7.3750791549683,3,versionC_stim.csv,JOL_SIZE_VersionC.csv,"Large vs small C","Large vs small",DESIGN,ARCHITECTURE,Study1,S,51,64,Test,User,-,,Recall,Recall1,6714,"Architecture ",100,1520,4531,1,1,,,1
5f1052ee7e2e472c3723c782,ywwm7wu6rl,Trevor-ex1,1,139,2020-07-17T10:09:29-07:00,4.7083699703217,3,versionC_stim.csv,JOL_SIZE_VersionC.csv,"Large vs small C","Large vs small",SITE,LOCATION,Study1,S,48,25,Test,User,-,,Recall,Recall1,4145,"Building ",25,2153,3150,0,0,,,1
5f1052ee7e2e472c3723c782,ywwm7wu6rl,Trevor-ex1,1,140,2020-07-17T10:09:48-07:00,18.842756986618,3,versionC_stim.csv,JOL_SIZE_VersionC.csv,"Large vs small C","Large vs small",SIGHT,DEBATE,Study1,U,73,53,Test,User,-,,Recall,Recall1,18248,,0,-1,-1,0,0,,,1
5f1052ee7e2e472c3723c782,ywwm7wu6rl,Trevor-ex1,1,141,2020-07-17T10:09:53-07:00,4.5076138973236,3,versionC_stim.csv,JOL_SIZE_VersionC.csv,"Large vs small C","Large vs small",HAND,FIX,Study1,U,75,67,Test,User,-,,Recall,Recall1,3940,"Finger ",44.444444444444,2301,3019,0,0,,,1
5f1052ee7e2e472c3723c782,ywwm7wu6rl,Trevor-ex1,1,142,2020-07-17T10:09:56-07:00,3.7883141040802,3,versionC_stim.csv,JOL_SIZE_VersionC.csv,"Large vs small C","Large vs small",STOMACH,DIGESTION,Study1,B,7,74,Test,User,-,,Recall,Recall1,3155,,0,-1,-1,0,0,,,1
5f1052ee7e2e472c3723c782,ywwm7wu6rl,Trevor-ex1,1,143,2020-07-17T10:09:59-07:00,2.2514979839325,3,versionC_stim.csv,JOL_SIZE_VersionC.csv,"Large vs small C","Large vs small",BRONZE,ARTERY,Study1,U,74,71,Test,User,-,,Recall,Recall1,1710,,0,-1,-1,0,0,,,1
5f1052ee7e2e472c3723c782,ywwm7wu6rl,Trevor-ex1,1,144,2020-07-17T10:10:04-07:00,5.0161619186401,3,versionC_stim.csv,JOL_SIZE_VersionC.csv,"Large vs small C","Large vs small",RACKET,BALL,Study1,F,38,39,Test,User,-,,Recall,Recall1,4432,"Ball ",100,2092,2571,1,1,,,1
5f1052ee7e2e472c3723c782,ywwm7wu6rl,Trevor-ex1,1,145,2020-07-17T10:10:10-07:00,5.854926109314,3,versionC_stim.csv,JOL_SIZE_VersionC.csv,"Large vs small C","Large vs small",COLD,BITTER,Study1,B,12,32,Test,User,-,,Recall,Recall1,5272,"Bitter ",100,1679,4494,1,1,,,1
5f1052ee7e2e472c3723c782,ywwm7wu6rl,Trevor-ex1,1,146,2020-07-17T10:10:14-07:00,4.1799728870392,3,versionC_stim.csv,JOL_SIZE_VersionC.csv,"Large vs small C","Large vs small",DEFINITION,MEANING,Study1,S,62,77,Test,User,-,,Recall,Recall1,3581,"Meaning ",100,1976,2725,1,1,,,1
5f1052ee7e2e472c3723c782,ywwm7wu6rl,Trevor-ex1,1,147,2020-07-17T10:10:17-07:00,3.3819320201874,3,versionC_stim.csv,JOL_SIZE_VersionC.csv,"Large vs small C","Large vs small",FISH,TUNA,Study1,B,25,48,Test,User,-,,Recall,Recall1,2799,"Tuna ",100,1481,1969,1,1,,,1
5f1052ee7e2e472c3723c782,ywwm7wu6rl,Trevor-ex1,1,148,2020-07-17T10:10:26-07:00,9.0223951339722,3,versionC_stim.csv,JOL_SIZE_VersionC.csv,"Large vs small C","Large vs small",END,BEGIN,Study1,S,54,70,Test,User,-,,Recall,Recall1,5220,"Begin ",100,2713,3378,1,1,,,1
5f1052ee7e2e472c3723c782,ywwm7wu6rl,Trevor-ex1,1,149,2020-07-17T10:10:31-07:00,4.9117379188538,3,versionC_stim.csv,JOL_SIZE_VersionC.csv,"Large vs small C","Large vs small",CARD,CREDIT,Study1,B,23,73,Test,User,-,,Recall,Recall1,4281,"Credit ",100,2262,3150,1,1,,,1
5f1052ee7e2e472c3723c782,ywwm7wu6rl,Trevor-ex1,1,150,2020-07-17T10:10:35-07:00,4.1993980407715,3,versionC_stim.csv,JOL_SIZE_VersionC.csv,"Large vs small C","Large vs small",JURY,TRIAL,Study1,S,50,54,Test,User,-,,Recall,Recall1,3549,"Trial ",100,1719,2381,1,1,,,1
5f1052ee7e2e472c3723c782,ywwm7wu6rl,Trevor-ex1,1,151,2020-07-17T10:10:58-07:00,22.417968034744,3,versionC_stim.csv,JOL_SIZE_VersionC.csv,"Large vs small C","Large vs small",FOOT,SHOE,Study1,S,60,63,Test,User,-,,Recall,Recall1,21754,,0,19922,19923,0,0,,,1
5f1052ee7e2e472c3723c782,ywwm7wu6rl,Trevor-ex1,1,152,2020-07-17T10:11:01-07:00,3.3784649372101,3,versionC_stim.csv,JOL_SIZE_VersionC.csv,"Large vs small C","Large vs small",BUSINESS,DEATH,Study1,U,72,17,Test,User,-,,Recall,Recall1,2798,,0,-1,-1,0,0,,,1
5f1052ee7e2e472c3723c782,ywwm7wu6rl,Trevor-ex1,1,153,2020-07-17T10:11:06-07:00,4.6079480648041,3,versionC_stim.csv,JOL_SIZE_VersionC.csv,"Large vs small C","Large vs small",WIND,BLOW,Study1,S,55,56,Test,User,-,,Recall,Recall1,3970,"Blow ",100,2191,3071,1,1,,,1
5f1052ee7e2e472c3723c782,ywwm7wu6rl,Trevor-ex1,1,154,2020-07-17T10:11:12-07:00,6.3491218090057,3,versionC_stim.csv,JOL_SIZE_VersionC.csv,"Large vs small C","Large vs small",COW,HERD,Study1,B,22,51,Test,User,-,,Recall,Recall1,5763,"Herd ",100,1751,4926,1,1,,,1
5f1052ee7e2e472c3723c782,ywwm7wu6rl,Trevor-ex1,1,155,2020-07-17T10:11:18-07:00,5.6366751194,3,versionC_stim.csv,JOL_SIZE_VersionC.csv,"Large vs small C","Large vs small",WAR,REVOLUTION,Study1,B,20,38,Test,User,-,,Recall,Recall1,5054,"Revolution ",100,2676,3976,1,1,,,1
5f1052ee7e2e472c3723c782,ywwm7wu6rl,Trevor-ex1,1,156,2020-07-17T10:11:23-07:00,5.6268770694733,3,versionC_stim.csv,JOL_SIZE_VersionC.csv,"Large vs small C","Large vs small",PLANT,ROOT,Study1,B,13,21,Test,User,-,,Recall,Recall1,5089,"Flower ",20,3608,4281,0,0,,,1
5f1052ee7e2e472c3723c782,ywwm7wu6rl,Trevor-ex1,1,157,2020-07-17T10:11:31-07:00,7.9877557754517,3,versionC_stim.csv,JOL_SIZE_VersionC.csv,"Large vs small C","Large vs small",SODA,POP,Study1,S,56,9,Test,User,-,,Recall,Recall1,7395,Pop,100,4774,6553,1,1,,,1
5f1052ee7e2e472c3723c782,ywwm7wu6rl,Trevor-ex1,1,158,2020-07-17T10:11:35-07:00,4.1004390716553,3,versionC_stim.csv,JOL_SIZE_VersionC.csv,"Large vs small C","Large vs small",STING,HORNET,Study1,B,11,18,Test,User,-,,Recall,Recall1,3484,"Hornet ",100,1882,2673,1,1,,,1
5f1052ee7e2e472c3723c782,ywwm7wu6rl,Trevor-ex1,1,159,2020-07-17T10:11:41-07:00,5.6282870769501,3,versionC_stim.csv,JOL_SIZE_VersionC.csv,"Large vs small C","Large vs small",CAR,HAPPY,Study1,U,77,75,Test,User,-,,Recall,Recall1,5070,"Wheel ",20,2764,3283,0,0,,,1
5f1052ee7e2e472c3723c782,ywwm7wu6rl,Trevor-ex1,1,160,2020-07-17T10:11:50-07:00,8.9071800708771,3,versionC_stim.csv,JOL_SIZE_VersionC.csv,"Large vs small C","Large vs small",DOG,PAW,Study1,B,15,82,Test,User,-,,Recall,Recall1,8275,Cat,33.333333333333,7175,7476,0,0,,,1
5f1052ee7e2e472c3723c782,ywwm7wu6rl,Trevor-ex1,1,161,2020-07-17T10:11:54-07:00,4.4034450054169,3,versionC_stim.csv,JOL_SIZE_VersionC.csv,"Large vs small C","Large vs small",FANTASTIC,GREAT,Study1,F,35,59,Test,User,-,,Recall,Recall1,3806,"Great ",100,2273,2966,1,1,,,1
5f1052ee7e2e472c3723c782,ywwm7wu6rl,Trevor-ex1,1,162,2020-07-17T10:11:59-07:00,4.8161578178406,3,versionC_stim.csv,JOL_SIZE_VersionC.csv,"Large vs small C","Large vs small",SACKING,DIETARY,Study1,U,67,28,Test,User,-,,Recall,Recall1,4259,,0,-1,-1,0,0,,,1
5f1052ee7e2e472c3723c782,ywwm7wu6rl,Trevor-ex1,1,163,2020-07-17T10:12:16-07:00,16.689268112183,3,versionC_stim.csv,JOL_SIZE_VersionC.csv,"Large vs small C","Large vs small",WASP,BUG,Study1,F,32,65,Test,User,-,,Recall,Recall1,16088,"Sting ",25,1704,15257,0,0,,,1
5f1052ee7e2e472c3723c782,ywwm7wu6rl,Trevor-ex1,1,164,2020-07-17T10:12:24-07:00,7.680860042572,3,versionC_stim.csv,JOL_SIZE_VersionC.csv,"Large vs small C","Large vs small",SICK,HIDE,Study1,U,84,8,Test,User,-,,Recall,Recall1,7131,,0,-1,-1,0,0,,,1
5f1052ee7e2e472c3723c782,ywwm7wu6rl,Trevor-ex1,1,165,2020-07-17T10:12:28-07:00,3.9953038692474,3,versionC_stim.csv,JOL_SIZE_VersionC.csv,"Large vs small C","Large vs small",ATTORNEY,LAW,Study1,F,34,47,Test,User,-,,Recall,Recall1,3372,Law,100,2178,2473,1,1,,,1
5f1052ee7e2e472c3723c782,ywwm7wu6rl,Trevor-ex1,1,166,2020-07-17T10:12:32-07:00,4.5005691051483,3,versionC_stim.csv,JOL_SIZE_VersionC.csv,"Large vs small C","Large vs small",ATTIRE,CLOTHES,Study1,F,43,60,Test,User,-,,Recall,Recall1,3493,"Clothes ",100,1633,2387,1,1,,,1
5f1052ee7e2e472c3723c782,ywwm7wu6rl,Trevor-ex1,1,167,2020-07-17T10:12:37-07:00,5.0318160057068,3,versionC_stim.csv,JOL_SIZE_VersionC.csv,"Large vs small C","Large vs small",TALK,DISCUSSION,Study1,B,21,83,Test,User,-,,Recall,Recall1,4462,"Chat ",14.285714285714,3147,3652,0,0,,,1
5f1052ee7e2e472c3723c782,ywwm7wu6rl,Trevor-ex1,1,168,2020-07-17T10:12:43-07:00,5.7281768321991,3,versionC_stim.csv,JOL_SIZE_VersionC.csv,"Large vs small C","Large vs small",FLOWER,ORCHID,Study1,B,24,26,Test,User,-,,Recall,Recall1,5107,"Plant ",0,3839,4342,0,0,,,1
5f1052ee7e2e472c3723c782,ywwm7wu6rl,Trevor-ex1,1,169,2020-07-17T10:12:47-07:00,4.2048439979553,3,versionC_stim.csv,JOL_SIZE_VersionC.csv,"Large vs small C","Large vs small",GROWTH,HEIGHT,Study1,F,30,80,Test,User,-,,Recall,Recall1,3530,"Height ",100,2066,2682,1,1,,,1
5f1052ee7e2e472c3723c782,ywwm7wu6rl,Trevor-ex1,1,170,2020-07-17T10:12:51-07:00,4.2890322208405,3,versionC_stim.csv,JOL_SIZE_VersionC.csv,"Large vs small C","Large vs small",NEWS,EDITOR,Study1,B,10,62,Test,User,-,,Recall,Recall1,3663,"Article ",15.384615384615,1915,2707,0,0,,,1
5f1052ee7e2e472c3723c782,ywwm7wu6rl,Trevor-ex1,1,171,2020-07-17T10:13:01-07:00,9.5233957767487,3,versionC_stim.csv,JOL_SIZE_VersionC.csv,"Large vs small C","Large vs small",OUT,WAY,Study1,B,16,29,Test,User,-,,Recall,Recall1,8881,"Go ",0,7581,8088,0,0,,,1
5f1052ee7e2e472c3723c782,ywwm7wu6rl,Trevor-ex1,1,172,2020-07-17T10:13:06-07:00,5.5274991989136,3,versionC_stim.csv,JOL_SIZE_VersionC.csv,"Large vs small C","Large vs small",WOULD,CASH,Study1,U,83,14,Test,User,-,,Recall,Recall1,4892,,0,-1,-1,0,0,,,1
5f1052ee7e2e472c3723c782,ywwm7wu6rl,Trevor-ex1,1,173,2020-07-17T10:13:11-07:00,4.3056797981262,3,versionC_stim.csv,JOL_SIZE_VersionC.csv,"Large vs small C","Large vs small",RIDDLE,SUGAR,Study1,U,81,57,Test,User,-,,Recall,Recall1,3735,"Poem ",0,2475,2917,0,0,,,1
5f1052ee7e2e472c3723c782,ywwm7wu6rl,Trevor-ex1,1,174,2020-07-17T10:13:14-07:00,3.379723072052,3,versionC_stim.csv,JOL_SIZE_VersionC.csv,"Large vs small C","Large vs small",LATCH,KEY,Study1,F,36,50,Test,User,-,,Recall,Recall1,2819,"Key ",100,1709,2116,1,1,,,1
5f1052ee7e2e472c3723c782,ywwm7wu6rl,Trevor-ex1,1,175,2020-07-17T10:13:18-07:00,4.2957849502563,3,versionC_stim.csv,JOL_SIZE_VersionC.csv,"Large vs small C","Large vs small",SIP,DRINK,Study1,F,27,86,Test,User,-,,Recall,Recall1,3751,"Drink ",100,2129,2800,1,1,,,1
5f1052ee7e2e472c3723c782,ywwm7wu6rl,Trevor-ex1,1,176,2020-07-17T10:13:22-07:00,4.0976731777191,3,versionC_stim.csv,JOL_SIZE_VersionC.csv,"Large vs small C","Large vs small",AMOUNT,NUMBER,Study1,S,47,33,Test,User,-,,Recall,Recall1,3491,"Money ",36.363636363636,1975,2595,0,0,,,1
5f1052ee7e2e472c3723c782,ywwm7wu6rl,Trevor-ex1,1,177,2020-07-17T10:13:27-07:00,4.7101628780365,3,versionC_stim.csv,JOL_SIZE_VersionC.csv,"Large vs small C","Large vs small",CLUTTER,PUSHER,Study1,U,66,81,Test,User,-,,Recall,Recall1,4122,"Mess ",20,1733,2247,0,0,,,1
5f1052ee7e2e472c3723c782,ywwm7wu6rl,Trevor-ex1,1,178,2020-07-17T10:13:32-07:00,5.0191659927368,3,versionC_stim.csv,JOL_SIZE_VersionC.csv,"Large vs small C","Large vs small",VASE,KING,Study1,U,85,16,Test,User,-,,Recall,Recall1,4451,"Flower ",0,2891,3602,0,0,,,1
5f1052ee7e2e472c3723c782,ywwm7wu6rl,Trevor-ex1,1,179,2020-07-17T10:13:46-07:00,13.513199090958,3,versionC_stim.csv,JOL_SIZE_VersionC.csv,"Large vs small C","Large vs small",,,,,,0,Instruct,-,10,"You will now be presented with a new set of word pairs. Please study each pair. Remember that your memory will be tested! When finished, press Enter to move to the next pair.",Initial_Instruct,Instruct4,12970,,,-1,-1,,,,,1
5f1052ee7e2e472c3723c782,ywwm7wu6rl,Trevor-ex1,1,180,2020-07-17T10:13:58-07:00,12.089657068253,3,versionC_stim.csv,JOL_SIZE_VersionC.csv,"Large vs small C","Large vs small",,,,,,0,Instruct,,10,"You will again be asked to rate your ability to remember these items using a 0 to 100 scale. Remember to use the full range of the scale!",,Instruct10,11464,,,-1,-1,,,,,1
5f1052ee7e2e472c3723c782,ywwm7wu6rl,Trevor-ex1,1,181,2020-07-17T10:14:00-07:00,1.8388979434967,3,versionC_stim.csv,JOL_SIZE_VersionC.csv,"Large vs small C","Large vs small",,,,,,0,Instruct,User,-,"Press Enter when you are readty to begin",,Instruct11,1286,,,-1,-1,,,,,1
5f1052ee7e2e472c3723c782,ywwm7wu6rl,Trevor-ex1,1,182,2020-07-17T10:14:06-07:00,6.0477828979492,3,versionC_stim.csv,JOL_SIZE_VersionC.csv,"Large vs small C","Large vs small",FROZEN,ICE,BUFFER3,Buffer,94,92,JOL_Small,User,-,"How likely are you to correctly recall the second item in the pair?|Type your response on a scale from 0-100 and then press Enter.",Study/JOL,BUFFER3,5508,,,4566,4795,,,,70,1
5f1052ee7e2e472c3723c782,ywwm7wu6rl,Trevor-ex1,1,183,2020-07-17T10:14:10-07:00,3.9884660243988,3,versionC_stim.csv,JOL_SIZE_VersionC.csv,"Large vs small C","Large vs small",ADVENTURE,CAMP,BUFFER3,Buffer,95,95,JOL_Large,User,-,"How likely are you to correctly recall the second item in the pair?|Type your response on a scale from 0-100 and then press Enter.",Study/JOL,BUFFER3,3439,,,2387,2677,,,,50,1
5f1052ee7e2e472c3723c782,ywwm7wu6rl,Trevor-ex1,1,184,2020-07-17T10:14:18-07:00,8.1907510757446,3,versionC_stim.csv,JOL_SIZE_VersionC.csv,"Large vs small C","Large vs small",FISH,SHRIMP,BUFFER3,Buffer,93,94,JOL_Small,User,-,"How likely are you to correctly recall the second item in the pair?|Type your response on a scale from 0-100 and then press Enter.",Study/JOL,BUFFER3,7606,,,3273,6892,,,,45,1
5f1052ee7e2e472c3723c782,ywwm7wu6rl,Trevor-ex1,1,185,2020-07-17T10:14:23-07:00,5.4272139072418,3,versionC_stim.csv,JOL_SIZE_VersionC.csv,"Large vs small C","Large vs small",POTATO,CARROT,BUFFER3,Buffer,91,93,JOL_Small,User,-,"How likely are you to correctly recall the second item in the pair?|Type your response on a scale from 0-100 and then press Enter.",Study/JOL,BUFFER3,4819,,,3979,4096,,,,55,1
5f1052ee7e2e472c3723c782,ywwm7wu6rl,Trevor-ex1,1,186,2020-07-17T10:14:29-07:00,5.531229019165,3,versionC_stim.csv,JOL_SIZE_VersionC.csv,"Large vs small C","Large vs small",STRING,NOODLE,BUFFER3,Buffer,92,96,JOL_Large,User,-,"How likely are you to correctly recall the second item in the pair?|Type your response on a scale from 0-100 and then press Enter.",Study/JOL,BUFFER3,4936,,,3913,4169,,,,42,1
5f1052ee7e2e472c3723c782,ywwm7wu6rl,Trevor-ex1,1,187,2020-07-17T10:14:35-07:00,6.5323879718781,3,versionC_stim.csv,JOL_SIZE_VersionC.csv,"Large vs small C","Large vs small",GROUND,EARTH,Study2,S,144,156,JOL_Small,User,-,"How likely are you to correctly recall the second item in the pair?|Type your response on a scale from 0-100 and then press Enter.",Study/JOL,"Study Phase2",4869,,,3676,4049,,,,52,1
5f1052ee7e2e472c3723c782,ywwm7wu6rl,Trevor-ex1,1,188,2020-07-17T10:14:40-07:00,4.3205721378326,3,versionC_stim.csv,JOL_SIZE_VersionC.csv,"Large vs small C","Large vs small",LOVE,AFFECTION,Study2,B,115,112,JOL_Large,User,-,"How likely are you to correctly recall the second item in the pair?|Type your response on a scale from 0-100 and then press Enter.",Study/JOL,"Study Phase2",3586,,,2543,2828,,,,57,1
5f1052ee7e2e472c3723c782,ywwm7wu6rl,Trevor-ex1,1,189,2020-07-17T10:14:44-07:00,4.5110177993774,3,versionC_stim.csv,JOL_SIZE_VersionC.csv,"Large vs small C","Large vs small",LONG,EXTENSION,Study2,B,96,105,JOL_Large,User,-,"How likely are you to correctly recall the second item in the pair?|Type your response on a scale from 0-100 and then press Enter.",Study/JOL,"Study Phase2",3896,,,2896,3134,,,,35,1
5f1052ee7e2e472c3723c782,ywwm7wu6rl,Trevor-ex1,1,190,2020-07-17T10:14:49-07:00,4.4018890857697,3,versionC_stim.csv,JOL_SIZE_VersionC.csv,"Large vs small C","Large vs small",CLOTHES,CAKE,Study2,U,166,157,JOL_Small,User,-,"How likely are you to correctly recall the second item in the pair?|Type your response on a scale from 0-100 and then press Enter.",Study/JOL,"Study Phase2",3843,,,2443,3072,,,,25,1
5f1052ee7e2e472c3723c782,ywwm7wu6rl,Trevor-ex1,1,191,2020-07-17T10:14:54-07:00,5.5288190841675,3,versionC_stim.csv,JOL_SIZE_VersionC.csv,"Large vs small C","Large vs small",WINDSHIELD,CAR,Study2,F,117,99,JOL_Large,User,-,"How likely are you to correctly recall the second item in the pair?|Type your response on a scale from 0-100 and then press Enter.",Study/JOL,"Study Phase2",4905,,,3219,4165,,,,75,1
5f1052ee7e2e472c3723c782,ywwm7wu6rl,Trevor-ex1,1,192,2020-07-17T10:14:59-07:00,4.608717918396,3,versionC_stim.csv,JOL_SIZE_VersionC.csv,"Large vs small C","Large vs small",ACTRESS,STAR,Study2,F,120,166,JOL_Small,User,-,"How likely are you to correctly recall the second item in the pair?|Type your response on a scale from 0-100 and then press Enter.",Study/JOL,"Study Phase2",4017,,,2650,3191,,,,60,1
5f1052ee7e2e472c3723c782,ywwm7wu6rl,Trevor-ex1,1,193,2020-07-17T10:15:16-07:00,17.507653951645,3,versionC_stim.csv,JOL_SIZE_VersionC.csv,"Large vs small C","Large vs small",ABLE,CRACKLE,Study2,U,162,146,JOL_Small,User,-,"How likely are you to correctly recall the second item in the pair?|Type your response on a scale from 0-100 and then press Enter.",Study/JOL,"Study Phase2",16904,,,15691,15944,,,,15,0.837
5f1052ee7e2e472c3723c782,ywwm7wu6rl,Trevor-ex1,1,194,2020-07-17T10:15:22-07:00,5.9407250881195,3,versionC_stim.csv,JOL_SIZE_VersionC.csv,"Large vs small C","Large vs small",CHILDREN,MIRROR,Study2,U,174,164,JOL_Small,User,-,"How likely are you to correctly recall the second item in the pair?|Type your response on a scale from 0-100 and then press Enter.",Study/JOL,"Study Phase2",5315,,,4318,4575,,,,15,1
5f1052ee7e2e472c3723c782,ywwm7wu6rl,Trevor-ex1,1,195,2020-07-17T10:15:27-07:00,4.9172239303589,3,versionC_stim.csv,JOL_SIZE_VersionC.csv,"Large vs small C","Large vs small",CUT,CHOP,Study2,B,107,113,JOL_Large,User,-,"How likely are you to correctly recall the second item in the pair?|Type your response on a scale from 0-100 and then press Enter.",Study/JOL,"Study Phase2",4272,,,3313,3548,,,,68,1
5f1052ee7e2e472c3723c782,ywwm7wu6rl,Trevor-ex1,1,196,2020-07-17T10:15:32-07:00,4.9172430038452,3,versionC_stim.csv,JOL_SIZE_VersionC.csv,"Large vs small C","Large vs small",STEAK,GIVE,Study2,U,158,147,JOL_Small,User,-,"How likely are you to correctly recall the second item in the pair?|Type your response on a scale from 0-100 and then press Enter.",Study/JOL,"Study Phase2",4316,,,3398,3573,,,,45,1
5f1052ee7e2e472c3723c782,ywwm7wu6rl,Trevor-ex1,1,197,2020-07-17T10:15:36-07:00,4.3981990814209,3,versionC_stim.csv,JOL_SIZE_VersionC.csv,"Large vs small C","Large vs small",TRASH,LITTER,Study2,B,103,163,JOL_Small,User,-,"How likely are you to correctly recall the second item in the pair?|Type your response on a scale from 0-100 and then press Enter.",Study/JOL,"Study Phase2",3835,,,2860,3089,,,,80,1
5f1052ee7e2e472c3723c782,ywwm7wu6rl,Trevor-ex1,1,198,2020-07-17T10:15:43-07:00,6.5572938919067,3,versionC_stim.csv,JOL_SIZE_VersionC.csv,"Large vs small C","Large vs small",CAR,DRIVER,Study2,B,106,110,JOL_Large,User,-,"How likely are you to correctly recall the second item in the pair?|Type your response on a scale from 0-100 and then press Enter.",Study/JOL,"Study Phase2",6019,,,5102,5227,,,,55,1
5f1052ee7e2e472c3723c782,ywwm7wu6rl,Trevor-ex1,1,199,2020-07-17T10:15:47-07:00,4.2999031543732,3,versionC_stim.csv,JOL_SIZE_VersionC.csv,"Large vs small C","Large vs small",LONELY,ALONE,Study2,S,145,173,JOL_Small,User,-,"How likely are you to correctly recall the second item in the pair?|Type your response on a scale from 0-100 and then press Enter.",Study/JOL,"Study Phase2",3772,,,2852,3033,,,,80,1
5f1052ee7e2e472c3723c782,ywwm7wu6rl,Trevor-ex1,1,200,2020-07-17T10:15:52-07:00,5.0186758041382,3,versionC_stim.csv,JOL_SIZE_VersionC.csv,"Large vs small C","Large vs small",BRACELET,WRIST,Study2,S,140,150,JOL_Small,User,-,"How likely are you to correctly recall the second item in the pair?|Type your response on a scale from 0-100 and then press Enter.",Study/JOL,"Study Phase2",4435,,,3522,3687,,,,65,1
5f1052ee7e2e472c3723c782,ywwm7wu6rl,Trevor-ex1,1,201,2020-07-17T10:15:56-07:00,3.5807571411133,3,versionC_stim.csv,JOL_SIZE_VersionC.csv,"Large vs small C","Large vs small",EQUAL,RIGHTS,Study2,S,137,141,JOL_Small,User,-,"How likely are you to correctly recall the second item in the pair?|Type your response on a scale from 0-100 and then press Enter.",Study/JOL,"Study Phase2",2992,,,2129,2313,,,,89,1
5f1052ee7e2e472c3723c782,ywwm7wu6rl,Trevor-ex1,1,202,2020-07-17T10:16:00-07:00,3.7896418571472,3,versionC_stim.csv,JOL_SIZE_VersionC.csv,"Large vs small C","Large vs small",BANG,FUZZY,Study2,U,168,168,JOL_Small,User,-,"How likely are you to correctly recall the second item in the pair?|Type your response on a scale from 0-100 and then press Enter.",Study/JOL,"Study Phase2",3231,,,2347,2547,,,,25,1
5f1052ee7e2e472c3723c782,ywwm7wu6rl,Trevor-ex1,1,203,2020-07-17T10:16:09-07:00,9.4227130413055,3,versionC_stim.csv,JOL_SIZE_VersionC.csv,"Large vs small C","Large vs small",MORNING,TEMPERATURE,Study2,U,173,131,JOL_Large,User,-,"How likely are you to correctly recall the second item in the pair?|Type your response on a scale from 0-100 and then press Enter.",Study/JOL,"Study Phase2",8809,,,6149,7749,,,,30,1
5f1052ee7e2e472c3723c782,ywwm7wu6rl,Trevor-ex1,1,204,2020-07-17T10:16:15-07:00,5.7332229614258,3,versionC_stim.csv,JOL_SIZE_VersionC.csv,"Large vs small C","Large vs small",BANKER,MONEY,Study2,F,132,171,JOL_Small,User,-,"How likely are you to correctly recall the second item in the pair?|Type your response on a scale from 0-100 and then press Enter.",Study/JOL,"Study Phase2",5180,,,2931,4453,,,,55,1
5f1052ee7e2e472c3723c782,ywwm7wu6rl,Trevor-ex1,1,205,2020-07-17T10:16:21-07:00,6.4518082141876,3,versionC_stim.csv,JOL_SIZE_VersionC.csv,"Large vs small C","Large vs small",JAR,MASON,Study2,S,138,106,JOL_Large,User,-,"How likely are you to correctly recall the second item in the pair?|Type your response on a scale from 0-100 and then press Enter.",Study/JOL,"Study Phase2",5781,,,4781,5011,,,,70,1
5f1052ee7e2e472c3723c782,ywwm7wu6rl,Trevor-ex1,1,206,2020-07-17T10:16:28-07:00,6.5561618804932,3,versionC_stim.csv,JOL_SIZE_VersionC.csv,"Large vs small C","Large vs small",HAVE,OWN,Study2,S,153,152,JOL_Small,User,-,"How likely are you to correctly recall the second item in the pair?|Type your response on a scale from 0-100 and then press Enter.",Study/JOL,"Study Phase2",5966,,,3158,5129,,,,50,1
5f1052ee7e2e472c3723c782,ywwm7wu6rl,Trevor-ex1,1,207,2020-07-17T10:16:32-07:00,4.706207036972,3,versionC_stim.csv,JOL_SIZE_VersionC.csv,"Large vs small C","Large vs small",FAVORITE,BEST,Study2,F,125,123,JOL_Large,User,-,"How likely are you to correctly recall the second item in the pair?|Type your response on a scale from 0-100 and then press Enter.",Study/JOL,"Study Phase2",4120,,,2821,3371,,,,62,1
5f1052ee7e2e472c3723c782,ywwm7wu6rl,Trevor-ex1,1,208,2020-07-17T10:16:38-07:00,5.4294509887695,3,versionC_stim.csv,JOL_SIZE_VersionC.csv,"Large vs small C","Large vs small",STRAWBERRY,FRUIT,Study2,F,124,167,JOL_Small,User,-,"How likely are you to correctly recall the second item in the pair?|Type your response on a scale from 0-100 and then press Enter.",Study/JOL,"Study Phase2",4805,,,3630,4078,,,,72,1
5f1052ee7e2e472c3723c782,ywwm7wu6rl,Trevor-ex1,1,209,2020-07-17T10:16:43-07:00,4.8123540878296,3,versionC_stim.csv,JOL_SIZE_VersionC.csv,"Large vs small C","Large vs small",NAP,SLEEP,Study2,F,134,145,JOL_Small,User,-,"How likely are you to correctly recall the second item in the pair?|Type your response on a scale from 0-100 and then press Enter.",Study/JOL,"Study Phase2",4227,,,2493,3369,,,,85,1
5f1052ee7e2e472c3723c782,ywwm7wu6rl,Trevor-ex1,1,210,2020-07-17T10:16:48-07:00,5.530553817749,3,versionC_stim.csv,JOL_SIZE_VersionC.csv,"Large vs small C","Large vs small",JOKE,KEYS,Study2,U,165,144,JOL_Small,User,-,"How likely are you to correctly recall the second item in the pair?|Type your response on a scale from 0-100 and then press Enter.",Study/JOL,"Study Phase2",4945,,,2075,4175,,,,17,1
5f1052ee7e2e472c3723c782,ywwm7wu6rl,Trevor-ex1,1,211,2020-07-17T10:16:54-07:00,5.5290729999542,3,versionC_stim.csv,JOL_SIZE_VersionC.csv,"Large vs small C","Large vs small",BALLOON,POP,Study2,F,123,119,JOL_Large,User,-,"How likely are you to correctly recall the second item in the pair?|Type your response on a scale from 0-100 and then press Enter.",Study/JOL,"Study Phase2",4899,,,3567,4048,,,,60,1
5f1052ee7e2e472c3723c782,ywwm7wu6rl,Trevor-ex1,1,212,2020-07-17T10:16:58-07:00,4.2992789745331,3,versionC_stim.csv,JOL_SIZE_VersionC.csv,"Large vs small C","Large vs small",ELECTION,MAZE,Study2,U,159,128,JOL_Large,User,-,"How likely are you to correctly recall the second item in the pair?|Type your response on a scale from 0-100 and then press Enter.",Study/JOL,"Study Phase2",3707,,,2664,2948,,,,15,1
5f1052ee7e2e472c3723c782,ywwm7wu6rl,Trevor-ex1,1,213,2020-07-17T10:17:03-07:00,5.1225671768188,3,versionC_stim.csv,JOL_SIZE_VersionC.csv,"Large vs small C","Large vs small",SMELL,INCENSE,Study2,B,110,121,JOL_Large,User,-,"How likely are you to correctly recall the second item in the pair?|Type your response on a scale from 0-100 and then press Enter.",Study/JOL,"Study Phase2",4569,,,3643,3815,,,,45,1
5f1052ee7e2e472c3723c782,ywwm7wu6rl,Trevor-ex1,1,214,2020-07-17T10:17:09-07:00,5.628536939621,3,versionC_stim.csv,JOL_SIZE_VersionC.csv,"Large vs small C","Large vs small",GAME,CLUE,Study2,B,97,132,JOL_Large,User,-,"How likely are you to correctly recall the second item in the pair?|Type your response on a scale from 0-100 and then press Enter.",Study/JOL,"Study Phase2",4998,,,2682,4186,,,,47,1
5f1052ee7e2e472c3723c782,ywwm7wu6rl,Trevor-ex1,1,215,2020-07-17T10:17:14-07:00,4.7102808952332,3,versionC_stim.csv,JOL_SIZE_VersionC.csv,"Large vs small C","Large vs small",SHAKE,SHELL,Study2,U,163,160,JOL_Small,User,-,"How likely are you to correctly recall the second item in the pair?|Type your response on a scale from 0-100 and then press Enter.",Study/JOL,"Study Phase2",4123,,,3170,3360,,,,45,1
5f1052ee7e2e472c3723c782,ywwm7wu6rl,Trevor-ex1,1,216,2020-07-17T10:17:18-07:00,4.7142250537872,3,versionC_stim.csv,JOL_SIZE_VersionC.csv,"Large vs small C","Large vs small",SCISSORS,SHEARS,Study2,B,112,143,JOL_Small,User,-,"How likely are you to correctly recall the second item in the pair?|Type your response on a scale from 0-100 and then press Enter.",Study/JOL,"Study Phase2",4087,,,3079,3308,,,,55,1
5f1052ee7e2e472c3723c782,ywwm7wu6rl,Trevor-ex1,1,217,2020-07-17T10:17:27-07:00,8.8086719512939,3,versionC_stim.csv,JOL_SIZE_VersionC.csv,"Large vs small C","Large vs small",FIGHT,FEUD,Study2,B,113,135,JOL_Large,User,-,"How likely are you to correctly recall the second item in the pair?|Type your response on a scale from 0-100 and then press Enter.",Study/JOL,"Study Phase2",8159,,,7065,7398,,,,50,1
5f1052ee7e2e472c3723c782,ywwm7wu6rl,Trevor-ex1,1,218,2020-07-17T10:17:32-07:00,4.8101811408997,3,versionC_stim.csv,JOL_SIZE_VersionC.csv,"Large vs small C","Large vs small",REEL,ROD,Study2,S,150,154,JOL_Small,User,-,"How likely are you to correctly recall the second item in the pair?|Type your response on a scale from 0-100 and then press Enter.",Study/JOL,"Study Phase2",4196,,,2964,3348,,,,50,1
5f1052ee7e2e472c3723c782,ywwm7wu6rl,Trevor-ex1,1,219,2020-07-17T10:17:36-07:00,4.6078310012817,3,versionC_stim.csv,JOL_SIZE_VersionC.csv,"Large vs small C","Large vs small",FICTION,LISTEN,Study2,U,164,100,JOL_Large,User,-,"How likely are you to correctly recall the second item in the pair?|Type your response on a scale from 0-100 and then press Enter.",Study/JOL,"Study Phase2",4040,,,2991,3330,,,,25,1
5f1052ee7e2e472c3723c782,ywwm7wu6rl,Trevor-ex1,1,220,2020-07-17T10:17:49-07:00,12.903580904007,3,versionC_stim.csv,JOL_SIZE_VersionC.csv,"Large vs small C","Large vs small",MYSTERY,DETECTIVE,Study2,B,100,172,JOL_Small,User,-,"How likely are you to correctly recall the second item in the pair?|Type your response on a scale from 0-100 and then press Enter.",Study/JOL,"Study Phase2",12322,,,11227,11490,,,,57,1
5f1052ee7e2e472c3723c782,ywwm7wu6rl,Trevor-ex1,1,221,2020-07-17T10:18:10-07:00,20.274217128754,3,versionC_stim.csv,JOL_SIZE_VersionC.csv,"Large vs small C","Large vs small",THIMBLE,THREAD,Study2,F,121,162,JOL_Small,User,-,"How likely are you to correctly recall the second item in the pair?|Type your response on a scale from 0-100 and then press Enter.",Study/JOL,"Study Phase2",19627,,,18590,18796,,,,65,1
5f1052ee7e2e472c3723c782,ywwm7wu6rl,Trevor-ex1,1,222,2020-07-17T10:18:14-07:00,4.5187258720398,3,versionC_stim.csv,JOL_SIZE_VersionC.csv,"Large vs small C","Large vs small",COLD,CHILL,Study2,B,114,159,JOL_Small,User,-,"How likely are you to correctly recall the second item in the pair?|Type your response on a scale from 0-100 and then press Enter.",Study/JOL,"Study Phase2",3982,,,3072,3201,,,,55,1
5f1052ee7e2e472c3723c782,ywwm7wu6rl,Trevor-ex1,1,223,2020-07-17T10:18:18-07:00,4.2891681194305,3,versionC_stim.csv,JOL_SIZE_VersionC.csv,"Large vs small C","Large vs small",SCAR,MAIN,Study2,U,175,104,JOL_Large,User,-,"How likely are you to correctly recall the second item in the pair?|Type your response on a scale from 0-100 and then press Enter.",Study/JOL,"Study Phase2",3738,,,2536,2995,,,,15,1
5f1052ee7e2e472c3723c782,ywwm7wu6rl,Trevor-ex1,1,224,2020-07-17T10:18:24-07:00,5.2207670211792,3,versionC_stim.csv,JOL_SIZE_VersionC.csv,"Large vs small C","Large vs small",WET,DRY,Study2,S,146,133,JOL_Large,User,-,"How likely are you to correctly recall the second item in the pair?|Type your response on a scale from 0-100 and then press Enter.",Study/JOL,"Study Phase2",4625,,,3675,3913,,,,79,1
5f1052ee7e2e472c3723c782,ywwm7wu6rl,Trevor-ex1,1,225,2020-07-17T10:18:29-07:00,5.4332959651947,3,versionC_stim.csv,JOL_SIZE_VersionC.csv,"Large vs small C","Large vs small",SEATBELT,SAFETY,Study2,S,147,101,JOL_Large,User,-,"How likely are you to correctly recall the second item in the pair?|Type your response on a scale from 0-100 and then press Enter.",Study/JOL,"Study Phase2",4806,,,3662,4056,,,,69,1
5f1052ee7e2e472c3723c782,ywwm7wu6rl,Trevor-ex1,1,226,2020-07-17T10:18:36-07:00,6.4468278884888,3,versionC_stim.csv,JOL_SIZE_VersionC.csv,"Large vs small C","Large vs small",RED,CHERRY,Study2,B,104,109,JOL_Large,User,-,"How likely are you to correctly recall the second item in the pair?|Type your response on a scale from 0-100 and then press Enter.",Study/JOL,"Study Phase2",5851,,,4415,4883,,,,63,1
5f1052ee7e2e472c3723c782,ywwm7wu6rl,Trevor-ex1,1,227,2020-07-17T10:18:43-07:00,7.1652240753174,3,versionC_stim.csv,JOL_SIZE_VersionC.csv,"Large vs small C","Large vs small",PENGUIN,BIRD,Study2,F,119,130,JOL_Large,User,-,"How likely are you to correctly recall the second item in the pair?|Type your response on a scale from 0-100 and then press Enter.",Study/JOL,"Study Phase2",6538,,,5608,5824,,,,70,1
5f1052ee7e2e472c3723c782,ywwm7wu6rl,Trevor-ex1,1,228,2020-07-17T10:18:47-07:00,4.7118799686432,3,versionC_stim.csv,JOL_SIZE_VersionC.csv,"Large vs small C","Large vs small",LEAGUE,BASEBALL,Study2,F,131,151,JOL_Small,User,-,"How likely are you to correctly recall the second item in the pair?|Type your response on a scale from 0-100 and then press Enter.",Study/JOL,"Study Phase2",4078,,,3141,3295,,,,45,1
5f1052ee7e2e472c3723c782,ywwm7wu6rl,Trevor-ex1,1,229,2020-07-17T10:18:52-07:00,4.7099039554596,3,versionC_stim.csv,JOL_SIZE_VersionC.csv,"Large vs small C","Large vs small",EAT,DINE,Study2,B,111,153,JOL_Small,User,-,"How likely are you to correctly recall the second item in the pair?|Type your response on a scale from 0-100 and then press Enter.",Study/JOL,"Study Phase2",4092,,,2923,3359,,,,58,1
5f1052ee7e2e472c3723c782,ywwm7wu6rl,Trevor-ex1,1,230,2020-07-17T10:18:58-07:00,6.2460300922394,3,versionC_stim.csv,JOL_SIZE_VersionC.csv,"Large vs small C","Large vs small",CARBON,ELEMENT,Study2,S,141,149,JOL_Small,User,-,"How likely are you to correctly recall the second item in the pair?|Type your response on a scale from 0-100 and then press Enter.",Study/JOL,"Study Phase2",5631,,,4476,4927,,,,35,1
5f1052ee7e2e472c3723c782,ywwm7wu6rl,Trevor-ex1,1,231,2020-07-17T10:19:02-07:00,4.1012399196625,3,versionC_stim.csv,JOL_SIZE_VersionC.csv,"Large vs small C","Large vs small",FLIP,TURN,Study2,F,116,103,JOL_Large,User,-,"How likely are you to correctly recall the second item in the pair?|Type your response on a scale from 0-100 and then press Enter.",Study/JOL,"Study Phase2",3518,,,2437,2714,,,,60,1
5f1052ee7e2e472c3723c782,ywwm7wu6rl,Trevor-ex1,1,232,2020-07-17T10:19:07-07:00,4.4038519859314,3,versionC_stim.csv,JOL_SIZE_VersionC.csv,"Large vs small C","Large vs small",PANTHER,CAT,Study2,F,126,138,JOL_Small,User,-,"How likely are you to correctly recall the second item in the pair?|Type your response on a scale from 0-100 and then press Enter.",Study/JOL,"Study Phase2",3777,,,2686,3061,,,,65,1
5f1052ee7e2e472c3723c782,ywwm7wu6rl,Trevor-ex1,1,233,2020-07-17T10:19:14-07:00,7.0602180957794,3,versionC_stim.csv,JOL_SIZE_VersionC.csv,"Large vs small C","Large vs small",PLANT,CACTUS,Study2,B,98,116,JOL_Large,User,-,"How likely are you to correctly recall the second item in the pair?|Type your response on a scale from 0-100 and then press Enter.",Study/JOL,"Study Phase2",5400,,,4412,4727,,,,65,1
5f1052ee7e2e472c3723c782,ywwm7wu6rl,Trevor-ex1,1,234,2020-07-17T10:19:20-07:00,6.2503809928894,3,versionC_stim.csv,JOL_SIZE_VersionC.csv,"Large vs small C","Large vs small",COFFIN,DEAD,Study2,F,128,161,JOL_Small,User,-,"How likely are you to correctly recall the second item in the pair?|Type your response on a scale from 0-100 and then press Enter.",Study/JOL,"Study Phase2",5608,,,4510,4871,,,,85,1
5f1052ee7e2e472c3723c782,ywwm7wu6rl,Trevor-ex1,1,235,2020-07-17T10:19:24-07:00,3.993047952652,3,versionC_stim.csv,JOL_SIZE_VersionC.csv,"Large vs small C","Large vs small",TAN,SUN,Study2,S,155,107,JOL_Large,User,-,"How likely are you to correctly recall the second item in the pair?|Type your response on a scale from 0-100 and then press Enter.",Study/JOL,"Study Phase2",3438,,,2284,2663,,,,85,1
5f1052ee7e2e472c3723c782,ywwm7wu6rl,Trevor-ex1,1,236,2020-07-17T10:19:30-07:00,5.327220916748,3,versionC_stim.csv,JOL_SIZE_VersionC.csv,"Large vs small C","Large vs small",WAX,CANDLE,Study2,S,139,158,JOL_Small,User,-,"How likely are you to correctly recall the second item in the pair?|Type your response on a scale from 0-100 and then press Enter.",Study/JOL,"Study Phase2",4685,,,3691,3956,,,,75,1
5f1052ee7e2e472c3723c782,ywwm7wu6rl,Trevor-ex1,1,237,2020-07-17T10:19:34-07:00,4.9109961986542,3,versionC_stim.csv,JOL_SIZE_VersionC.csv,"Large vs small C","Large vs small",LIE,TRUTH,Study2,S,148,148,JOL_Small,User,-,"How likely are you to correctly recall the second item in the pair?|Type your response on a scale from 0-100 and then press Enter.",Study/JOL,"Study Phase2",4326,,,2519,3495,,,,80,1
5f1052ee7e2e472c3723c782,ywwm7wu6rl,Trevor-ex1,1,238,2020-07-17T10:19:38-07:00,3.7897639274597,3,versionC_stim.csv,JOL_SIZE_VersionC.csv,"Large vs small C","Large vs small",TOIL,LEASE,Study2,U,170,129,JOL_Large,User,-,"How likely are you to correctly recall the second item in the pair?|Type your response on a scale from 0-100 and then press Enter.",Study/JOL,"Study Phase2",3187,,,2081,2407,,,,15,1
5f1052ee7e2e472c3723c782,ywwm7wu6rl,Trevor-ex1,1,239,2020-07-17T10:19:45-07:00,7.0393278598785,3,versionC_stim.csv,JOL_SIZE_VersionC.csv,"Large vs small C","Large vs small",PAPER,DOCUMENT,Study2,B,109,98,JOL_Large,User,-,"How likely are you to correctly recall the second item in the pair?|Type your response on a scale from 0-100 and then press Enter.",Study/JOL,"Study Phase2",5478,,,3517,4721,,,,65,1
5f1052ee7e2e472c3723c782,ywwm7wu6rl,Trevor-ex1,1,240,2020-07-17T10:19:55-07:00,10.162830114365,3,versionC_stim.csv,JOL_SIZE_VersionC.csv,"Large vs small C","Large vs small",TRUTHFUL,HONEST,Study2,F,133,117,JOL_Large,User,-,"How likely are you to correctly recall the second item in the pair?|Type your response on a scale from 0-100 and then press Enter.",Study/JOL,"Study Phase2",9540,,,7559,7679,,,,55,1
5f1052ee7e2e472c3723c782,ywwm7wu6rl,Trevor-ex1,1,241,2020-07-17T10:20:01-07:00,5.3268671035767,3,versionC_stim.csv,JOL_SIZE_VersionC.csv,"Large vs small C","Large vs small",CLOTH,STRETCH,Study2,U,157,142,JOL_Small,User,-,"How likely are you to correctly recall the second item in the pair?|Type your response on a scale from 0-100 and then press Enter.",Study/JOL,"Study Phase2",4748,,,3557,3956,,,,40,1
5f1052ee7e2e472c3723c782,ywwm7wu6rl,Trevor-ex1,1,242,2020-07-17T10:20:07-07:00,6.0403568744659,3,versionC_stim.csv,JOL_SIZE_VersionC.csv,"Large vs small C","Large vs small",OUNCE,BOTH,Study2,U,172,176,JOL_Small,User,-,"How likely are you to correctly recall the second item in the pair?|Type your response on a scale from 0-100 and then press Enter.",Study/JOL,"Study Phase2",5423,,,3755,4356,,,,24,1
5f1052ee7e2e472c3723c782,ywwm7wu6rl,Trevor-ex1,1,243,2020-07-17T10:20:16-07:00,8.8068199157715,3,versionC_stim.csv,JOL_SIZE_VersionC.csv,"Large vs small C","Large vs small",TIE,SHOELACE,Study2,B,99,127,JOL_Large,User,-,"How likely are you to correctly recall the second item in the pair?|Type your response on a scale from 0-100 and then press Enter.",Study/JOL,"Study Phase2",8190,,,2813,7428,,,,85,1
5f1052ee7e2e472c3723c782,ywwm7wu6rl,Trevor-ex1,1,244,2020-07-17T10:20:20-07:00,3.9926950931549,3,versionC_stim.csv,JOL_SIZE_VersionC.csv,"Large vs small C","Large vs small",DRINK,WATER,Study2,S,143,122,JOL_Large,User,-,"How likely are you to correctly recall the second item in the pair?|Type your response on a scale from 0-100 and then press Enter.",Study/JOL,"Study Phase2",3375,,,2262,2662,,,,75,1
5f1052ee7e2e472c3723c782,ywwm7wu6rl,Trevor-ex1,1,245,2020-07-17T10:20:28-07:00,8.808788061142,3,versionC_stim.csv,JOL_SIZE_VersionC.csv,"Large vs small C","Large vs small",SARDINE,FISH,Study2,F,130,139,JOL_Small,User,-,"How likely are you to correctly recall the second item in the pair?|Type your response on a scale from 0-100 and then press Enter.",Study/JOL,"Study Phase2",8227,,,7035,7262,,,,65,1
5f1052ee7e2e472c3723c782,ywwm7wu6rl,Trevor-ex1,1,246,2020-07-17T10:20:33-07:00,4.5118010044098,3,versionC_stim.csv,JOL_SIZE_VersionC.csv,"Large vs small C","Large vs small",DOG,FURRY,Study2,B,102,165,JOL_Small,User,-,"How likely are you to correctly recall the second item in the pair?|Type your response on a scale from 0-100 and then press Enter.",Study/JOL,"Study Phase2",3905,,,3024,3186,,,,65,1
5f1052ee7e2e472c3723c782,ywwm7wu6rl,Trevor-ex1,1,247,2020-07-17T10:20:44-07:00,11.175040006638,3,versionC_stim.csv,JOL_SIZE_VersionC.csv,"Large vs small C","Large vs small",BRAWL,FIGHT,Study2,F,135,136,JOL_Large,User,-,"How likely are you to correctly recall the second item in the pair?|Type your response on a scale from 0-100 and then press Enter.",Study/JOL,"Study Phase2",10651,,,4920,9868,,,,70,1
5f1052ee7e2e472c3723c782,ywwm7wu6rl,Trevor-ex1,1,248,2020-07-17T10:20:51-07:00,7.2526068687439,3,versionC_stim.csv,JOL_SIZE_VersionC.csv,"Large vs small C","Large vs small",HATE,NAME,Study2,U,167,174,JOL_Small,User,-,"How likely are you to correctly recall the second item in the pair?|Type your response on a scale from 0-100 and then press Enter.",Study/JOL,"Study Phase2",6702,,,5705,5996,,,,35,1
5f1052ee7e2e472c3723c782,ywwm7wu6rl,Trevor-ex1,1,249,2020-07-17T10:20:55-07:00,3.8889770507812,3,versionC_stim.csv,JOL_SIZE_VersionC.csv,"Large vs small C","Large vs small",NOISE,LOUD,Study2,S,152,126,JOL_Large,User,-,"How likely are you to correctly recall the second item in the pair?|Type your response on a scale from 0-100 and then press Enter.",Study/JOL,"Study Phase2",3278,,,2359,2598,,,,80,1
5f1052ee7e2e472c3723c782,ywwm7wu6rl,Trevor-ex1,1,250,2020-07-17T10:20:59-07:00,4.1985120773315,3,versionC_stim.csv,JOL_SIZE_VersionC.csv,"Large vs small C","Large vs small",TICK,FLEA,Study2,S,151,124,JOL_Large,User,-,"How likely are you to correctly recall the second item in the pair?|Type your response on a scale from 0-100 and then press Enter.",Study/JOL,"Study Phase2",3640,,,2367,2962,,,,75,1
5f1052ee7e2e472c3723c782,ywwm7wu6rl,Trevor-ex1,1,251,2020-07-17T10:21:08-07:00,8.0918579101562,3,versionC_stim.csv,JOL_SIZE_VersionC.csv,"Large vs small C","Large vs small",OBTAIN,MEAT,Study2,U,161,111,JOL_Large,User,-,"How likely are you to correctly recall the second item in the pair?|Type your response on a scale from 0-100 and then press Enter.",Study/JOL,"Study Phase2",7527,,,4928,5347,,,,20,1
5f1052ee7e2e472c3723c782,ywwm7wu6rl,Trevor-ex1,1,252,2020-07-17T10:21:13-07:00,5.4366071224213,3,versionC_stim.csv,JOL_SIZE_VersionC.csv,"Large vs small C","Large vs small",AWAY,GONE,Study2,S,142,155,JOL_Small,User,-,"How likely are you to correctly recall the second item in the pair?|Type your response on a scale from 0-100 and then press Enter.",Study/JOL,"Study Phase2",3780,,,2968,3093,,,,55,1
5f1052ee7e2e472c3723c782,ywwm7wu6rl,Trevor-ex1,1,253,2020-07-17T10:21:19-07:00,6.2338240146637,3,versionC_stim.csv,JOL_SIZE_VersionC.csv,"Large vs small C","Large vs small",TEMPER,TANTRUM,Study2,S,154,114,JOL_Large,User,-,"How likely are you to correctly recall the second item in the pair?|Type your response on a scale from 0-100 and then press Enter.",Study/JOL,"Study Phase2",5617,,,2314,2755,,,,80,1
5f1052ee7e2e472c3723c782,ywwm7wu6rl,Trevor-ex1,1,254,2020-07-17T10:21:23-07:00,4.195720911026,3,versionC_stim.csv,JOL_SIZE_VersionC.csv,"Large vs small C","Large vs small",END,ADJOURN,Study2,B,101,170,JOL_Small,User,-,"How likely are you to correctly recall the second item in the pair?|Type your response on a scale from 0-100 and then press Enter.",Study/JOL,"Study Phase2",3583,,,2292,2670,,,,15,1
5f1052ee7e2e472c3723c782,ywwm7wu6rl,Trevor-ex1,1,255,2020-07-17T10:21:28-07:00,4.4033250808716,3,versionC_stim.csv,JOL_SIZE_VersionC.csv,"Large vs small C","Large vs small",HEAD,SCALP,Study2,B,105,169,JOL_Small,User,-,"How likely are you to correctly recall the second item in the pair?|Type your response on a scale from 0-100 and then press Enter.",Study/JOL,"Study Phase2",3762,,,2249,2649,,,,40,1
5f1052ee7e2e472c3723c782,ywwm7wu6rl,Trevor-ex1,1,256,2020-07-17T10:21:33-07:00,5.3316848278046,3,versionC_stim.csv,JOL_SIZE_VersionC.csv,"Large vs small C","Large vs small",SIGN,LOAN,Study2,U,171,137,JOL_Small,User,-,"How likely are you to correctly recall the second item in the pair?|Type your response on a scale from 0-100 and then press Enter.",Study/JOL,"Study Phase2",4695,,,3716,3979,,,,40,1
5f1052ee7e2e472c3723c782,ywwm7wu6rl,Trevor-ex1,1,257,2020-07-17T10:21:45-07:00,11.676907062531,3,versionC_stim.csv,JOL_SIZE_VersionC.csv,"Large vs small C","Large vs small",VILLAIN,BAD,Study2,F,118,115,JOL_Large,User,-,"How likely are you to correctly recall the second item in the pair?|Type your response on a scale from 0-100 and then press Enter.",Study/JOL,"Study Phase2",11110,,,9380,10219,,,,70,1
5f1052ee7e2e472c3723c782,ywwm7wu6rl,Trevor-ex1,1,258,2020-07-17T10:21:52-07:00,7.0592129230499,3,versionC_stim.csv,JOL_SIZE_VersionC.csv,"Large vs small C","Large vs small",COMMUNICATION,PHONE,Study2,S,149,125,JOL_Large,User,-,"How likely are you to correctly recall the second item in the pair?|Type your response on a scale from 0-100 and then press Enter.",Study/JOL,"Study Phase2",6484,,,5342,5531,,,,65,1
5f1052ee7e2e472c3723c782,ywwm7wu6rl,Trevor-ex1,1,259,2020-07-17T10:21:57-07:00,5.2515501976013,3,versionC_stim.csv,JOL_SIZE_VersionC.csv,"Large vs small C","Large vs small",REVENGE,EVEN,Study2,F,122,118,JOL_Large,User,-,"How likely are you to correctly recall the second item in the pair?|Type your response on a scale from 0-100 and then press Enter.",Study/JOL,"Study Phase2",4349,,,2413,2787,,,,30,1
5f1052ee7e2e472c3723c782,ywwm7wu6rl,Trevor-ex1,1,260,2020-07-17T10:22:04-07:00,6.5297780036926,3,versionC_stim.csv,JOL_SIZE_VersionC.csv,"Large vs small C","Large vs small",CHARM,VEHICLE,Study2,U,160,102,JOL_Large,User,-,"How likely are you to correctly recall the second item in the pair?|Type your response on a scale from 0-100 and then press Enter.",Study/JOL,"Study Phase2",5914,,,4638,4912,,,,40,1
5f1052ee7e2e472c3723c782,ywwm7wu6rl,Trevor-ex1,1,261,2020-07-17T10:22:07-07:00,3.8632919788361,3,versionC_stim.csv,JOL_SIZE_VersionC.csv,"Large vs small C","Large vs small",SHAVE,RAZOR,Study2,S,136,108,JOL_Large,User,-,"How likely are you to correctly recall the second item in the pair?|Type your response on a scale from 0-100 and then press Enter.",Study/JOL,"Study Phase2",3252,,,2262,2466,,,,80,1
5f1052ee7e2e472c3723c782,ywwm7wu6rl,Trevor-ex1,1,262,2020-07-17T10:22:11-07:00,3.811194896698,3,versionC_stim.csv,JOL_SIZE_VersionC.csv,"Large vs small C","Large vs small",BREAKABLE,GLASS,Study2,F,127,97,JOL_Large,User,-,"How likely are you to correctly recall the second item in the pair?|Type your response on a scale from 0-100 and then press Enter.",Study/JOL,"Study Phase2",3184,,,2185,2411,,,,70,1
5f1052ee7e2e472c3723c782,ywwm7wu6rl,Trevor-ex1,1,263,2020-07-17T10:22:15-07:00,4.0946629047394,3,versionC_stim.csv,JOL_SIZE_VersionC.csv,"Large vs small C","Large vs small",MAROON,JUSTICE,Study2,U,156,120,JOL_Large,User,-,"How likely are you to correctly recall the second item in the pair?|Type your response on a scale from 0-100 and then press Enter.",Study/JOL,"Study Phase2",3208,,,2075,2441,,,,25,1
5f1052ee7e2e472c3723c782,ywwm7wu6rl,Trevor-ex1,1,264,2020-07-17T10:22:19-07:00,3.9950242042542,3,versionC_stim.csv,JOL_SIZE_VersionC.csv,"Large vs small C","Large vs small",AIRCRAFT,PLANE,Study2,F,129,140,JOL_Small,User,-,"How likely are you to correctly recall the second item in the pair?|Type your response on a scale from 0-100 and then press Enter.",Study/JOL,"Study Phase2",3395,,,2305,2519,,,,80,1
5f1052ee7e2e472c3723c782,ywwm7wu6rl,Trevor-ex1,1,265,2020-07-17T10:22:24-07:00,4.3032419681549,3,versionC_stim.csv,JOL_SIZE_VersionC.csv,"Large vs small C","Large vs small",DONKEY,MULE,Study2,B,108,134,JOL_Large,User,-,"How likely are you to correctly recall the second item in the pair?|Type your response on a scale from 0-100 and then press Enter.",Study/JOL,"Study Phase2",3696,,,2358,2875,,,,20,1
5f1052ee7e2e472c3723c782,ywwm7wu6rl,Trevor-ex1,1,266,2020-07-17T10:22:28-07:00,3.9931669235229,3,versionC_stim.csv,JOL_SIZE_VersionC.csv,"Large vs small C","Large vs small",CLEAR,MOAT,Study2,U,169,175,JOL_Small,User,-,"How likely are you to correctly recall the second item in the pair?|Type your response on a scale from 0-100 and then press Enter.",Study/JOL,"Study Phase2",3488,,,2227,2770,,,,15,1
5f1052ee7e2e472c3723c782,ywwm7wu6rl,Trevor-ex1,1,267,2020-07-17T10:22:33-07:00,5.0149819850922,3,versionC_stim.csv,JOL_SIZE_VersionC.csv,"Large vs small C","Large vs small",YEAR,MONTH,BUFFER4,Buffer,177,181,JOL_Large,User,-,"How likely are you to correctly recall the second item in the pair?|Type your response on a scale from 0-100 and then press Enter.",Study/JOL,BUFFER4,4506,,,2942,3782,,,,65,1
5f1052ee7e2e472c3723c782,ywwm7wu6rl,Trevor-ex1,1,268,2020-07-17T10:22:37-07:00,4.1130509376526,3,versionC_stim.csv,JOL_SIZE_VersionC.csv,"Large vs small C","Large vs small",WEEKS,DAYS,BUFFER4,Buffer,176,178,JOL_Large,User,-,"How likely are you to correctly recall the second item in the pair?|Type your response on a scale from 0-100 and then press Enter.",Study/JOL,BUFFER4,3553,,,1981,2861,,,,65,1
5f1052ee7e2e472c3723c782,ywwm7wu6rl,Trevor-ex1,1,269,2020-07-17T10:22:42-07:00,4.8999121189117,3,versionC_stim.csv,JOL_SIZE_VersionC.csv,"Large vs small C","Large vs small",MARCH,SPRING,BUFFER4,Buffer,179,179,JOL_Small,User,-,"How likely are you to correctly recall the second item in the pair?|Type your response on a scale from 0-100 and then press Enter.",Study/JOL,BUFFER4,4291,,,3206,3533,,,,55,1
5f1052ee7e2e472c3723c782,ywwm7wu6rl,Trevor-ex1,1,270,2020-07-17T10:22:46-07:00,4.3001139163971,3,versionC_stim.csv,JOL_SIZE_VersionC.csv,"Large vs small C","Large vs small",SPOOKY,OCTOBER,BUFFER4,Buffer,180,180,JOL_Small,User,-,"How likely are you to correctly recall the second item in the pair?|Type your response on a scale from 0-100 and then press Enter.",Study/JOL,BUFFER4,3778,,,2853,3037,,,,80,1
5f1052ee7e2e472c3723c782,ywwm7wu6rl,Trevor-ex1,1,271,2020-07-17T10:22:51-07:00,4.7106020450592,3,versionC_stim.csv,JOL_SIZE_VersionC.csv,"Large vs small C","Large vs small",SHED,TOOL,BUFFER4,Buffer,178,177,JOL_Large,User,-,"How likely are you to correctly recall the second item in the pair?|Type your response on a scale from 0-100 and then press Enter.",Study/JOL,BUFFER4,4165,,,3261,3443,,,,80,1
5f1052ee7e2e472c3723c782,ywwm7wu6rl,Trevor-ex1,1,272,2020-07-17T10:22:53-07:00,2.2531719207764,3,versionC_stim.csv,JOL_SIZE_VersionC.csv,"Large vs small C","Large vs small",,,,,,0,Instruct,User,-,"You have completed this section. Please press Enter.",Filler_Instruction,Instruct5,1699,,,-1,-1,,,,,1
5f1052ee7e2e472c3723c782,ywwm7wu6rl,Trevor-ex1,1,273,2020-07-17T10:24:54-07:00,120.52721905708,3,versionC_stim.csv,JOL_SIZE_VersionC.csv,"Large vs small C","Large vs small",,,,,,0,FreeRecall,120,120,"Please list the 50 US states in reverse alphabetical order (z - a). The task will automatically advance to the next screen after two minutes.",,Filler2,120027,"Washington Virginia Utah Texas South Carolina Pensilvania North Carolina Lou",0,16146,119912,0,0,,,1
5f1052ee7e2e472c3723c782,ywwm7wu6rl,Trevor-ex1,1,274,2020-07-17T10:25:06-07:00,12.080747127533,3,versionC_stim.csv,JOL_SIZE_VersionC.csv,"Large vs small C","Large vs small",,,,,,0,Instruct,-,10,"You will now be presented with the first word from each of the previously studied item pairs. Please type the missing word. If you do not know the word, you may guess or press Enter to skip forward to the next pair.",,Instruct6,11533,,,-1,-1,,,,,1
5f1052ee7e2e472c3723c782,ywwm7wu6rl,Trevor-ex1,1,275,2020-07-17T10:25:10-07:00,4.0977809429169,3,versionC_stim.csv,JOL_SIZE_VersionC.csv,"Large vs small C","Large vs small",PENGUIN,BIRD,Study2,F,119,130,Test,User,-,,Recall,Recall2,3473,"Bird ",100,1826,2398,1,1,,,1
5f1052ee7e2e472c3723c782,ywwm7wu6rl,Trevor-ex1,1,276,2020-07-17T10:25:14-07:00,3.8914270401001,3,versionC_stim.csv,JOL_SIZE_VersionC.csv,"Large vs small C","Large vs small",DOG,FURRY,Study2,B,102,165,Test,User,-,,Recall,Recall2,3289,,0,-1,-1,0,0,,,1
5f1052ee7e2e472c3723c782,ywwm7wu6rl,Trevor-ex1,1,277,2020-07-17T10:25:17-07:00,3.481381893158,3,versionC_stim.csv,JOL_SIZE_VersionC.csv,"Large vs small C","Large vs small",GAME,CLUE,Study2,B,97,132,Test,User,-,,Recall,Recall2,2862,,0,-1,-1,0,0,,,1
5f1052ee7e2e472c3723c782,ywwm7wu6rl,Trevor-ex1,1,278,2020-07-17T10:25:21-07:00,3.6881971359253,3,versionC_stim.csv,JOL_SIZE_VersionC.csv,"Large vs small C","Large vs small",STEAK,GIVE,Study2,U,158,147,Test,User,-,,Recall,Recall2,3077,,0,-1,-1,0,0,,,1
