Username,ID,ExperimentName,Session,Trial,Date,TimeDif,"Condition Number","Stimuli File","Order File","Condition Description","Condition Notes",Stimuli*Cue,Stimuli*Answer,Stimuli*Shuffle,"Stimuli*Stimuli Notes",Stimuli*Value,Procedure*Item,"Procedure*Trial Type","Procedure*Max Time","Procedure*Min Time",Procedure*Text,"Procedure*Procedure Notes",Procedure*Shuffle,Response*RT,Response*Response,Response*Accuracy,Response*RTfirst,Response*RTlast,Response*strictAcc,Response*lenientAcc,Response*focus,Response*JOL,Response*Focus
5e948aa20c949c2fff20eabf,41onbatvos,Trevor-ex1,1,1,2020-07-17T09:51:11-07:00,7.4083831310272,4,versionC_stim.csv,JOL_SIZE_VersionD.csv,"Large vs small D","Large vs small",,,,,,0,Instruct,-,5,"In this section, you will be presented with a series of word pairs.",Initial_Instruct,Instruct1,6256,,,-1,-1,,,,,1
5e948aa20c949c2fff20eabf,41onbatvos,Trevor-ex1,1,2,2020-07-17T09:51:32-07:00,21.243669033051,4,versionC_stim.csv,JOL_SIZE_VersionD.csv,"Large vs small D","Large vs small",,,,,,0,Instruct,-,10,"As you study, you will be asked to rate your ability to remember the second item in the pair if you were only shown the first at test. You will make these ratings using a 0 to 100 Scale.",,Instruct13,18733,,,-1,-1,,,,,0.372
5e948aa20c949c2fff20eabf,41onbatvos,Trevor-ex1,1,3,2020-07-17T09:51:53-07:00,20.848250865936,4,versionC_stim.csv,JOL_SIZE_VersionD.csv,"Large vs small D","Large vs small",,,,,,0,Instruct,-,10,"For example, if you are given the pair CAT - DOG, a rating of 0 indicates that you would not remember DOG at test, while a rating of 100 indicates full certainty that you would remember the word DOG at test.",,Instruct14,16874,,,-1,-1,,,,,0
5e948aa20c949c2fff20eabf,41onbatvos,Trevor-ex1,1,4,2020-07-17T09:52:17-07:00,24.16838312149,4,versionC_stim.csv,JOL_SIZE_VersionD.csv,"Large vs small D","Large vs small",,,,,,0,Instruct,-,10,"When making your ratings, it is criticial that you use the full range of the scale. You will be disqualified for only giving ratings of 0 or 100! After making your rating, press Enter to advance to the next pair.",,Instruct15,10790,,,-1,-1,,,,,0.125
5e948aa20c949c2fff20eabf,41onbatvos,Trevor-ex1,1,5,2020-07-17T09:52:22-07:00,5.5740828514099,4,versionC_stim.csv,JOL_SIZE_VersionD.csv,"Large vs small D","Large vs small",,,,,,0,Instruct,User,-,"You will now begin the study. Press Enter when you are ready to begin.",,Instruct16,2110,,,-1,-1,,,,,1
5e948aa20c949c2fff20eabf,41onbatvos,Trevor-ex1,1,6,2020-07-17T09:52:30-07:00,7.0748810768127,4,versionC_stim.csv,JOL_SIZE_VersionD.csv,"Large vs small D","Large vs small",FISH,SHRIMP,BUFFER3,Buffer,93,96,JOL_Large,User,-,"How likely are you to correctly recall the second item in the pair?|Type your response on a scale from 0-100 and then press Enter.",Study/JOL,BUFFER,5494,,,4687,5028,,,,100,1
5e948aa20c949c2fff20eabf,41onbatvos,Trevor-ex1,1,7,2020-07-17T09:52:34-07:00,4.0533239841461,4,versionC_stim.csv,JOL_SIZE_VersionD.csv,"Large vs small D","Large vs small",POTATO,CARROT,BUFFER3,Buffer,91,94,JOL_Small,User,-,"How likely are you to correctly recall the second item in the pair?|Type your response on a scale from 0-100 and then press Enter.",Study/JOL,BUFFER,2951,,,2392,2392,,,,0,1
5e948aa20c949c2fff20eabf,41onbatvos,Trevor-ex1,1,8,2020-07-17T09:52:37-07:00,3.4151711463928,4,versionC_stim.csv,JOL_SIZE_VersionD.csv,"Large vs small D","Large vs small",ADVENTURE,CAMP,BUFFER3,Buffer,95,93,JOL_Small,User,-,"How likely are you to correctly recall the second item in the pair?|Type your response on a scale from 0-100 and then press Enter.",Study/JOL,BUFFER,2711,,,2011,2011,,,,0,1
5e948aa20c949c2fff20eabf,41onbatvos,Trevor-ex1,1,9,2020-07-17T09:52:39-07:00,2.1147119998932,4,versionC_stim.csv,JOL_SIZE_VersionD.csv,"Large vs small D","Large vs small",FROZEN,ICE,BUFFER3,Buffer,94,95,JOL_Large,User,-,"How likely are you to correctly recall the second item in the pair?|Type your response on a scale from 0-100 and then press Enter.",Study/JOL,BUFFER,1495,,,746,1072,,,,100,1
5e948aa20c949c2fff20eabf,41onbatvos,Trevor-ex1,1,10,2020-07-17T09:52:42-07:00,3.2887098789215,4,versionC_stim.csv,JOL_SIZE_VersionD.csv,"Large vs small D","Large vs small",STRING,NOODLE,BUFFER3,Buffer,92,92,JOL_Small,User,-,"How likely are you to correctly recall the second item in the pair?|Type your response on a scale from 0-100 and then press Enter.",Study/JOL,BUFFER,2632,,,1431,1746,,,,100,1
5e948aa20c949c2fff20eabf,41onbatvos,Trevor-ex1,1,11,2020-07-17T09:52:45-07:00,2.9117350578308,4,versionC_stim.csv,JOL_SIZE_VersionD.csv,"Large vs small D","Large vs small",MYSTERY,DETECTIVE,Study2,B,100,125,JOL_Small,User,-,"How likely are you to correctly recall the second item in the pair?|Type your response on a scale from 0-100 and then press Enter.",Study/JOL,"Study Phase",2266,,,1331,1874,,,,100,1
5e948aa20c949c2fff20eabf,41onbatvos,Trevor-ex1,1,12,2020-07-17T09:52:48-07:00,2.5669720172882,4,versionC_stim.csv,JOL_SIZE_VersionD.csv,"Large vs small D","Large vs small",AWAY,GONE,Study2,S,142,132,JOL_Small,User,-,"How likely are you to correctly recall the second item in the pair?|Type your response on a scale from 0-100 and then press Enter.",Study/JOL,"Study Phase",1985,,,1408,1709,,,,100,1
5e948aa20c949c2fff20eabf,41onbatvos,Trevor-ex1,1,13,2020-07-17T09:52:51-07:00,2.8017690181732,4,versionC_stim.csv,JOL_SIZE_VersionD.csv,"Large vs small D","Large vs small",PAPER,DOCUMENT,Study2,B,109,176,JOL_Large,User,-,"How likely are you to correctly recall the second item in the pair?|Type your response on a scale from 0-100 and then press Enter.",Study/JOL,"Study Phase",2095,,,1261,1261,,,,0,1
5e948aa20c949c2fff20eabf,41onbatvos,Trevor-ex1,1,14,2020-07-17T09:52:53-07:00,2.4275648593903,4,versionC_stim.csv,JOL_SIZE_VersionD.csv,"Large vs small D","Large vs small",DRINK,WATER,Study2,S,143,101,JOL_Small,User,-,"How likely are you to correctly recall the second item in the pair?|Type your response on a scale from 0-100 and then press Enter.",Study/JOL,"Study Phase",1684,,,962,1252,,,,100,1
5e948aa20c949c2fff20eabf,41onbatvos,Trevor-ex1,1,15,2020-07-17T09:52:55-07:00,2.0882520675659,4,versionC_stim.csv,JOL_SIZE_VersionD.csv,"Large vs small D","Large vs small",LONELY,ALONE,Study2,S,145,116,JOL_Small,User,-,"How likely are you to correctly recall the second item in the pair?|Type your response on a scale from 0-100 and then press Enter.",Study/JOL,"Study Phase",1454,,,832,1124,,,,100,1
5e948aa20c949c2fff20eabf,41onbatvos,Trevor-ex1,1,16,2020-07-17T09:52:57-07:00,1.9815309047699,4,versionC_stim.csv,JOL_SIZE_VersionD.csv,"Large vs small D","Large vs small",NOISE,LOUD,Study2,S,152,118,JOL_Small,User,-,"How likely are you to correctly recall the second item in the pair?|Type your response on a scale from 0-100 and then press Enter.",Study/JOL,"Study Phase",1350,,,758,1061,,,,100,1
5e948aa20c949c2fff20eabf,41onbatvos,Trevor-ex1,1,17,2020-07-17T09:53:00-07:00,2.4471800327301,4,versionC_stim.csv,JOL_SIZE_VersionD.csv,"Large vs small D","Large vs small",CLOTHES,CAKE,Study2,U,166,136,JOL_Small,User,-,"How likely are you to correctly recall the second item in the pair?|Type your response on a scale from 0-100 and then press Enter.",Study/JOL,"Study Phase",1846,,,1363,1363,,,,0,1
5e948aa20c949c2fff20eabf,41onbatvos,Trevor-ex1,1,18,2020-07-17T09:53:03-07:00,3.688591003418,4,versionC_stim.csv,JOL_SIZE_VersionD.csv,"Large vs small D","Large vs small",HAVE,OWN,Study2,S,153,170,JOL_Large,User,-,"How likely are you to correctly recall the second item in the pair?|Type your response on a scale from 0-100 and then press Enter.",Study/JOL,"Study Phase",2788,,,1119,2454,,,,100,1
5e948aa20c949c2fff20eabf,41onbatvos,Trevor-ex1,1,19,2020-07-17T09:53:07-07:00,3.2190251350403,4,versionC_stim.csv,JOL_SIZE_VersionD.csv,"Large vs small D","Large vs small",PLANT,CACTUS,Study2,B,98,160,JOL_Large,User,-,"How likely are you to correctly recall the second item in the pair?|Type your response on a scale from 0-100 and then press Enter.",Study/JOL,"Study Phase",2253,,,1848,1848,,,,0,1
5e948aa20c949c2fff20eabf,41onbatvos,Trevor-ex1,1,20,2020-07-17T09:53:10-07:00,3.3651609420776,4,versionC_stim.csv,JOL_SIZE_VersionD.csv,"Large vs small D","Large vs small",WINDSHIELD,CAR,Study2,F,117,138,JOL_Large,User,-,"How likely are you to correctly recall the second item in the pair?|Type your response on a scale from 0-100 and then press Enter.",Study/JOL,"Study Phase",2528,,,1863,2185,,,,100,1
5e948aa20c949c2fff20eabf,41onbatvos,Trevor-ex1,1,21,2020-07-17T09:53:15-07:00,4.9963068962097,4,versionC_stim.csv,JOL_SIZE_VersionD.csv,"Large vs small D","Large vs small",CARBON,ELEMENT,Study2,S,141,134,JOL_Small,User,-,"How likely are you to correctly recall the second item in the pair?|Type your response on a scale from 0-100 and then press Enter.",Study/JOL,"Study Phase",4211,,,1319,3822,,,,100,1
5e948aa20c949c2fff20eabf,41onbatvos,Trevor-ex1,1,22,2020-07-17T09:53:18-07:00,2.7564640045166,4,versionC_stim.csv,JOL_SIZE_VersionD.csv,"Large vs small D","Large vs small",CLEAR,MOAT,Study2,U,169,119,JOL_Small,User,-,"How likely are you to correctly recall the second item in the pair?|Type your response on a scale from 0-100 and then press Enter.",Study/JOL,"Study Phase",2022,,,1638,1639,,,,0,1
5e948aa20c949c2fff20eabf,41onbatvos,Trevor-ex1,1,23,2020-07-17T09:53:20-07:00,2.3287861347198,4,versionC_stim.csv,JOL_SIZE_VersionD.csv,"Large vs small D","Large vs small",JAR,MASON,Study2,S,138,161,JOL_Large,User,-,"How likely are you to correctly recall the second item in the pair?|Type your response on a scale from 0-100 and then press Enter.",Study/JOL,"Study Phase",1600,,,1191,1192,,,,0,1
5e948aa20c949c2fff20eabf,41onbatvos,Trevor-ex1,1,24,2020-07-17T09:53:23-07:00,3.1469349861145,4,versionC_stim.csv,JOL_SIZE_VersionD.csv,"Large vs small D","Large vs small",MAROON,JUSTICE,Study2,U,156,122,JOL_Small,User,-,"How likely are you to correctly recall the second item in the pair?|Type your response on a scale from 0-100 and then press Enter.",Study/JOL,"Study Phase",2451,,,1992,1992,,,,0,1
5e948aa20c949c2fff20eabf,41onbatvos,Trevor-ex1,1,25,2020-07-17T09:53:27-07:00,3.4356210231781,4,versionC_stim.csv,JOL_SIZE_VersionD.csv,"Large vs small D","Large vs small",ABLE,CRACKLE,Study2,U,162,131,JOL_Small,User,-,"How likely are you to correctly recall the second item in the pair?|Type your response on a scale from 0-100 and then press Enter.",Study/JOL,"Study Phase",2691,,,1475,1475,,,,0,1
5e948aa20c949c2fff20eabf,41onbatvos,Trevor-ex1,1,26,2020-07-17T09:53:30-07:00,3.5303158760071,4,versionC_stim.csv,JOL_SIZE_VersionD.csv,"Large vs small D","Large vs small",EQUAL,RIGHTS,Study2,S,137,158,JOL_Large,User,-,"How likely are you to correctly recall the second item in the pair?|Type your response on a scale from 0-100 and then press Enter.",Study/JOL,"Study Phase",1733,,,1077,1420,,,,100,1
5e948aa20c949c2fff20eabf,41onbatvos,Trevor-ex1,1,27,2020-07-17T09:53:32-07:00,1.8437740802765,4,versionC_stim.csv,JOL_SIZE_VersionD.csv,"Large vs small D","Large vs small",FLIP,TURN,Study2,F,116,147,JOL_Large,User,-,"How likely are you to correctly recall the second item in the pair?|Type your response on a scale from 0-100 and then press Enter.",Study/JOL,"Study Phase",1237,,,662,995,,,,100,1
5e948aa20c949c2fff20eabf,41onbatvos,Trevor-ex1,1,28,2020-07-17T09:53:34-07:00,1.9414999485016,4,versionC_stim.csv,JOL_SIZE_VersionD.csv,"Large vs small D","Large vs small",WAX,CANDLE,Study2,S,139,127,JOL_Small,User,-,"How likely are you to correctly recall the second item in the pair?|Type your response on a scale from 0-100 and then press Enter.",Study/JOL,"Study Phase",1312,,,767,1065,,,,100,1
5e948aa20c949c2fff20eabf,41onbatvos,Trevor-ex1,1,29,2020-07-17T09:53:36-07:00,2.5372970104218,4,versionC_stim.csv,JOL_SIZE_VersionD.csv,"Large vs small D","Large vs small",LEAGUE,BASEBALL,Study2,F,131,173,JOL_Large,User,-,"How likely are you to correctly recall the second item in the pair?|Type your response on a scale from 0-100 and then press Enter.",Study/JOL,"Study Phase",1825,,,961,1489,,,,100,1
5e948aa20c949c2fff20eabf,41onbatvos,Trevor-ex1,1,30,2020-07-17T09:53:38-07:00,1.9611001014709,4,versionC_stim.csv,JOL_SIZE_VersionD.csv,"Large vs small D","Large vs small",TRUTHFUL,HONEST,Study2,F,133,126,JOL_Small,User,-,"How likely are you to correctly recall the second item in the pair?|Type your response on a scale from 0-100 and then press Enter.",Study/JOL,"Study Phase",1322,,,784,1083,,,,100,1
5e948aa20c949c2fff20eabf,41onbatvos,Trevor-ex1,1,31,2020-07-17T09:53:40-07:00,1.9120519161224,4,versionC_stim.csv,JOL_SIZE_VersionD.csv,"Large vs small D","Large vs small",LIE,TRUTH,Study2,S,148,100,JOL_Small,User,-,"How likely are you to correctly recall the second item in the pair?|Type your response on a scale from 0-100 and then press Enter.",Study/JOL,"Study Phase",1286,,,747,1015,,,,100,1
5e948aa20c949c2fff20eabf,41onbatvos,Trevor-ex1,1,32,2020-07-17T09:53:42-07:00,1.9220390319824,4,versionC_stim.csv,JOL_SIZE_VersionD.csv,"Large vs small D","Large vs small",GROUND,EARTH,Study2,S,144,163,JOL_Large,User,-,"How likely are you to correctly recall the second item in the pair?|Type your response on a scale from 0-100 and then press Enter.",Study/JOL,"Study Phase",1348,,,798,1065,,,,100,1
5e948aa20c949c2fff20eabf,41onbatvos,Trevor-ex1,1,33,2020-07-17T09:53:46-07:00,3.6835989952087,4,versionC_stim.csv,JOL_SIZE_VersionD.csv,"Large vs small D","Large vs small",BREAKABLE,GLASS,Study2,F,127,111,JOL_Small,User,-,"How likely are you to correctly recall the second item in the pair?|Type your response on a scale from 0-100 and then press Enter.",Study/JOL,"Study Phase",2867,,,1372,2352,,,,100,1
5e948aa20c949c2fff20eabf,41onbatvos,Trevor-ex1,1,34,2020-07-17T09:53:48-07:00,2.2659749984741,4,versionC_stim.csv,JOL_SIZE_VersionD.csv,"Large vs small D","Large vs small",AIRCRAFT,PLANE,Study2,F,129,130,JOL_Small,User,-,"How likely are you to correctly recall the second item in the pair?|Type your response on a scale from 0-100 and then press Enter.",Study/JOL,"Study Phase",1519,,,966,1242,,,,100,1
5e948aa20c949c2fff20eabf,41onbatvos,Trevor-ex1,1,35,2020-07-17T09:53:52-07:00,3.3634459972382,4,versionC_stim.csv,JOL_SIZE_VersionD.csv,"Large vs small D","Large vs small",EAT,DINE,Study2,B,111,164,JOL_Large,User,-,"How likely are you to correctly recall the second item in the pair?|Type your response on a scale from 0-100 and then press Enter.",Study/JOL,"Study Phase",2646,,,1044,1311,,,,100,1
5e948aa20c949c2fff20eabf,41onbatvos,Trevor-ex1,1,36,2020-07-17T09:53:56-07:00,4.5714988708496,4,versionC_stim.csv,JOL_SIZE_VersionD.csv,"Large vs small D","Large vs small",GAME,CLUE,Study2,B,97,135,JOL_Small,User,-,"How likely are you to correctly recall the second item in the pair?|Type your response on a scale from 0-100 and then press Enter.",Study/JOL,"Study Phase",3848,,,2529,3418,,,,0,1
5e948aa20c949c2fff20eabf,41onbatvos,Trevor-ex1,1,37,2020-07-17T09:53:58-07:00,2.260733127594,4,versionC_stim.csv,JOL_SIZE_VersionD.csv,"Large vs small D","Large vs small",DONKEY,MULE,Study2,B,108,145,JOL_Large,User,-,"How likely are you to correctly recall the second item in the pair?|Type your response on a scale from 0-100 and then press Enter.",Study/JOL,"Study Phase",1615,,,978,1279,,,,100,1
5e948aa20c949c2fff20eabf,41onbatvos,Trevor-ex1,1,38,2020-07-17T09:54:00-07:00,2.1192479133606,4,versionC_stim.csv,JOL_SIZE_VersionD.csv,"Large vs small D","Large vs small",STRAWBERRY,FRUIT,Study2,F,124,151,JOL_Large,User,-,"How likely are you to correctly recall the second item in the pair?|Type your response on a scale from 0-100 and then press Enter.",Study/JOL,"Study Phase",1439,,,757,1117,,,,100,1
5e948aa20c949c2fff20eabf,41onbatvos,Trevor-ex1,1,39,2020-07-17T09:54:07-07:00,6.0556600093842,4,versionC_stim.csv,JOL_SIZE_VersionD.csv,"Large vs small D","Large vs small",ACTRESS,STAR,Study2,F,120,139,JOL_Large,User,-,"How likely are you to correctly recall the second item in the pair?|Type your response on a scale from 0-100 and then press Enter.",Study/JOL,"Study Phase",5013,,,4262,4647,,,,100,0.833
5e948aa20c949c2fff20eabf,41onbatvos,Trevor-ex1,1,40,2020-07-17T09:54:10-07:00,3.8271939754486,4,versionC_stim.csv,JOL_SIZE_VersionD.csv,"Large vs small D","Large vs small",JOKE,KEYS,Study2,U,165,123,JOL_Small,User,-,"How likely are you to correctly recall the second item in the pair?|Type your response on a scale from 0-100 and then press Enter.",Study/JOL,"Study Phase",2954,,,1654,2424,,,,0,1
5e948aa20c949c2fff20eabf,41onbatvos,Trevor-ex1,1,41,2020-07-17T09:54:14-07:00,3.849659204483,4,versionC_stim.csv,JOL_SIZE_VersionD.csv,"Large vs small D","Large vs small",BANKER,MONEY,Study2,F,132,146,JOL_Large,User,-,"How likely are you to correctly recall the second item in the pair?|Type your response on a scale from 0-100 and then press Enter.",Study/JOL,"Study Phase",2475,,,1765,2144,,,,100,1
5e948aa20c949c2fff20eabf,41onbatvos,Trevor-ex1,1,42,2020-07-17T09:54:17-07:00,2.6463229656219,4,versionC_stim.csv,JOL_SIZE_VersionD.csv,"Large vs small D","Large vs small",COLD,CHILL,Study2,B,114,144,JOL_Large,User,-,"How likely are you to correctly recall the second item in the pair?|Type your response on a scale from 0-100 and then press Enter.",Study/JOL,"Study Phase",1549,,,908,1253,,,,100,1
5e948aa20c949c2fff20eabf,41onbatvos,Trevor-ex1,1,43,2020-07-17T09:54:21-07:00,4.5342669487,4,versionC_stim.csv,JOL_SIZE_VersionD.csv,"Large vs small D","Large vs small",SHAKE,SHELL,Study2,U,163,169,JOL_Large,User,-,"How likely are you to correctly recall the second item in the pair?|Type your response on a scale from 0-100 and then press Enter.",Study/JOL,"Study Phase",3495,,,562,3149,,,,0,1
5e948aa20c949c2fff20eabf,41onbatvos,Trevor-ex1,1,44,2020-07-17T09:54:24-07:00,2.5388059616089,4,versionC_stim.csv,JOL_SIZE_VersionD.csv,"Large vs small D","Large vs small",WET,DRY,Study2,S,146,167,JOL_Large,User,-,"How likely are you to correctly recall the second item in the pair?|Type your response on a scale from 0-100 and then press Enter.",Study/JOL,"Study Phase",1480,,,756,1105,,,,100,1
5e948aa20c949c2fff20eabf,41onbatvos,Trevor-ex1,1,45,2020-07-17T09:54:28-07:00,3.9177360534668,4,versionC_stim.csv,JOL_SIZE_VersionD.csv,"Large vs small D","Large vs small",FIGHT,FEUD,Study2,B,113,120,JOL_Small,User,-,"How likely are you to correctly recall the second item in the pair?|Type your response on a scale from 0-100 and then press Enter.",Study/JOL,"Study Phase",1994,,,1096,1477,,,,100,1
5e948aa20c949c2fff20eabf,41onbatvos,Trevor-ex1,1,46,2020-07-17T09:54:30-07:00,2.3650438785553,4,versionC_stim.csv,JOL_SIZE_VersionD.csv,"Large vs small D","Large vs small",TEMPER,TANTRUM,Study2,S,154,149,JOL_Large,User,-,"How likely are you to correctly recall the second item in the pair?|Type your response on a scale from 0-100 and then press Enter.",Study/JOL,"Study Phase",1574,,,982,1300,,,,100,1
5e948aa20c949c2fff20eabf,41onbatvos,Trevor-ex1,1,47,2020-07-17T09:54:33-07:00,2.7506539821625,4,versionC_stim.csv,JOL_SIZE_VersionD.csv,"Large vs small D","Large vs small",SEATBELT,SAFETY,Study2,S,147,104,JOL_Small,User,-,"How likely are you to correctly recall the second item in the pair?|Type your response on a scale from 0-100 and then press Enter.",Study/JOL,"Study Phase",1716,,,1026,1430,,,,100,1
5e948aa20c949c2fff20eabf,41onbatvos,Trevor-ex1,1,48,2020-07-17T09:54:36-07:00,2.6002631187439,4,versionC_stim.csv,JOL_SIZE_VersionD.csv,"Large vs small D","Large vs small",CUT,CHOP,Study2,B,107,114,JOL_Small,User,-,"How likely are you to correctly recall the second item in the pair?|Type your response on a scale from 0-100 and then press Enter.",Study/JOL,"Study Phase",1629,,,965,1249,,,,100,1
5e948aa20c949c2fff20eabf,41onbatvos,Trevor-ex1,1,49,2020-07-17T09:54:39-07:00,2.9680209159851,4,versionC_stim.csv,JOL_SIZE_VersionD.csv,"Large vs small D","Large vs small",SMELL,INCENSE,Study2,B,110,137,JOL_Large,User,-,"How likely are you to correctly recall the second item in the pair?|Type your response on a scale from 0-100 and then press Enter.",Study/JOL,"Study Phase",1809,,,1309,1309,,,,0,1
5e948aa20c949c2fff20eabf,41onbatvos,Trevor-ex1,1,50,2020-07-17T09:54:42-07:00,3.4706909656525,4,versionC_stim.csv,JOL_SIZE_VersionD.csv,"Large vs small D","Large vs small",OBTAIN,MEAT,Study2,U,161,133,JOL_Small,User,-,"How likely are you to correctly recall the second item in the pair?|Type your response on a scale from 0-100 and then press Enter.",Study/JOL,"Study Phase",2308,,,940,1792,,,,0,1
5e948aa20c949c2fff20eabf,41onbatvos,Trevor-ex1,1,51,2020-07-17T09:54:48-07:00,6.0381071567535,4,versionC_stim.csv,JOL_SIZE_VersionD.csv,"Large vs small D","Large vs small",STEAK,GIVE,Study2,U,158,102,JOL_Small,User,-,"How likely are you to correctly recall the second item in the pair?|Type your response on a scale from 0-100 and then press Enter.",Study/JOL,"Study Phase",4141,,,2814,3764,,,,0,1
5e948aa20c949c2fff20eabf,41onbatvos,Trevor-ex1,1,52,2020-07-17T09:54:56-07:00,8.2702128887177,4,versionC_stim.csv,JOL_SIZE_VersionD.csv,"Large vs small D","Large vs small",TAN,SUN,Study2,S,155,141,JOL_Large,User,-,"How likely are you to correctly recall the second item in the pair?|Type your response on a scale from 0-100 and then press Enter.",Study/JOL,"Study Phase",1727,,,1132,1450,,,,100,1
5e948aa20c949c2fff20eabf,41onbatvos,Trevor-ex1,1,53,2020-07-17T09:55:01-07:00,4.4772760868073,4,versionC_stim.csv,JOL_SIZE_VersionD.csv,"Large vs small D","Large vs small",REEL,ROD,Study2,S,150,155,JOL_Large,User,-,"How likely are you to correctly recall the second item in the pair?|Type your response on a scale from 0-100 and then press Enter.",Study/JOL,"Study Phase",1904,,,1262,1628,,,,100,1
5e948aa20c949c2fff20eabf,41onbatvos,Trevor-ex1,1,54,2020-07-17T09:57:27-07:00,146.27252388,4,versionC_stim.csv,JOL_SIZE_VersionD.csv,"Large vs small D","Large vs small",LOVE,AFFECTION,Study2,B,115,121,JOL_Small,User,-,"How likely are you to correctly recall the second item in the pair?|Type your response on a scale from 0-100 and then press Enter.",Study/JOL,"Study Phase",136713,,,135632,135665,,,,100,0.052
5e948aa20c949c2fff20eabf,41onbatvos,Trevor-ex1,1,55,2020-07-17T09:58:29-07:00,62.230614185333,4,versionC_stim.csv,JOL_SIZE_VersionD.csv,"Large vs small D","Large vs small",BANG,FUZZY,Study2,U,168,157,JOL_Large,User,-,"How likely are you to correctly recall the second item in the pair?|Type your response on a scale from 0-100 and then press Enter.",Study/JOL,"Study Phase",47657,,,47042,47042,,,,0,0.038
5e948aa20c949c2fff20eabf,41onbatvos,Trevor-ex1,1,56,2020-07-17T09:58:36-07:00,6.801127910614,4,versionC_stim.csv,JOL_SIZE_VersionD.csv,"Large vs small D","Large vs small",HEAD,SCALP,Study2,B,105,156,JOL_Large,User,-,"How likely are you to correctly recall the second item in the pair?|Type your response on a scale from 0-100 and then press Enter.",Study/JOL,"Study Phase",2008,,,1320,1693,,,,100,1
5e948aa20c949c2fff20eabf,41onbatvos,Trevor-ex1,1,57,2020-07-17T09:58:42-07:00,6.0471038818359,4,versionC_stim.csv,JOL_SIZE_VersionD.csv,"Large vs small D","Large vs small",SCISSORS,SHEARS,Study2,B,112,166,JOL_Large,User,-,"How likely are you to correctly recall the second item in the pair?|Type your response on a scale from 0-100 and then press Enter.",Study/JOL,"Study Phase",1985,,,1053,1702,,,,100,1
5e948aa20c949c2fff20eabf,41onbatvos,Trevor-ex1,1,58,2020-07-17T09:58:50-07:00,7.8984780311584,4,versionC_stim.csv,JOL_SIZE_VersionD.csv,"Large vs small D","Large vs small",REVENGE,EVEN,Study2,F,122,108,JOL_Small,User,-,"How likely are you to correctly recall the second item in the pair?|Type your response on a scale from 0-100 and then press Enter.",Study/JOL,"Study Phase",2606,,,1986,2248,,,,100,1
5e948aa20c949c2fff20eabf,41onbatvos,Trevor-ex1,1,59,2020-07-17T09:59:13-07:00,22.720169067383,4,versionC_stim.csv,JOL_SIZE_VersionD.csv,"Large vs small D","Large vs small",SCAR,MAIN,Study2,U,175,129,JOL_Small,User,-,"How likely are you to correctly recall the second item in the pair?|Type your response on a scale from 0-100 and then press Enter.",Study/JOL,"Study Phase",18314,,,17698,17699,,,,0,0.197
5e948aa20c949c2fff20eabf,41onbatvos,Trevor-ex1,1,60,2020-07-17T09:59:21-07:00,7.8779270648956,4,versionC_stim.csv,JOL_SIZE_VersionD.csv,"Large vs small D","Large vs small",HATE,NAME,Study2,U,167,140,JOL_Large,User,-,"How likely are you to correctly recall the second item in the pair?|Type your response on a scale from 0-100 and then press Enter.",Study/JOL,"Study Phase",5030,,,1974,1974,,,,0,1
5e948aa20c949c2fff20eabf,41onbatvos,Trevor-ex1,1,61,2020-07-17T09:59:27-07:00,6.566202878952,4,versionC_stim.csv,JOL_SIZE_VersionD.csv,"Large vs small D","Large vs small",END,ADJOURN,Study2,B,101,99,JOL_Small,User,-,"How likely are you to correctly recall the second item in the pair?|Type your response on a scale from 0-100 and then press Enter.",Study/JOL,"Study Phase",3442,,,1782,2795,,,,0,1
5e948aa20c949c2fff20eabf,41onbatvos,Trevor-ex1,1,62,2020-07-17T09:59:34-07:00,6.9609370231628,4,versionC_stim.csv,JOL_SIZE_VersionD.csv,"Large vs small D","Large vs small",BRACELET,WRIST,Study2,S,140,168,JOL_Large,User,-,"How likely are you to correctly recall the second item in the pair?|Type your response on a scale from 0-100 and then press Enter.",Study/JOL,"Study Phase",3020,,,2404,2692,,,,100,1
5e948aa20c949c2fff20eabf,41onbatvos,Trevor-ex1,1,63,2020-07-17T09:59:52-07:00,18.127053976059,4,versionC_stim.csv,JOL_SIZE_VersionD.csv,"Large vs small D","Large vs small",PENGUIN,BIRD,Study2,F,119,106,JOL_Small,User,-,"How likely are you to correctly recall the second item in the pair?|Type your response on a scale from 0-100 and then press Enter.",Study/JOL,"Study Phase",9811,,,7801,8387,,,,100,0.9
5e948aa20c949c2fff20eabf,41onbatvos,Trevor-ex1,1,64,2020-07-17T10:00:30-07:00,37.245892047882,4,versionC_stim.csv,JOL_SIZE_VersionD.csv,"Large vs small D","Large vs small",CHILDREN,MIRROR,Study2,U,174,128,JOL_Small,User,-,"How likely are you to correctly recall the second item in the pair?|Type your response on a scale from 0-100 and then press Enter.",Study/JOL,"Study Phase",5406,,,4867,4867,,,,0,0.25
5e948aa20c949c2fff20eabf,41onbatvos,Trevor-ex1,1,65,2020-07-17T10:00:54-07:00,24.303828954697,4,versionC_stim.csv,JOL_SIZE_VersionD.csv,"Large vs small D","Large vs small",TOIL,LEASE,Study2,U,170,103,JOL_Small,User,-,"How likely are you to correctly recall the second item in the pair?|Type your response on a scale from 0-100 and then press Enter.",Study/JOL,"Study Phase",6319,,,4646,4646,,,,0,0.25
5e948aa20c949c2fff20eabf,41onbatvos,Trevor-ex1,1,66,2020-07-17T10:01:08-07:00,13.926591157913,4,versionC_stim.csv,JOL_SIZE_VersionD.csv,"Large vs small D","Large vs small",TRASH,LITTER,Study2,B,103,142,JOL_Large,User,-,"How likely are you to correctly recall the second item in the pair?|Type your response on a scale from 0-100 and then press Enter.",Study/JOL,"Study Phase",6380,,,5671,5941,,,,100,0.214
5e948aa20c949c2fff20eabf,41onbatvos,Trevor-ex1,1,67,2020-07-17T10:01:14-07:00,6.0686709880829,4,versionC_stim.csv,JOL_SIZE_VersionD.csv,"Large vs small D","Large vs small",SHAVE,RAZOR,Study2,S,136,175,JOL_Large,User,-,"How likely are you to correctly recall the second item in the pair?|Type your response on a scale from 0-100 and then press Enter.",Study/JOL,"Study Phase",2532,,,1775,2084,,,,100,1
5e948aa20c949c2fff20eabf,41onbatvos,Trevor-ex1,1,68,2020-07-17T10:01:20-07:00,6.3794689178467,4,versionC_stim.csv,JOL_SIZE_VersionD.csv,"Large vs small D","Large vs small",MORNING,TEMPERATURE,Study2,U,173,165,JOL_Large,User,-,"How likely are you to correctly recall the second item in the pair?|Type your response on a scale from 0-100 and then press Enter.",Study/JOL,"Study Phase",4183,,,2559,3625,,,,0,1
5e948aa20c949c2fff20eabf,41onbatvos,Trevor-ex1,1,69,2020-07-17T10:01:26-07:00,6.2698090076447,4,versionC_stim.csv,JOL_SIZE_VersionD.csv,"Large vs small D","Large vs small",SARDINE,FISH,Study2,F,130,143,JOL_Large,User,-,"How likely are you to correctly recall the second item in the pair?|Type your response on a scale from 0-100 and then press Enter.",Study/JOL,"Study Phase",2773,,,1999,2307,,,,100,1
5e948aa20c949c2fff20eabf,41onbatvos,Trevor-ex1,1,70,2020-07-17T10:01:32-07:00,5.1359889507294,4,versionC_stim.csv,JOL_SIZE_VersionD.csv,"Large vs small D","Large vs small",PANTHER,CAT,Study2,F,126,174,JOL_Large,User,-,"How likely are you to correctly recall the second item in the pair?|Type your response on a scale from 0-100 and then press Enter.",Study/JOL,"Study Phase",3369,,,2562,2910,,,,100,1
5e948aa20c949c2fff20eabf,41onbatvos,Trevor-ex1,1,71,2020-07-17T10:01:36-07:00,4.6553509235382,4,versionC_stim.csv,JOL_SIZE_VersionD.csv,"Large vs small D","Large vs small",DOG,FURRY,Study2,B,102,97,JOL_Small,User,-,"How likely are you to correctly recall the second item in the pair?|Type your response on a scale from 0-100 and then press Enter.",Study/JOL,"Study Phase",2542,,,2051,2052,,,,0,1
5e948aa20c949c2fff20eabf,41onbatvos,Trevor-ex1,1,72,2020-07-17T10:01:44-07:00,8.0946102142334,4,versionC_stim.csv,JOL_SIZE_VersionD.csv,"Large vs small D","Large vs small",TIE,SHOELACE,Study2,B,99,162,JOL_Large,User,-,"How likely are you to correctly recall the second item in the pair?|Type your response on a scale from 0-100 and then press Enter.",Study/JOL,"Study Phase",3458,,,2570,2876,,,,100,0.462
5e948aa20c949c2fff20eabf,41onbatvos,Trevor-ex1,1,73,2020-07-17T10:01:54-07:00,9.8313038349152,4,versionC_stim.csv,JOL_SIZE_VersionD.csv,"Large vs small D","Large vs small",THIMBLE,THREAD,Study2,F,121,159,JOL_Large,User,-,"How likely are you to correctly recall the second item in the pair?|Type your response on a scale from 0-100 and then press Enter.",Study/JOL,"Study Phase",3773,,,3241,3242,,,,0,0.357
5e948aa20c949c2fff20eabf,41onbatvos,Trevor-ex1,1,74,2020-07-17T10:02:16-07:00,21.477288007736,4,versionC_stim.csv,JOL_SIZE_VersionD.csv,"Large vs small D","Large vs small",ELECTION,MAZE,Study2,U,159,110,JOL_Small,User,-,"How likely are you to correctly recall the second item in the pair?|Type your response on a scale from 0-100 and then press Enter.",Study/JOL,"Study Phase",16105,,,15705,15705,,,,0,0.072
5e948aa20c949c2fff20eabf,41onbatvos,Trevor-ex1,1,75,2020-07-17T10:02:21-07:00,5.5839331150055,4,versionC_stim.csv,JOL_SIZE_VersionD.csv,"Large vs small D","Large vs small",LONG,EXTENSION,Study2,B,96,113,JOL_Small,User,-,"How likely are you to correctly recall the second item in the pair?|Type your response on a scale from 0-100 and then press Enter.",Study/JOL,"Study Phase",2729,,,2052,2274,,,,100,1
5e948aa20c949c2fff20eabf,41onbatvos,Trevor-ex1,1,76,2020-07-17T10:02:27-07:00,5.2649209499359,4,versionC_stim.csv,JOL_SIZE_VersionD.csv,"Large vs small D","Large vs small",RED,CHERRY,Study2,B,104,107,JOL_Small,User,-,"How likely are you to correctly recall the second item in the pair?|Type your response on a scale from 0-100 and then press Enter.",Study/JOL,"Study Phase",2729,,,1896,2265,,,,100,1
5e948aa20c949c2fff20eabf,41onbatvos,Trevor-ex1,1,77,2020-07-17T10:02:32-07:00,5.2702879905701,4,versionC_stim.csv,JOL_SIZE_VersionD.csv,"Large vs small D","Large vs small",VILLAIN,BAD,Study2,F,118,112,JOL_Small,User,-,"How likely are you to correctly recall the second item in the pair?|Type your response on a scale from 0-100 and then press Enter.",Study/JOL,"Study Phase",2208,,,1589,1929,,,,100,1
5e948aa20c949c2fff20eabf,41onbatvos,Trevor-ex1,1,78,2020-07-17T10:02:37-07:00,5.4835839271545,4,versionC_stim.csv,JOL_SIZE_VersionD.csv,"Large vs small D","Large vs small",CLOTH,STRETCH,Study2,U,157,154,JOL_Large,User,-,"How likely are you to correctly recall the second item in the pair?|Type your response on a scale from 0-100 and then press Enter.",Study/JOL,"Study Phase",3120,,,2599,2600,,,,0,1
5e948aa20c949c2fff20eabf,41onbatvos,Trevor-ex1,1,79,2020-07-17T10:02:44-07:00,6.7630381584167,4,versionC_stim.csv,JOL_SIZE_VersionD.csv,"Large vs small D","Large vs small",OUNCE,BOTH,Study2,U,172,150,JOL_Large,User,-,"How likely are you to correctly recall the second item in the pair?|Type your response on a scale from 0-100 and then press Enter.",Study/JOL,"Study Phase",4473,,,3786,3786,,,,0,1
5e948aa20c949c2fff20eabf,41onbatvos,Trevor-ex1,1,80,2020-07-17T10:02:49-07:00,4.5153248310089,4,versionC_stim.csv,JOL_SIZE_VersionD.csv,"Large vs small D","Large vs small",FAVORITE,BEST,Study2,F,125,148,JOL_Large,User,-,"How likely are you to correctly recall the second item in the pair?|Type your response on a scale from 0-100 and then press Enter.",Study/JOL,"Study Phase",2645,,,2004,2255,,,,100,1
5e948aa20c949c2fff20eabf,41onbatvos,Trevor-ex1,1,81,2020-07-17T10:02:54-07:00,5.6055331230164,4,versionC_stim.csv,JOL_SIZE_VersionD.csv,"Large vs small D","Large vs small",SIGN,LOAN,Study2,U,171,98,JOL_Small,User,-,"How likely are you to correctly recall the second item in the pair?|Type your response on a scale from 0-100 and then press Enter.",Study/JOL,"Study Phase",2473,,,2031,2031,,,,0,1
5e948aa20c949c2fff20eabf,41onbatvos,Trevor-ex1,1,82,2020-07-17T10:03:11-07:00,16.662514925003,4,versionC_stim.csv,JOL_SIZE_VersionD.csv,"Large vs small D","Large vs small",COFFIN,DEAD,Study2,F,128,153,JOL_Large,User,-,"How likely are you to correctly recall the second item in the pair?|Type your response on a scale from 0-100 and then press Enter.",Study/JOL,"Study Phase",13830,,,11948,13453,,,,100,1
5e948aa20c949c2fff20eabf,41onbatvos,Trevor-ex1,1,83,2020-07-17T10:03:23-07:00,12.177289009094,4,versionC_stim.csv,JOL_SIZE_VersionD.csv,"Large vs small D","Large vs small",COMMUNICATION,PHONE,Study2,S,149,105,JOL_Small,User,-,"How likely are you to correctly recall the second item in the pair?|Type your response on a scale from 0-100 and then press Enter.",Study/JOL,"Study Phase",8883,,,8306,8608,,,,100,0.222
5e948aa20c949c2fff20eabf,41onbatvos,Trevor-ex1,1,84,2020-07-17T10:03:33-07:00,9.5967590808868,4,versionC_stim.csv,JOL_SIZE_VersionD.csv,"Large vs small D","Large vs small",BRAWL,FIGHT,Study2,F,135,115,JOL_Small,User,-,"How likely are you to correctly recall the second item in the pair?|Type your response on a scale from 0-100 and then press Enter.",Study/JOL,"Study Phase",4202,,,3562,3869,,,,100,1
5e948aa20c949c2fff20eabf,41onbatvos,Trevor-ex1,1,85,2020-07-17T10:03:38-07:00,5.4063990116119,4,versionC_stim.csv,JOL_SIZE_VersionD.csv,"Large vs small D","Large vs small",NAP,SLEEP,Study2,F,134,124,JOL_Small,User,-,"How likely are you to correctly recall the second item in the pair?|Type your response on a scale from 0-100 and then press Enter.",Study/JOL,"Study Phase",3105,,,2148,2562,,,,100,1
5e948aa20c949c2fff20eabf,41onbatvos,Trevor-ex1,1,86,2020-07-17T10:03:43-07:00,5.316633939743,4,versionC_stim.csv,JOL_SIZE_VersionD.csv,"Large vs small D","Large vs small",FICTION,LISTEN,Study2,U,164,152,JOL_Large,User,-,"How likely are you to correctly recall the second item in the pair?|Type your response on a scale from 0-100 and then press Enter.",Study/JOL,"Study Phase",3200,,,2580,2580,,,,0,1
5e948aa20c949c2fff20eabf,41onbatvos,Trevor-ex1,1,87,2020-07-17T10:03:49-07:00,5.4801239967346,4,versionC_stim.csv,JOL_SIZE_VersionD.csv,"Large vs small D","Large vs small",TICK,FLEA,Study2,S,151,109,JOL_Small,User,-,"How likely are you to correctly recall the second item in the pair?|Type your response on a scale from 0-100 and then press Enter.",Study/JOL,"Study Phase",2971,,,2066,2367,,,,100,1
5e948aa20c949c2fff20eabf,41onbatvos,Trevor-ex1,1,88,2020-07-17T10:03:54-07:00,4.7305219173431,4,versionC_stim.csv,JOL_SIZE_VersionD.csv,"Large vs small D","Large vs small",BALLOON,POP,Study2,F,123,172,JOL_Large,User,-,"How likely are you to correctly recall the second item in the pair?|Type your response on a scale from 0-100 and then press Enter.",Study/JOL,"Study Phase",2470,,,1751,2046,,,,100,1
5e948aa20c949c2fff20eabf,41onbatvos,Trevor-ex1,1,89,2020-07-17T10:04:01-07:00,6.9761409759521,4,versionC_stim.csv,JOL_SIZE_VersionD.csv,"Large vs small D","Large vs small",CHARM,VEHICLE,Study2,U,160,117,JOL_Small,User,-,"How likely are you to correctly recall the second item in the pair?|Type your response on a scale from 0-100 and then press Enter.",Study/JOL,"Study Phase",2837,,,2348,2349,,,,0,1
5e948aa20c949c2fff20eabf,41onbatvos,Trevor-ex1,1,90,2020-07-17T10:04:06-07:00,5.2144160270691,4,versionC_stim.csv,JOL_SIZE_VersionD.csv,"Large vs small D","Large vs small",CAR,DRIVER,Study2,B,106,171,JOL_Large,User,-,"How likely are you to correctly recall the second item in the pair?|Type your response on a scale from 0-100 and then press Enter.",Study/JOL,"Study Phase",2273,,,1652,2021,,,,100,1
5e948aa20c949c2fff20eabf,41onbatvos,Trevor-ex1,1,91,2020-07-17T10:04:12-07:00,5.9670879840851,4,versionC_stim.csv,JOL_SIZE_VersionD.csv,"Large vs small D","Large vs small",YEAR,MONTH,BUFFER4,Buffer,177,181,JOL_Large,User,-,"How likely are you to correctly recall the second item in the pair?|Type your response on a scale from 0-100 and then press Enter.",Study/JOL,BUFFER2,2339,,,1212,1595,,,,100,1
5e948aa20c949c2fff20eabf,41onbatvos,Trevor-ex1,1,92,2020-07-17T10:04:19-07:00,7.2796461582184,4,versionC_stim.csv,JOL_SIZE_VersionD.csv,"Large vs small D","Large vs small",SHED,TOOL,BUFFER4,Buffer,178,179,JOL_Small,User,-,"How likely are you to correctly recall the second item in the pair?|Type your response on a scale from 0-100 and then press Enter.",Study/JOL,BUFFER2,4726,,,4138,4440,,,,100,1
5e948aa20c949c2fff20eabf,41onbatvos,Trevor-ex1,1,93,2020-07-17T10:04:24-07:00,5.2189428806305,4,versionC_stim.csv,JOL_SIZE_VersionD.csv,"Large vs small D","Large vs small",WEEKS,DAYS,BUFFER4,Buffer,176,180,JOL_Small,User,-,"How likely are you to correctly recall the second item in the pair?|Type your response on a scale from 0-100 and then press Enter.",Study/JOL,BUFFER2,2597,,,1966,2298,,,,100,1
5e948aa20c949c2fff20eabf,41onbatvos,Trevor-ex1,1,94,2020-07-17T10:04:30-07:00,5.656919002533,4,versionC_stim.csv,JOL_SIZE_VersionD.csv,"Large vs small D","Large vs small",SPOOKY,OCTOBER,BUFFER4,Buffer,180,178,JOL_Large,User,-,"How likely are you to correctly recall the second item in the pair?|Type your response on a scale from 0-100 and then press Enter.",Study/JOL,BUFFER2,2512,,,1750,2108,,,,100,1
5e948aa20c949c2fff20eabf,41onbatvos,Trevor-ex1,1,95,2020-07-17T10:04:35-07:00,4.9550981521606,4,versionC_stim.csv,JOL_SIZE_VersionD.csv,"Large vs small D","Large vs small",MARCH,SPRING,BUFFER4,Buffer,179,177,JOL_Large,User,-,"How likely are you to correctly recall the second item in the pair?|Type your response on a scale from 0-100 and then press Enter.",Study/JOL,BUFFER2,2429,,,1841,2007,,,,100,1
5e948aa20c949c2fff20eabf,41onbatvos,Trevor-ex1,1,96,2020-07-17T10:04:44-07:00,8.8478419780731,4,versionC_stim.csv,JOL_SIZE_VersionD.csv,"Large vs small D","Large vs small",,,,,,0,Instruct,User,-,"You have completed this section. Please press Enter.",Filler_Instruction,Instruct2,6304,,,-1,-1,,,,,1
5e948aa20c949c2fff20eabf,41onbatvos,Trevor-ex1,1,97,2020-07-17T10:06:47-07:00,123.33172392845,4,versionC_stim.csv,JOL_SIZE_VersionD.csv,"Large vs small D","Large vs small",,,,,,0,FreeRecall,120,120,"Please list the 50 US states in alphabetical order. The task will automatically advance to the next screen after two minutes.",,Filler1,120220,"Alabama. Alaska Arizona Arkansas California Colorado Connecticut Delaware Florida Hawaii Ionois Iowa",0,10764,116579,0,0,,,0.831
5e948aa20c949c2fff20eabf,41onbatvos,Trevor-ex1,1,98,2020-07-17T10:07:01-07:00,14.146691083908,4,versionC_stim.csv,JOL_SIZE_VersionD.csv,"Large vs small D","Large vs small",,,,,,0,Instruct,-,10,"You will now be presented with the first word from each of the previously studied item pairs. Please type the missing word. If you do not know the word, you may guess or press Enter to skip forward to the next pair.",,Instruct3,10975,,,-1,-1,,,,,0.808
5e948aa20c949c2fff20eabf,41onbatvos,Trevor-ex1,1,99,2020-07-17T10:07:09-07:00,7.633533000946,4,versionC_stim.csv,JOL_SIZE_VersionD.csv,"Large vs small D","Large vs small",JOKE,KEYS,Study2,U,165,123,Test,User,-,,Recall,Recall1,4715,Laugh,0,3482,4211,0,0,,,1
5e948aa20c949c2fff20eabf,41onbatvos,Trevor-ex1,1,100,2020-07-17T10:07:14-07:00,5.113737821579,4,versionC_stim.csv,JOL_SIZE_VersionD.csv,"Large vs small D","Large vs small",STEAK,GIVE,Study2,U,158,102,Test,User,-,,Recall,Recall1,3088,,0,-1,-1,0,0,,,1
5e948aa20c949c2fff20eabf,41onbatvos,Trevor-ex1,1,101,2020-07-17T10:07:22-07:00,7.7166080474854,4,versionC_stim.csv,JOL_SIZE_VersionD.csv,"Large vs small D","Large vs small",FICTION,LISTEN,Study2,U,164,152,Test,User,-,,Recall,Recall1,4908,Story,36.363636363636,2476,4553,0,0,,,1
5e948aa20c949c2fff20eabf,41onbatvos,Trevor-ex1,1,102,2020-07-17T10:07:27-07:00,5.2152090072632,4,versionC_stim.csv,JOL_SIZE_VersionD.csv,"Large vs small D","Large vs small",ABLE,CRACKLE,Study2,U,162,131,Test,User,-,,Recall,Recall1,3203,Crackle,100,1874,3056,1,1,,,1
5e948aa20c949c2fff20eabf,41onbatvos,Trevor-ex1,1,103,2020-07-17T10:07:31-07:00,4.6346819400787,4,versionC_stim.csv,JOL_SIZE_VersionD.csv,"Large vs small D","Large vs small",BRAWL,FIGHT,Study2,F,135,115,Test,User,-,,Recall,Recall1,2271,Fight,100,1493,2027,1,1,,,1
5e948aa20c949c2fff20eabf,41onbatvos,Trevor-ex1,1,104,2020-07-17T10:07:36-07:00,4.9019939899445,4,versionC_stim.csv,JOL_SIZE_VersionD.csv,"Large vs small D","Large vs small",LONELY,ALONE,Study2,S,145,116,Test,User,-,,Recall,Recall1,2071,ALONE,100,1402,1887,1,1,,,1
5e948aa20c949c2fff20eabf,41onbatvos,Trevor-ex1,1,105,2020-07-17T10:07:41-07:00,4.3482401371002,4,versionC_stim.csv,JOL_SIZE_VersionD.csv,"Large vs small D","Large vs small",OUNCE,BOTH,Study2,U,172,150,Test,User,-,,Recall,Recall1,2334,BOTH,100,1694,2093,1,1,,,1
5e948aa20c949c2fff20eabf,41onbatvos,Trevor-ex1,1,106,2020-07-17T10:07:45-07:00,3.9897918701172,4,versionC_stim.csv,JOL_SIZE_VersionD.csv,"Large vs small D","Large vs small",NOISE,LOUD,Study2,S,152,118,Test,User,-,,Recall,Recall1,1825,LOUD,100,1237,1702,1,1,,,1
5e948aa20c949c2fff20eabf,41onbatvos,Trevor-ex1,1,107,2020-07-17T10:07:51-07:00,5.9107460975647,4,versionC_stim.csv,JOL_SIZE_VersionD.csv,"Large vs small D","Large vs small",TRASH,LITTER,Study2,B,103,142,Test,User,-,,Recall,Recall1,2699,LITTER,100,1616,2576,1,1,,,1
5e948aa20c949c2fff20eabf,41onbatvos,Trevor-ex1,1,108,2020-07-17T10:07:58-07:00,6.9432129859924,4,versionC_stim.csv,JOL_SIZE_VersionD.csv,"Large vs small D","Large vs small",CLOTHES,CAKE,Study2,U,166,136,Test,User,-,,Recall,Recall1,4337,,0,-1,-1,0,0,,,1
5e948aa20c949c2fff20eabf,41onbatvos,Trevor-ex1,1,109,2020-07-17T10:08:03-07:00,5.7198951244354,4,versionC_stim.csv,JOL_SIZE_VersionD.csv,"Large vs small D","Large vs small",AIRCRAFT,PLANE,Study2,F,129,130,Test,User,-,,Recall,Recall1,2803,PLANE,100,2147,2613,1,1,,,0.462
5e948aa20c949c2fff20eabf,41onbatvos,Trevor-ex1,1,110,2020-07-17T10:08:08-07:00,4.2444748878479,4,versionC_stim.csv,JOL_SIZE_VersionD.csv,"Large vs small D","Large vs small",PANTHER,CAT,Study2,F,126,174,Test,User,-,,Recall,Recall1,1850,CAT,100,1532,1764,1,1,,,1
5e948aa20c949c2fff20eabf,41onbatvos,Trevor-ex1,1,111,2020-07-17T10:08:13-07:00,5.798446893692,4,versionC_stim.csv,JOL_SIZE_VersionD.csv,"Large vs small D","Large vs small",PLANT,CACTUS,Study2,B,98,160,Test,User,-,,Recall,Recall1,3748,CACTUS,100,2196,3553,1,1,,,1
5e948aa20c949c2fff20eabf,41onbatvos,Trevor-ex1,1,112,2020-07-17T10:08:22-07:00,8.7900061607361,4,versionC_stim.csv,JOL_SIZE_VersionD.csv,"Large vs small D","Large vs small",FAVORITE,BEST,Study2,F,125,148,Test,User,-,,Recall,Recall1,6594,BEST,100,3703,6492,1,1,,,1
5e948aa20c949c2fff20eabf,41onbatvos,Trevor-ex1,1,113,2020-07-17T10:08:29-07:00,7.2211780548096,4,versionC_stim.csv,JOL_SIZE_VersionD.csv,"Large vs small D","Large vs small",OBTAIN,MEAT,Study2,U,161,133,Test,User,-,,Recall,Recall1,4638,HOLD,0,4034,4472,0,0,,,1
5e948aa20c949c2fff20eabf,41onbatvos,Trevor-ex1,1,114,2020-07-17T10:08:35-07:00,5.5116407871246,4,versionC_stim.csv,JOL_SIZE_VersionD.csv,"Large vs small D","Large vs small",GAME,CLUE,Study2,B,97,135,Test,User,-,,Recall,Recall1,3597,OVER,25,2971,3425,0,0,,,1
5e948aa20c949c2fff20eabf,41onbatvos,Trevor-ex1,1,115,2020-07-17T10:08:39-07:00,4.3391561508179,4,versionC_stim.csv,JOL_SIZE_VersionD.csv,"Large vs small D","Large vs small",MAROON,JUSTICE,Study2,U,156,122,Test,User,-,,Recall,Recall1,2147,,0,-1,-1,0,0,,,1
5e948aa20c949c2fff20eabf,41onbatvos,Trevor-ex1,1,116,2020-07-17T10:08:45-07:00,6.1806018352509,4,versionC_stim.csv,JOL_SIZE_VersionD.csv,"Large vs small D","Large vs small",WAX,CANDLE,Study2,S,139,127,Test,User,-,,Recall,Recall1,2661,CANDLE,100,1704,2573,1,1,,,1
5e948aa20c949c2fff20eabf,41onbatvos,Trevor-ex1,1,117,2020-07-17T10:08:53-07:00,7.7580242156982,4,versionC_stim.csv,JOL_SIZE_VersionD.csv,"Large vs small D","Large vs small",CLOTH,STRETCH,Study2,U,157,154,Test,User,-,,Recall,Recall1,4353,FABRIC,30.769230769231,3492,4200,0,0,,,1
5e948aa20c949c2fff20eabf,41onbatvos,Trevor-ex1,1,118,2020-07-17T10:08:59-07:00,6.0408627986908,4,versionC_stim.csv,JOL_SIZE_VersionD.csv,"Large vs small D","Large vs small",PAPER,DOCUMENT,Study2,B,109,176,Test,User,-,,Recall,Recall1,3445,DOCUMENT,100,2195,3154,1,1,,,1
5e948aa20c949c2fff20eabf,41onbatvos,Trevor-ex1,1,119,2020-07-17T10:09:12-07:00,12.946470022202,4,versionC_stim.csv,JOL_SIZE_VersionD.csv,"Large vs small D","Large vs small",TOIL,LEASE,Study2,U,170,103,Test,User,-,,Recall,Recall1,10922,,0,8924,9632,0,0,,,1
5e948aa20c949c2fff20eabf,41onbatvos,Trevor-ex1,1,120,2020-07-17T10:09:18-07:00,5.8560559749603,4,versionC_stim.csv,JOL_SIZE_VersionD.csv,"Large vs small D","Large vs small",GROUND,EARTH,Study2,S,144,163,Test,User,-,,Recall,Recall1,2820,EARTH,100,1940,2506,1,1,,,1
5e948aa20c949c2fff20eabf,41onbatvos,Trevor-ex1,1,121,2020-07-17T10:09:24-07:00,6.4108481407166,4,versionC_stim.csv,JOL_SIZE_VersionD.csv,"Large vs small D","Large vs small",NAP,SLEEP,Study2,F,134,124,Test,User,-,,Recall,Recall1,3902,SLEEP,100,3057,3605,1,1,,,1
5e948aa20c949c2fff20eabf,41onbatvos,Trevor-ex1,1,122,2020-07-17T10:09:33-07:00,8.7305510044098,4,versionC_stim.csv,JOL_SIZE_VersionD.csv,"Large vs small D","Large vs small",BANG,FUZZY,Study2,U,168,157,Test,User,-,,Recall,Recall1,5995,NOISE,0,4834,5377,0,0,,,1
5e948aa20c949c2fff20eabf,41onbatvos,Trevor-ex1,1,123,2020-07-17T10:09:37-07:00,3.8485059738159,4,versionC_stim.csv,JOL_SIZE_VersionD.csv,"Large vs small D","Large vs small",CARBON,ELEMENT,Study2,S,141,134,Test,User,-,,Recall,Recall1,2386,ELEMENT,100,1421,2108,1,1,,,1
5e948aa20c949c2fff20eabf,41onbatvos,Trevor-ex1,1,124,2020-07-17T10:09:44-07:00,6.6208939552307,4,versionC_stim.csv,JOL_SIZE_VersionD.csv,"Large vs small D","Large vs small",BREAKABLE,GLASS,Study2,F,127,111,Test,User,-,,Recall,Recall1,4183,GLASS,100,2872,3937,1,1,,,1
5e948aa20c949c2fff20eabf,41onbatvos,Trevor-ex1,1,125,2020-07-17T10:09:50-07:00,6.0251851081848,4,versionC_stim.csv,JOL_SIZE_VersionD.csv,"Large vs small D","Large vs small",SCAR,MAIN,Study2,U,175,129,Test,User,-,,Recall,Recall1,3047,MARK,50,2489,2775,0,0,,,1
5e948aa20c949c2fff20eabf,41onbatvos,Trevor-ex1,1,126,2020-07-17T10:09:59-07:00,8.9810559749603,4,versionC_stim.csv,JOL_SIZE_VersionD.csv,"Large vs small D","Large vs small",CAR,DRIVER,Study2,B,106,171,Test,User,-,,Recall,Recall1,6868,WINDSHIELD,25,2568,6535,0,0,,,1
5e948aa20c949c2fff20eabf,41onbatvos,Trevor-ex1,1,127,2020-07-17T10:10:07-07:00,8.5555489063263,4,versionC_stim.csv,JOL_SIZE_VersionD.csv,"Large vs small D","Large vs small",ELECTION,MAZE,Study2,U,159,110,Test,User,-,,Recall,Recall1,5172,MAZE,100,3770,4740,1,1,,,1
5e948aa20c949c2fff20eabf,41onbatvos,Trevor-ex1,1,128,2020-07-17T10:10:15-07:00,8.2167840003967,4,versionC_stim.csv,JOL_SIZE_VersionD.csv,"Large vs small D","Large vs small",LOVE,AFFECTION,Study2,B,115,121,Test,User,-,,Recall,Recall1,5677,HEART,28.571428571429,5053,5450,0,0,,,1
5e948aa20c949c2fff20eabf,41onbatvos,Trevor-ex1,1,129,2020-07-17T10:10:26-07:00,10.885970115662,4,versionC_stim.csv,JOL_SIZE_VersionD.csv,"Large vs small D","Large vs small",MYSTERY,DETECTIVE,Study2,B,100,125,Test,User,-,,Recall,Recall1,5848,DETECTIVE,100,1637,5607,1,1,,,1
5e948aa20c949c2fff20eabf,41onbatvos,Trevor-ex1,1,130,2020-07-17T10:10:39-07:00,13.073750019073,4,versionC_stim.csv,JOL_SIZE_VersionD.csv,"Large vs small D","Large vs small",COLD,CHILL,Study2,B,114,144,Test,User,-,,Recall,Recall1,8109,,0,2857,2857,0,0,,,1
5e948aa20c949c2fff20eabf,41onbatvos,Trevor-ex1,1,131,2020-07-17T10:10:47-07:00,7.5881140232086,4,versionC_stim.csv,JOL_SIZE_VersionD.csv,"Large vs small D","Large vs small",CHILDREN,MIRROR,Study2,U,174,128,Test,User,-,,Recall,Recall1,4490,YOUNG,18.181818181818,3836,4287,0,0,,,1
5e948aa20c949c2fff20eabf,41onbatvos,Trevor-ex1,1,132,2020-07-17T10:10:52-07:00,5.3841319084167,4,versionC_stim.csv,JOL_SIZE_VersionD.csv,"Large vs small D","Large vs small",TRUTHFUL,HONEST,Study2,F,133,126,Test,User,-,,Recall,Recall1,2526,HONEST,100,1669,2400,1,1,,,1
5e948aa20c949c2fff20eabf,41onbatvos,Trevor-ex1,1,133,2020-07-17T10:10:59-07:00,6.3935220241547,4,versionC_stim.csv,JOL_SIZE_VersionD.csv,"Large vs small D","Large vs small",JAR,MASON,Study2,S,138,161,Test,User,-,,Recall,Recall1,4469,,0,-1,-1,0,0,,,1
5e948aa20c949c2fff20eabf,41onbatvos,Trevor-ex1,1,134,2020-07-17T10:11:08-07:00,9.1232979297638,4,versionC_stim.csv,JOL_SIZE_VersionD.csv,"Large vs small D","Large vs small",EAT,DINE,Study2,B,111,164,Test,User,-,,Recall,Recall1,7271,TAKE,25,6672,7052,0,0,,,1
5e948aa20c949c2fff20eabf,41onbatvos,Trevor-ex1,1,135,2020-07-17T10:11:16-07:00,7.9495549201965,4,versionC_stim.csv,JOL_SIZE_VersionD.csv,"Large vs small D","Large vs small",LEAGUE,BASEBALL,Study2,F,131,173,Test,User,-,,Recall,Recall1,3742,BASEBALL,100,1961,3482,1,1,,,1
5e948aa20c949c2fff20eabf,41onbatvos,Trevor-ex1,1,136,2020-07-17T10:11:23-07:00,7.0307040214539,4,versionC_stim.csv,JOL_SIZE_VersionD.csv,"Large vs small D","Large vs small",RED,CHERRY,Study2,B,104,107,Test,User,-,,Recall,Recall1,4599,COLOUR,33.333333333333,3153,4171,0,0,,,1
5e948aa20c949c2fff20eabf,41onbatvos,Trevor-ex1,1,137,2020-07-17T10:11:30-07:00,6.8112161159515,4,versionC_stim.csv,JOL_SIZE_VersionD.csv,"Large vs small D","Large vs small",LONG,EXTENSION,Study2,B,96,113,Test,User,-,,Recall,Recall1,4663,EXTENSION,100,2895,4359,1,1,,,1
5e948aa20c949c2fff20eabf,41onbatvos,Trevor-ex1,1,138,2020-07-17T10:11:35-07:00,5.0733649730682,4,versionC_stim.csv,JOL_SIZE_VersionD.csv,"Large vs small D","Large vs small",SHAVE,RAZOR,Study2,S,136,175,Test,User,-,,Recall,Recall1,2399,RAZOR,100,1637,2232,1,1,,,1
5e948aa20c949c2fff20eabf,41onbatvos,Trevor-ex1,1,139,2020-07-17T10:11:39-07:00,4.2792179584503,4,versionC_stim.csv,JOL_SIZE_VersionD.csv,"Large vs small D","Large vs small",STRAWBERRY,FRUIT,Study2,F,124,151,Test,User,-,,Recall,Recall1,2449,RED,25,1945,2319,0,0,,,1
5e948aa20c949c2fff20eabf,41onbatvos,Trevor-ex1,1,140,2020-07-17T10:11:44-07:00,4.8446941375732,4,versionC_stim.csv,JOL_SIZE_VersionD.csv,"Large vs small D","Large vs small",EQUAL,RIGHTS,Study2,S,137,158,Test,User,-,,Recall,Recall1,2756,RIGHTS,100,1340,2716,1,1,,,1
5e948aa20c949c2fff20eabf,41onbatvos,Trevor-ex1,1,141,2020-07-17T10:11:48-07:00,4.5526878833771,4,versionC_stim.csv,JOL_SIZE_VersionD.csv,"Large vs small D","Large vs small",FIGHT,FEUD,Study2,B,113,120,Test,User,-,,Recall,Recall1,2057,BRAWL,0,1438,1819,0,0,,,1
5e948aa20c949c2fff20eabf,41onbatvos,Trevor-ex1,1,142,2020-07-17T10:11:53-07:00,5.1558771133423,4,versionC_stim.csv,JOL_SIZE_VersionD.csv,"Large vs small D","Large vs small",COFFIN,DEAD,Study2,F,128,153,Test,User,-,,Recall,Recall1,2820,DEAD,100,2163,2539,1,1,,,1
5e948aa20c949c2fff20eabf,41onbatvos,Trevor-ex1,1,143,2020-07-17T10:12:03-07:00,9.0225009918213,4,versionC_stim.csv,JOL_SIZE_VersionD.csv,"Large vs small D","Large vs small",CLEAR,MOAT,Study2,U,169,119,Test,User,-,,Recall,Recall1,6209,VIEW,0,3129,6077,0,0,,,0.773
5e948aa20c949c2fff20eabf,41onbatvos,Trevor-ex1,1,144,2020-07-17T10:12:12-07:00,9.3899779319763,4,versionC_stim.csv,JOL_SIZE_VersionD.csv,"Large vs small D","Large vs small",LIE,TRUTH,Study2,S,148,100,Test,User,-,,Recall,Recall1,5218,TRUTH,100,4334,4862,1,1,,,1
5e948aa20c949c2fff20eabf,41onbatvos,Trevor-ex1,1,145,2020-07-17T10:12:19-07:00,7.3647720813751,4,versionC_stim.csv,JOL_SIZE_VersionD.csv,"Large vs small D","Large vs small",WET,DRY,Study2,S,146,167,Test,User,-,,Recall,Recall1,3781,RAIN,28.571428571429,3150,3468,0,0,,,1
5e948aa20c949c2fff20eabf,41onbatvos,Trevor-ex1,1,146,2020-07-17T10:12:25-07:00,5.4219818115234,4,versionC_stim.csv,JOL_SIZE_VersionD.csv,"Large vs small D","Large vs small",SIGN,LOAN,Study2,U,171,98,Test,User,-,,Recall,Recall1,2699,,0,-1,-1,0,0,,,1
5e948aa20c949c2fff20eabf,41onbatvos,Trevor-ex1,1,147,2020-07-17T10:12:34-07:00,8.9613490104675,4,versionC_stim.csv,JOL_SIZE_VersionD.csv,"Large vs small D","Large vs small",REVENGE,EVEN,Study2,F,122,108,Test,User,-,,Recall,Recall1,6467,HURT,0,5932,6343,0,0,,,1
5e948aa20c949c2fff20eabf,41onbatvos,Trevor-ex1,1,148,2020-07-17T10:12:39-07:00,5.8382930755615,4,versionC_stim.csv,JOL_SIZE_VersionD.csv,"Large vs small D","Large vs small",HATE,NAME,Study2,U,167,140,Test,User,-,,Recall,Recall1,3737,LOVE,25,1944,2706,0,0,,,1
5e948aa20c949c2fff20eabf,41onbatvos,Trevor-ex1,1,149,2020-07-17T10:12:44-07:00,4.2784779071808,4,versionC_stim.csv,JOL_SIZE_VersionD.csv,"Large vs small D","Large vs small",SMELL,INCENSE,Study2,B,110,137,Test,User,-,,Recall,Recall1,2243,,0,-1,-1,0,0,,,1
5e948aa20c949c2fff20eabf,41onbatvos,Trevor-ex1,1,150,2020-07-17T10:12:51-07:00,7.4826440811157,4,versionC_stim.csv,JOL_SIZE_VersionD.csv,"Large vs small D","Large vs small",THIMBLE,THREAD,Study2,F,121,159,Test,User,-,,Recall,Recall1,4859,FRAGILE,30.769230769231,3491,4659,0,0,,,1
5e948aa20c949c2fff20eabf,41onbatvos,Trevor-ex1,1,151,2020-07-17T10:12:55-07:00,4.1689100265503,4,versionC_stim.csv,JOL_SIZE_VersionD.csv,"Large vs small D","Large vs small",FLIP,TURN,Study2,F,116,147,Test,User,-,,Recall,Recall1,2038,TURN,100,1562,1787,1,1,,,1
5e948aa20c949c2fff20eabf,41onbatvos,Trevor-ex1,1,152,2020-07-17T10:13:04-07:00,8.9614629745483,4,versionC_stim.csv,JOL_SIZE_VersionD.csv,"Large vs small D","Large vs small",SHAKE,SHELL,Study2,U,163,169,Test,User,-,,Recall,Recall1,6487,,0,-1,-1,0,0,,,1
5e948aa20c949c2fff20eabf,41onbatvos,Trevor-ex1,1,153,2020-07-17T10:13:09-07:00,4.6808099746704,4,versionC_stim.csv,JOL_SIZE_VersionD.csv,"Large vs small D","Large vs small",DONKEY,MULE,Study2,B,108,145,Test,User,-,,Recall,Recall1,2170,MULE,100,1489,2030,1,1,,,1
5e948aa20c949c2fff20eabf,41onbatvos,Trevor-ex1,1,154,2020-07-17T10:13:19-07:00,9.5901401042938,4,versionC_stim.csv,JOL_SIZE_VersionD.csv,"Large vs small D","Large vs small",TEMPER,TANTRUM,Study2,S,154,149,Test,User,-,,Recall,Recall1,5881,MORNING,14.285714285714,3526,4461,0,0,,,1
5e948aa20c949c2fff20eabf,41onbatvos,Trevor-ex1,1,155,2020-07-17T10:13:30-07:00,11.242805957794,4,versionC_stim.csv,JOL_SIZE_VersionD.csv,"Large vs small D","Large vs small",CHARM,VEHICLE,Study2,U,160,117,Test,User,-,,Recall,Recall1,6052,,0,-1,-1,0,0,,,1
5e948aa20c949c2fff20eabf,41onbatvos,Trevor-ex1,1,156,2020-07-17T10:13:36-07:00,5.6957740783691,4,versionC_stim.csv,JOL_SIZE_VersionD.csv,"Large vs small D","Large vs small",SEATBELT,SAFETY,Study2,S,147,104,Test,User,-,,Recall,Recall1,3737,SAFETY,100,1938,3379,1,1,,,1
5e948aa20c949c2fff20eabf,41onbatvos,Trevor-ex1,1,157,2020-07-17T10:13:43-07:00,7.4357669353485,4,versionC_stim.csv,JOL_SIZE_VersionD.csv,"Large vs small D","Large vs small",TICK,FLEA,Study2,S,151,109,Test,User,-,,Recall,Recall1,3813,LAUGH,44.444444444444,3130,3532,0,0,,,1
5e948aa20c949c2fff20eabf,41onbatvos,Trevor-ex1,1,158,2020-07-17T10:13:52-07:00,8.8703129291534,4,versionC_stim.csv,JOL_SIZE_VersionD.csv,"Large vs small D","Large vs small",SCISSORS,SHEARS,Study2,B,112,166,Test,User,-,,Recall,Recall1,6038,SHARP,72.727272727273,4204,5350,0,0,,,1
5e948aa20c949c2fff20eabf,41onbatvos,Trevor-ex1,1,159,2020-07-17T10:13:57-07:00,4.7127840518951,4,versionC_stim.csv,JOL_SIZE_VersionD.csv,"Large vs small D","Large vs small",DOG,FURRY,Study2,B,102,97,Test,User,-,,Recall,Recall1,2709,FURY,88.888888888889,1915,2307,0,1,,,1
5e948aa20c949c2fff20eabf,41onbatvos,Trevor-ex1,1,160,2020-07-17T10:14:04-07:00,6.8962020874023,4,versionC_stim.csv,JOL_SIZE_VersionD.csv,"Large vs small D","Large vs small",VILLAIN,BAD,Study2,F,118,112,Test,User,-,,Recall,Recall1,3107,BAD,100,1505,1816,1,1,,,1
5e948aa20c949c2fff20eabf,41onbatvos,Trevor-ex1,1,161,2020-07-17T10:14:12-07:00,8.5733499526978,4,versionC_stim.csv,JOL_SIZE_VersionD.csv,"Large vs small D","Large vs small",CUT,CHOP,Study2,B,107,114,Test,User,-,,Recall,Recall1,6590,,0,4261,4540,0,0,,,1
5e948aa20c949c2fff20eabf,41onbatvos,Trevor-ex1,1,162,2020-07-17T10:14:16-07:00,4.2668409347534,4,versionC_stim.csv,JOL_SIZE_VersionD.csv,"Large vs small D","Large vs small",TAN,SUN,Study2,S,155,141,Test,User,-,,Recall,Recall1,2276,SUN,100,1838,2003,1,1,,,1
5e948aa20c949c2fff20eabf,41onbatvos,Trevor-ex1,1,163,2020-07-17T10:14:20-07:00,3.9531769752502,4,versionC_stim.csv,JOL_SIZE_VersionD.csv,"Large vs small D","Large vs small",BANKER,MONEY,Study2,F,132,146,Test,User,-,,Recall,Recall1,1802,,0,-1,-1,0,0,,,1
5e948aa20c949c2fff20eabf,41onbatvos,Trevor-ex1,1,164,2020-07-17T10:14:26-07:00,5.9800629615784,4,versionC_stim.csv,JOL_SIZE_VersionD.csv,"Large vs small D","Large vs small",TIE,SHOELACE,Study2,B,99,162,Test,User,-,,Recall,Recall1,2784,SHOE,66.666666666667,2321,2639,0,0,,,1
5e948aa20c949c2fff20eabf,41onbatvos,Trevor-ex1,1,165,2020-07-17T10:14:30-07:00,3.7271280288696,4,versionC_stim.csv,JOL_SIZE_VersionD.csv,"Large vs small D","Large vs small",HAVE,OWN,Study2,S,153,170,Test,User,-,,Recall,Recall1,1906,OWN,100,1495,1665,1,1,,,1
5e948aa20c949c2fff20eabf,41onbatvos,Trevor-ex1,1,166,2020-07-17T10:14:34-07:00,3.5223300457001,4,versionC_stim.csv,JOL_SIZE_VersionD.csv,"Large vs small D","Large vs small",PENGUIN,BIRD,Study2,F,119,106,Test,User,-,,Recall,Recall1,1552,BIRD,100,1045,1484,1,1,,,1
5e948aa20c949c2fff20eabf,41onbatvos,Trevor-ex1,1,167,2020-07-17T10:14:42-07:00,8.8822560310364,4,versionC_stim.csv,JOL_SIZE_VersionD.csv,"Large vs small D","Large vs small",DRINK,WATER,Study2,S,143,101,Test,User,-,,Recall,Recall1,6416,Water,100,5538,6370,1,1,,,1
5e948aa20c949c2fff20eabf,41onbatvos,Trevor-ex1,1,168,2020-07-17T10:14:50-07:00,7.5362298488617,4,versionC_stim.csv,JOL_SIZE_VersionD.csv,"Large vs small D","Large vs small",HEAD,SCALP,Study2,B,105,156,Test,User,-,,Recall,Recall1,3092,,0,-1,-1,0,0,,,1
5e948aa20c949c2fff20eabf,41onbatvos,Trevor-ex1,1,169,2020-07-17T10:14:54-07:00,4.4440531730652,4,versionC_stim.csv,JOL_SIZE_VersionD.csv,"Large vs small D","Large vs small",AWAY,GONE,Study2,S,142,132,Test,User,-,,Recall,Recall1,2799,GONE,100,1734,2615,1,1,,,1
5e948aa20c949c2fff20eabf,41onbatvos,Trevor-ex1,1,170,2020-07-17T10:14:58-07:00,3.38560795784,4,versionC_stim.csv,JOL_SIZE_VersionD.csv,"Large vs small D","Large vs small",WINDSHIELD,CAR,Study2,F,117,138,Test,User,-,,Recall,Recall1,1813,CAR,100,1435,1658,1,1,,,1
5e948aa20c949c2fff20eabf,41onbatvos,Trevor-ex1,1,171,2020-07-17T10:15:03-07:00,5.5179209709167,4,versionC_stim.csv,JOL_SIZE_VersionD.csv,"Large vs small D","Large vs small",COMMUNICATION,PHONE,Study2,S,149,105,Test,User,-,,Recall,Recall1,3076,PHONE,100,2022,2743,1,1,,,1
5e948aa20c949c2fff20eabf,41onbatvos,Trevor-ex1,1,172,2020-07-17T10:15:12-07:00,8.5250279903412,4,versionC_stim.csv,JOL_SIZE_VersionD.csv,"Large vs small D","Large vs small",BALLOON,POP,Study2,F,123,172,Test,User,-,,Recall,Recall1,3066,POP,100,2463,2804,1,1,,,1
5e948aa20c949c2fff20eabf,41onbatvos,Trevor-ex1,1,173,2020-07-17T10:15:18-07:00,6.5869801044464,4,versionC_stim.csv,JOL_SIZE_VersionD.csv,"Large vs small D","Large vs small",END,ADJOURN,Study2,B,101,99,Test,User,-,,Recall,Recall1,3419,FINISH,15.384615384615,2697,3166,0,0,,,1
5e948aa20c949c2fff20eabf,41onbatvos,Trevor-ex1,1,174,2020-07-17T10:15:24-07:00,5.2509880065918,4,versionC_stim.csv,JOL_SIZE_VersionD.csv,"Large vs small D","Large vs small",BRACELET,WRIST,Study2,S,140,168,Test,User,-,,Recall,Recall1,3352,WRIST,100,2550,3272,1,1,,,1
5e948aa20c949c2fff20eabf,41onbatvos,Trevor-ex1,1,175,2020-07-17T10:15:29-07:00,5.0817658901215,4,versionC_stim.csv,JOL_SIZE_VersionD.csv,"Large vs small D","Large vs small",ACTRESS,STAR,Study2,F,120,139,Test,User,-,,Recall,Recall1,3005,STAR,100,2438,2920,1,1,,,1
5e948aa20c949c2fff20eabf,41onbatvos,Trevor-ex1,1,176,2020-07-17T10:15:35-07:00,5.7951729297638,4,versionC_stim.csv,JOL_SIZE_VersionD.csv,"Large vs small D","Large vs small",MORNING,TEMPERATURE,Study2,U,173,165,Test,User,-,,Recall,Recall1,3579,TEMPERATURE,100,1948,3307,1,1,,,1
5e948aa20c949c2fff20eabf,41onbatvos,Trevor-ex1,1,177,2020-07-17T10:15:42-07:00,7.5190510749817,4,versionC_stim.csv,JOL_SIZE_VersionD.csv,"Large vs small D","Large vs small",SARDINE,FISH,Study2,F,130,143,Test,User,-,,Recall,Recall1,4044,FISH,100,3530,3754,1,1,,,0.222
5e948aa20c949c2fff20eabf,41onbatvos,Trevor-ex1,1,178,2020-07-17T10:15:52-07:00,10.096677064896,4,versionC_stim.csv,JOL_SIZE_VersionD.csv,"Large vs small D","Large vs small",REEL,ROD,Study2,S,150,155,Test,User,-,,Recall,Recall1,4607,ROD,100,4118,4475,1,1,,,0.684
5e948aa20c949c2fff20eabf,41onbatvos,Trevor-ex1,1,179,2020-07-17T10:19:15-07:00,202.77401185036,4,versionC_stim.csv,JOL_SIZE_VersionD.csv,"Large vs small D","Large vs small",,,,,,0,Instruct,-,10,"You will now be presented with a new set of word pairs. Please study each pair. Remember that your memory will be tested! When finished, press Enter to move to the next pair.",Initial_Instruct,Instruct4,200491,,,-1,-1,,,,,0.027
5e948aa20c949c2fff20eabf,41onbatvos,Trevor-ex1,1,180,2020-07-17T10:19:36-07:00,21.083614110947,4,versionC_stim.csv,JOL_SIZE_VersionD.csv,"Large vs small D","Large vs small",,,,,,0,Instruct,,10,"You will again be asked to rate your ability to remember these items using a 0 to 100 scale. Remember to use the full range of the scale!",,Instruct10,15087,,,-1,-1,,,,,0.275
5e948aa20c949c2fff20eabf,41onbatvos,Trevor-ex1,1,181,2020-07-17T10:19:51-07:00,14.746213912964,4,versionC_stim.csv,JOL_SIZE_VersionD.csv,"Large vs small D","Large vs small",,,,,,0,Instruct,User,-,"Press Enter when you are readty to begin",,Instruct11,7339,,,-1,-1,,,,,0.636
5e948aa20c949c2fff20eabf,41onbatvos,Trevor-ex1,1,182,2020-07-17T10:20:02-07:00,11.037647008896,4,versionC_stim.csv,JOL_SIZE_VersionD.csv,"Large vs small D","Large vs small",CATCHER,BASEBALL,BUFFER1,Buffer,2,4,JOL_Small,User,-,"How likely are you to correctly recall the second item in the pair?|Type your response on a scale from 0-100 and then press Enter.",Study/JOL,BUFFER3,5886,,,4688,5370,,,,100,0.444
5e948aa20c949c2fff20eabf,41onbatvos,Trevor-ex1,1,183,2020-07-17T10:20:12-07:00,9.9471600055695,4,versionC_stim.csv,JOL_SIZE_VersionD.csv,"Large vs small D","Large vs small",BUTTER,PEANUT,BUFFER1,Buffer,3,2,JOL_Small,User,-,"How likely are you to correctly recall the second item in the pair?|Type your response on a scale from 0-100 and then press Enter.",Study/JOL,BUFFER3,3887,,,2662,3305,,,,100,0.385
5e948aa20c949c2fff20eabf,41onbatvos,Trevor-ex1,1,184,2020-07-17T10:20:18-07:00,6.2266521453857,4,versionC_stim.csv,JOL_SIZE_VersionD.csv,"Large vs small D","Large vs small",JAM,SPACE,BUFFER1,Buffer,5,6,JOL_Large,User,-,"How likely are you to correctly recall the second item in the pair?|Type your response on a scale from 0-100 and then press Enter.",Study/JOL,BUFFER3,4084,,,2767,3586,,,,100,0.529
5e948aa20c949c2fff20eabf,41onbatvos,Trevor-ex1,1,185,2020-07-17T10:20:24-07:00,6.4505178928375,4,versionC_stim.csv,JOL_SIZE_VersionD.csv,"Large vs small D","Large vs small",GREEN,TREES,BUFFER1,Buffer,1,3,JOL_Small,User,-,"How likely are you to correctly recall the second item in the pair?|Type your response on a scale from 0-100 and then press Enter.",Study/JOL,BUFFER3,3401,,,2342,3086,,,,100,0.333
5e948aa20c949c2fff20eabf,41onbatvos,Trevor-ex1,1,186,2020-07-17T10:20:34-07:00,9.8853890895844,4,versionC_stim.csv,JOL_SIZE_VersionD.csv,"Large vs small D","Large vs small",HIDE,SCARE,BUFFER1,Buffer,4,5,JOL_Large,User,-,"How likely are you to correctly recall the second item in the pair?|Type your response on a scale from 0-100 and then press Enter.",Study/JOL,BUFFER3,6911,,,5756,6303,,,,100,0.407
5e948aa20c949c2fff20eabf,41onbatvos,Trevor-ex1,1,187,2020-07-17T10:20:40-07:00,5.394749879837,4,versionC_stim.csv,JOL_SIZE_VersionD.csv,"Large vs small D","Large vs small",SIP,DRINK,Study1,F,27,8,JOL_Small,User,-,"How likely are you to correctly recall the second item in the pair?|Type your response on a scale from 0-100 and then press Enter.",Study/JOL,"Study Phase2",2758,,,1866,2411,,,,100,0.333
5e948aa20c949c2fff20eabf,41onbatvos,Trevor-ex1,1,188,2020-07-17T10:20:45-07:00,5.3092510700226,4,versionC_stim.csv,JOL_SIZE_VersionD.csv,"Large vs small D","Large vs small",LION,ART,Study1,U,79,33,JOL_Small,User,-,"How likely are you to correctly recall the second item in the pair?|Type your response on a scale from 0-100 and then press Enter.",Study/JOL,"Study Phase2",2229,,,1754,1754,,,,0,0.6
5e948aa20c949c2fff20eabf,41onbatvos,Trevor-ex1,1,189,2020-07-17T10:20:50-07:00,4.6925630569458,4,versionC_stim.csv,JOL_SIZE_VersionD.csv,"Large vs small D","Large vs small",BAR,GRILL,Study1,S,52,81,JOL_Large,User,-,"How likely are you to correctly recall the second item in the pair?|Type your response on a scale from 0-100 and then press Enter.",Study/JOL,"Study Phase2",2425,,,1332,2145,,,,100,1
5e948aa20c949c2fff20eabf,41onbatvos,Trevor-ex1,1,190,2020-07-17T10:20:54-07:00,4.3856918811798,4,versionC_stim.csv,JOL_SIZE_VersionD.csv,"Large vs small D","Large vs small",SALAD,LETTUCE,Study1,S,59,39,JOL_Small,User,-,"How likely are you to correctly recall the second item in the pair?|Type your response on a scale from 0-100 and then press Enter.",Study/JOL,"Study Phase2",2528,,,1420,2064,,,,100,1
5e948aa20c949c2fff20eabf,41onbatvos,Trevor-ex1,1,191,2020-07-17T10:21:01-07:00,6.799124956131,4,versionC_stim.csv,JOL_SIZE_VersionD.csv,"Large vs small D","Large vs small",WAR,REVOLUTION,Study1,B,20,28,JOL_Small,User,-,"How likely are you to correctly recall the second item in the pair?|Type your response on a scale from 0-100 and then press Enter.",Study/JOL,"Study Phase2",2702,,,1466,2135,,,,100,1
5e948aa20c949c2fff20eabf,41onbatvos,Trevor-ex1,1,192,2020-07-17T10:21:07-07:00,6.4027321338654,4,versionC_stim.csv,JOL_SIZE_VersionD.csv,"Large vs small D","Large vs small",POSITION,MACHINE,Study1,U,76,7,JOL_Small,User,-,"How likely are you to correctly recall the second item in the pair?|Type your response on a scale from 0-100 and then press Enter.",Study/JOL,"Study Phase2",3083,,,1973,2672,,,,100,0.615
5e948aa20c949c2fff20eabf,41onbatvos,Trevor-ex1,1,193,2020-07-17T10:21:12-07:00,5.1929290294647,4,versionC_stim.csv,JOL_SIZE_VersionD.csv,"Large vs small D","Large vs small",LIVER,KIDNEY,Study1,S,53,34,JOL_Small,User,-,"How likely are you to correctly recall the second item in the pair?|Type your response on a scale from 0-100 and then press Enter.",Study/JOL,"Study Phase2",2919,,,1867,2442,,,,100,0.385
5e948aa20c949c2fff20eabf,41onbatvos,Trevor-ex1,1,194,2020-07-17T10:21:18-07:00,5.3513069152832,4,versionC_stim.csv,JOL_SIZE_VersionD.csv,"Large vs small D","Large vs small",END,BEGIN,Study1,S,54,37,JOL_Small,User,-,"How likely are you to correctly recall the second item in the pair?|Type your response on a scale from 0-100 and then press Enter.",Study/JOL,"Study Phase2",2345,,,1441,1959,,,,100,1
5e948aa20c949c2fff20eabf,41onbatvos,Trevor-ex1,1,195,2020-07-17T10:21:22-07:00,4.4037079811096,4,versionC_stim.csv,JOL_SIZE_VersionD.csv,"Large vs small D","Large vs small",CHILD,BABY,Study1,S,64,69,JOL_Large,User,-,"How likely are you to correctly recall the second item in the pair?|Type your response on a scale from 0-100 and then press Enter.",Study/JOL,"Study Phase2",1941,,,1180,1569,,,,100,0.556
5e948aa20c949c2fff20eabf,41onbatvos,Trevor-ex1,1,196,2020-07-17T10:21:29-07:00,7.1582250595093,4,versionC_stim.csv,JOL_SIZE_VersionD.csv,"Large vs small D","Large vs small",ACCIDENT,STRONG,Study1,U,80,77,JOL_Large,User,-,"How likely are you to correctly recall the second item in the pair?|Type your response on a scale from 0-100 and then press Enter.",Study/JOL,"Study Phase2",3374,,,2988,2988,,,,0,0.267
5e948aa20c949c2fff20eabf,41onbatvos,Trevor-ex1,1,197,2020-07-17T10:21:38-07:00,8.9833519458771,4,versionC_stim.csv,JOL_SIZE_VersionD.csv,"Large vs small D","Large vs small",WASP,BUG,Study1,F,32,29,JOL_Small,User,-,"How likely are you to correctly recall the second item in the pair?|Type your response on a scale from 0-100 and then press Enter.",Study/JOL,"Study Phase2",5818,,,4477,4985,,,,100,0.2
5e948aa20c949c2fff20eabf,41onbatvos,Trevor-ex1,1,198,2020-07-17T10:21:51-07:00,12.206876039505,4,versionC_stim.csv,JOL_SIZE_VersionD.csv,"Large vs small D","Large vs small",WOMAN,LIFT,Study1,U,69,47,JOL_Large,User,-,"How likely are you to correctly recall the second item in the pair?|Type your response on a scale from 0-100 and then press Enter.",Study/JOL,"Study Phase2",9550,,,8656,8656,,,,0,0.071
5e948aa20c949c2fff20eabf,41onbatvos,Trevor-ex1,1,199,2020-07-17T10:21:54-07:00,3.8001439571381,4,versionC_stim.csv,JOL_SIZE_VersionD.csv,"Large vs small D","Large vs small",ENOUGH,FULL,Study1,F,26,86,JOL_Large,User,-,"How likely are you to correctly recall the second item in the pair?|Type your response on a scale from 0-100 and then press Enter.",Study/JOL,"Study Phase2",2037,,,1061,1643,,,,100,1
5e948aa20c949c2fff20eabf,41onbatvos,Trevor-ex1,1,200,2020-07-17T10:21:59-07:00,4.7693340778351,4,versionC_stim.csv,JOL_SIZE_VersionD.csv,"Large vs small D","Large vs small",CLUTTER,PUSHER,Study1,U,66,26,JOL_Small,User,-,"How likely are you to correctly recall the second item in the pair?|Type your response on a scale from 0-100 and then press Enter.",Study/JOL,"Study Phase2",2669,,,2211,2211,,,,0,1
5e948aa20c949c2fff20eabf,41onbatvos,Trevor-ex1,1,201,2020-07-17T10:22:04-07:00,5.198637008667,4,versionC_stim.csv,JOL_SIZE_VersionD.csv,"Large vs small D","Large vs small",ROCK,GEOLOGY,Study1,B,19,35,JOL_Small,User,-,"How likely are you to correctly recall the second item in the pair?|Type your response on a scale from 0-100 and then press Enter.",Study/JOL,"Study Phase2",3271,,,1644,2888,,,,100,1
5e948aa20c949c2fff20eabf,41onbatvos,Trevor-ex1,1,202,2020-07-17T10:22:11-07:00,6.9957089424133,4,versionC_stim.csv,JOL_SIZE_VersionD.csv,"Large vs small D","Large vs small",COW,HERD,Study1,B,22,17,JOL_Small,User,-,"How likely are you to correctly recall the second item in the pair?|Type your response on a scale from 0-100 and then press Enter.",Study/JOL,"Study Phase2",3627,,,2457,3040,,,,100,1
5e948aa20c949c2fff20eabf,41onbatvos,Trevor-ex1,1,203,2020-07-17T10:22:21-07:00,10.001698970795,4,versionC_stim.csv,JOL_SIZE_VersionD.csv,"Large vs small D","Large vs small",SACKING,DIETARY,Study1,U,67,79,JOL_Large,User,-,"How likely are you to correctly recall the second item in the pair?|Type your response on a scale from 0-100 and then press Enter.",Study/JOL,"Study Phase2",3352,,,2968,2969,,,,0,0.357
5e948aa20c949c2fff20eabf,41onbatvos,Trevor-ex1,1,204,2020-07-17T10:22:27-07:00,5.217365026474,4,versionC_stim.csv,JOL_SIZE_VersionD.csv,"Large vs small D","Large vs small",ROUND,CIRCLE,Study1,S,65,23,JOL_Small,User,-,"How likely are you to correctly recall the second item in the pair?|Type your response on a scale from 0-100 and then press Enter.",Study/JOL,"Study Phase2",2709,,,1490,2150,,,,100,1
5e948aa20c949c2fff20eabf,41onbatvos,Trevor-ex1,1,205,2020-07-17T10:22:31-07:00,4.6275300979614,4,versionC_stim.csv,JOL_SIZE_VersionD.csv,"Large vs small D","Large vs small",STENCH,SMELL,Study1,F,42,36,JOL_Small,User,-,"How likely are you to correctly recall the second item in the pair?|Type your response on a scale from 0-100 and then press Enter.",Study/JOL,"Study Phase2",2758,,,1760,2351,,,,100,1
5e948aa20c949c2fff20eabf,41onbatvos,Trevor-ex1,1,206,2020-07-17T10:22:36-07:00,4.6509528160095,4,versionC_stim.csv,JOL_SIZE_VersionD.csv,"Large vs small D","Large vs small",FOOT,SHOE,Study1,S,60,43,JOL_Small,User,-,"How likely are you to correctly recall the second item in the pair?|Type your response on a scale from 0-100 and then press Enter.",Study/JOL,"Study Phase2",2347,,,1408,2027,,,,100,1
5e948aa20c949c2fff20eabf,41onbatvos,Trevor-ex1,1,207,2020-07-17T10:22:42-07:00,5.812215089798,4,versionC_stim.csv,JOL_SIZE_VersionD.csv,"Large vs small D","Large vs small",FANTASTIC,GREAT,Study1,F,35,31,JOL_Small,User,-,"How likely are you to correctly recall the second item in the pair?|Type your response on a scale from 0-100 and then press Enter.",Study/JOL,"Study Phase2",2651,,,1516,2206,,,,100,1
5e948aa20c949c2fff20eabf,41onbatvos,Trevor-ex1,1,208,2020-07-17T10:22:47-07:00,5.0167829990387,4,versionC_stim.csv,JOL_SIZE_VersionD.csv,"Large vs small D","Large vs small",SITE,LOCATION,Study1,S,48,27,JOL_Small,User,-,"How likely are you to correctly recall the second item in the pair?|Type your response on a scale from 0-100 and then press Enter.",Study/JOL,"Study Phase2",2507,,,1464,2015,,,,100,1
5e948aa20c949c2fff20eabf,41onbatvos,Trevor-ex1,1,209,2020-07-17T10:22:51-07:00,4.3079960346222,4,versionC_stim.csv,JOL_SIZE_VersionD.csv,"Large vs small D","Large vs small",ASSIGNMENT,DUE,Study1,S,46,74,JOL_Large,User,-,"How likely are you to correctly recall the second item in the pair?|Type your response on a scale from 0-100 and then press Enter.",Study/JOL,"Study Phase2",2413,,,1366,2015,,,,100,1
5e948aa20c949c2fff20eabf,41onbatvos,Trevor-ex1,1,210,2020-07-17T10:22:59-07:00,8.1851508617401,4,versionC_stim.csv,JOL_SIZE_VersionD.csv,"Large vs small D","Large vs small",BIRD,SWAN,Study1,B,14,68,JOL_Large,User,-,"How likely are you to correctly recall the second item in the pair?|Type your response on a scale from 0-100 and then press Enter.",Study/JOL,"Study Phase2",4807,,,3928,4546,,,,100,0.19
5e948aa20c949c2fff20eabf,41onbatvos,Trevor-ex1,1,211,2020-07-17T10:23:04-07:00,4.6089751720428,4,versionC_stim.csv,JOL_SIZE_VersionD.csv,"Large vs small D","Large vs small",BELT,SOON,Study1,U,70,54,JOL_Large,User,-,"How likely are you to correctly recall the second item in the pair?|Type your response on a scale from 0-100 and then press Enter.",Study/JOL,"Study Phase2",2858,,,810,2480,,,,0,1
5e948aa20c949c2fff20eabf,41onbatvos,Trevor-ex1,1,212,2020-07-17T10:23:09-07:00,5.4998159408569,4,versionC_stim.csv,JOL_SIZE_VersionD.csv,"Large vs small D","Large vs small",CAR,HAPPY,Study1,U,77,24,JOL_Small,User,-,"How likely are you to correctly recall the second item in the pair?|Type your response on a scale from 0-100 and then press Enter.",Study/JOL,"Study Phase2",2315,,,2014,2014,,,,0,1
5e948aa20c949c2fff20eabf,41onbatvos,Trevor-ex1,1,213,2020-07-17T10:23:23-07:00,13.687105894089,4,versionC_stim.csv,JOL_SIZE_VersionD.csv,"Large vs small D","Large vs small",SODA,POP,Study1,S,56,40,JOL_Small,User,-,"How likely are you to correctly recall the second item in the pair?|Type your response on a scale from 0-100 and then press Enter.",Study/JOL,"Study Phase2",10770,,,9352,10342,,,,100,0.186
5e948aa20c949c2fff20eabf,41onbatvos,Trevor-ex1,1,214,2020-07-17T10:23:31-07:00,7.8392791748047,4,versionC_stim.csv,JOL_SIZE_VersionD.csv,"Large vs small D","Large vs small",AMOUNT,NUMBER,Study1,S,47,75,JOL_Large,User,-,"How likely are you to correctly recall the second item in the pair?|Type your response on a scale from 0-100 and then press Enter.",Study/JOL,"Study Phase2",2732,,,1802,2294,,,,100,0.385
5e948aa20c949c2fff20eabf,41onbatvos,Trevor-ex1,1,215,2020-07-17T10:23:39-07:00,7.8597078323364,4,versionC_stim.csv,JOL_SIZE_VersionD.csv,"Large vs small D","Large vs small",GROWTH,HEIGHT,Study1,F,30,66,JOL_Large,User,-,"How likely are you to correctly recall the second item in the pair?|Type your response on a scale from 0-100 and then press Enter.",Study/JOL,"Study Phase2",4977,,,4576,4577,,,,0,0.273
5e948aa20c949c2fff20eabf,41onbatvos,Trevor-ex1,1,216,2020-07-17T10:23:53-07:00,14.382382154465,4,versionC_stim.csv,JOL_SIZE_VersionD.csv,"Large vs small D","Large vs small",CHEESE,WINE,Study1,S,57,45,JOL_Small,User,-,"How likely are you to correctly recall the second item in the pair?|Type your response on a scale from 0-100 and then press Enter.",Study/JOL,"Study Phase2",12795,,,12101,12102,,,,0,1
5e948aa20c949c2fff20eabf,41onbatvos,Trevor-ex1,1,217,2020-07-17T10:24:04-07:00,10.896085977554,4,versionC_stim.csv,JOL_SIZE_VersionD.csv,"Large vs small D","Large vs small",DIVISION,MATH,Study1,F,33,64,JOL_Large,User,-,"How likely are you to correctly recall the second item in the pair?|Type your response on a scale from 0-100 and then press Enter.",Study/JOL,"Study Phase2",7827,,,4731,7193,,,,100,0.5
5e948aa20c949c2fff20eabf,41onbatvos,Trevor-ex1,1,218,2020-07-17T10:24:14-07:00,10.461124897003,4,versionC_stim.csv,JOL_SIZE_VersionD.csv,"Large vs small D","Large vs small",BEE,HONEY,Study1,S,63,71,JOL_Large,User,-,"How likely are you to correctly recall the second item in the pair?|Type your response on a scale from 0-100 and then press Enter.",Study/JOL,"Study Phase2",8020,,,6467,7656,,,,100,0.194
5e948aa20c949c2fff20eabf,41onbatvos,Trevor-ex1,1,219,2020-07-17T10:24:23-07:00,8.2259650230408,4,versionC_stim.csv,JOL_SIZE_VersionD.csv,"Large vs small D","Large vs small",SEIZE,TAKE,Study1,F,29,41,JOL_Small,User,-,"How likely are you to correctly recall the second item in the pair?|Type your response on a scale from 0-100 and then press Enter.",Study/JOL,"Study Phase2",6429,,,4922,5879,,,,100,1
5e948aa20c949c2fff20eabf,41onbatvos,Trevor-ex1,1,220,2020-07-17T10:24:41-07:00,18.240670919418,4,versionC_stim.csv,JOL_SIZE_VersionD.csv,"Large vs small D","Large vs small",RACKET,BALL,Study1,F,38,62,JOL_Large,User,-,"How likely are you to correctly recall the second item in the pair?|Type your response on a scale from 0-100 and then press Enter.",Study/JOL,"Study Phase2",15249,,,14198,14728,,,,100,0.075
5e948aa20c949c2fff20eabf,41onbatvos,Trevor-ex1,1,221,2020-07-17T10:24:47-07:00,6.2775740623474,4,versionC_stim.csv,JOL_SIZE_VersionD.csv,"Large vs small D","Large vs small",FISH,TUNA,Study1,B,25,22,JOL_Small,User,-,"How likely are you to correctly recall the second item in the pair?|Type your response on a scale from 0-100 and then press Enter.",Study/JOL,"Study Phase2",2592,,,1388,2198,,,,100,1
5e948aa20c949c2fff20eabf,41onbatvos,Trevor-ex1,1,222,2020-07-17T10:24:52-07:00,4.800656080246,4,versionC_stim.csv,JOL_SIZE_VersionD.csv,"Large vs small D","Large vs small",CARD,CREDIT,Study1,B,23,42,JOL_Small,User,-,"How likely are you to correctly recall the second item in the pair?|Type your response on a scale from 0-100 and then press Enter.",Study/JOL,"Study Phase2",2843,,,1667,2295,,,,100,1
5e948aa20c949c2fff20eabf,41onbatvos,Trevor-ex1,1,223,2020-07-17T10:24:57-07:00,4.7934880256653,4,versionC_stim.csv,JOL_SIZE_VersionD.csv,"Large vs small D","Large vs small",BUSINESS,DEATH,Study1,U,72,30,JOL_Small,User,-,"How likely are you to correctly recall the second item in the pair?|Type your response on a scale from 0-100 and then press Enter.",Study/JOL,"Study Phase2",2221,,,1692,1692,,,,0,1
5e948aa20c949c2fff20eabf,41onbatvos,Trevor-ex1,1,224,2020-07-17T10:25:11-07:00,14.563405036926,4,versionC_stim.csv,JOL_SIZE_VersionD.csv,"Large vs small D","Large vs small",DESIGN,ARCHITECTURE,Study1,S,51,61,JOL_Large,User,-,"How likely are you to correctly recall the second item in the pair?|Type your response on a scale from 0-100 and then press Enter.",Study/JOL,"Study Phase2",11677,,,11230,11230,,,,0,0.075
5e948aa20c949c2fff20eabf,41onbatvos,Trevor-ex1,1,225,2020-07-17T10:25:18-07:00,6.2121319770813,4,versionC_stim.csv,JOL_SIZE_VersionD.csv,"Large vs small D","Large vs small",STOMACH,DIGESTION,Study1,B,7,13,JOL_Small,User,-,"How likely are you to correctly recall the second item in the pair?|Type your response on a scale from 0-100 and then press Enter.",Study/JOL,"Study Phase2",3010,,,1969,2550,,,,100,1
5e948aa20c949c2fff20eabf,41onbatvos,Trevor-ex1,1,226,2020-07-17T10:25:26-07:00,8.8163449764252,4,versionC_stim.csv,JOL_SIZE_VersionD.csv,"Large vs small D","Large vs small",ATTIRE,CLOTHES,Study1,F,43,52,JOL_Large,User,-,"How likely are you to correctly recall the second item in the pair?|Type your response on a scale from 0-100 and then press Enter.",Study/JOL,"Study Phase2",4918,,,4326,4725,,,,100,0.158
5e948aa20c949c2fff20eabf,41onbatvos,Trevor-ex1,1,227,2020-07-17T10:25:35-07:00,8.8019778728485,4,versionC_stim.csv,JOL_SIZE_VersionD.csv,"Large vs small D","Large vs small",PILOT,PLANE,Study1,F,44,73,JOL_Large,User,-,"How likely are you to correctly recall the second item in the pair?|Type your response on a scale from 0-100 and then press Enter.",Study/JOL,"Study Phase2",5053,,,3911,4725,,,,100,0.261
5e948aa20c949c2fff20eabf,41onbatvos,Trevor-ex1,1,228,2020-07-17T10:25:44-07:00,8.8876891136169,4,versionC_stim.csv,JOL_SIZE_VersionD.csv,"Large vs small D","Large vs small",WATER,BRIDGE,Study1,B,18,25,JOL_Small,User,-,"How likely are you to correctly recall the second item in the pair?|Type your response on a scale from 0-100 and then press Enter.",Study/JOL,"Study Phase2",5251,,,4373,5004,,,,100,0.208
5e948aa20c949c2fff20eabf,41onbatvos,Trevor-ex1,1,229,2020-07-17T10:25:49-07:00,4.6158020496368,4,versionC_stim.csv,JOL_SIZE_VersionD.csv,"Large vs small D","Large vs small",LATCH,KEY,Study1,F,36,70,JOL_Large,User,-,"How likely are you to correctly recall the second item in the pair?|Type your response on a scale from 0-100 and then press Enter.",Study/JOL,"Study Phase2",2000,,,1753,1753,,,,0,0.333
5e948aa20c949c2fff20eabf,41onbatvos,Trevor-ex1,1,230,2020-07-17T10:26:37-07:00,48.222843885422,4,versionC_stim.csv,JOL_SIZE_VersionD.csv,"Large vs small D","Large vs small",HUNGRY,PARK,Study1,U,68,80,JOL_Large,User,-,"How likely are you to correctly recall the second item in the pair?|Type your response on a scale from 0-100 and then press Enter.",Study/JOL,"Study Phase2",46194,,,45779,45779,,,,0,0.014
5e948aa20c949c2fff20eabf,41onbatvos,Trevor-ex1,1,231,2020-07-17T10:26:43-07:00,6.1440191268921,4,versionC_stim.csv,JOL_SIZE_VersionD.csv,"Large vs small D","Large vs small",DROWSY,SLEEP,Study1,F,41,11,JOL_Small,User,-,"How likely are you to correctly recall the second item in the pair?|Type your response on a scale from 0-100 and then press Enter.",Study/JOL,"Study Phase2",2841,,,1893,2605,,,,100,0.333
5e948aa20c949c2fff20eabf,41onbatvos,Trevor-ex1,1,232,2020-07-17T10:26:51-07:00,7.7796897888184,4,versionC_stim.csv,JOL_SIZE_VersionD.csv,"Large vs small D","Large vs small",VASE,KING,Study1,U,85,18,JOL_Small,User,-,"How likely are you to correctly recall the second item in the pair?|Type your response on a scale from 0-100 and then press Enter.",Study/JOL,"Study Phase2",5432,,,4278,4279,,,,0,0.292
5e948aa20c949c2fff20eabf,41onbatvos,Trevor-ex1,1,233,2020-07-17T10:27:06-07:00,15.417986154556,4,versionC_stim.csv,JOL_SIZE_VersionD.csv,"Large vs small D","Large vs small",FLOWER,ORCHID,Study1,B,24,12,JOL_Small,User,-,"How likely are you to correctly recall the second item in the pair?|Type your response on a scale from 0-100 and then press Enter.",Study/JOL,"Study Phase2",13090,,,12615,12615,,,,0,0.081
5e948aa20c949c2fff20eabf,41onbatvos,Trevor-ex1,1,234,2020-07-17T10:27:12-07:00,5.5416920185089,4,versionC_stim.csv,JOL_SIZE_VersionD.csv,"Large vs small D","Large vs small",DEFINITION,MEANING,Study1,S,62,48,JOL_Large,User,-,"How likely are you to correctly recall the second item in the pair?|Type your response on a scale from 0-100 and then press Enter.",Study/JOL,"Study Phase2",2835,,,1889,2371,,,,100,0.364
5e948aa20c949c2fff20eabf,41onbatvos,Trevor-ex1,1,235,2020-07-17T10:27:18-07:00,6.4962048530579,4,versionC_stim.csv,JOL_SIZE_VersionD.csv,"Large vs small D","Large vs small",ADD,VALLEY,Study1,U,82,32,JOL_Small,User,-,"How likely are you to correctly recall the second item in the pair?|Type your response on a scale from 0-100 and then press Enter.",Study/JOL,"Study Phase2",2584,,,2151,2151,,,,0,0.3
5e948aa20c949c2fff20eabf,41onbatvos,Trevor-ex1,1,236,2020-07-17T10:27:24-07:00,5.6910970211029,4,versionC_stim.csv,JOL_SIZE_VersionD.csv,"Large vs small D","Large vs small",RIDDLE,SUGAR,Study1,U,81,44,JOL_Small,User,-,"How likely are you to correctly recall the second item in the pair?|Type your response on a scale from 0-100 and then press Enter.",Study/JOL,"Study Phase2",3386,,,3000,3001,,,,0,0.375
5e948aa20c949c2fff20eabf,41onbatvos,Trevor-ex1,1,237,2020-07-17T10:27:30-07:00,6.4894640445709,4,versionC_stim.csv,JOL_SIZE_VersionD.csv,"Large vs small D","Large vs small",WIND,BLOW,Study1,S,55,58,JOL_Large,User,-,"How likely are you to correctly recall the second item in the pair?|Type your response on a scale from 0-100 and then press Enter.",Study/JOL,"Study Phase2",2489,,,1714,2180,,,,100,0.4
5e948aa20c949c2fff20eabf,41onbatvos,Trevor-ex1,1,238,2020-07-17T10:27:35-07:00,5.0226149559021,4,versionC_stim.csv,JOL_SIZE_VersionD.csv,"Large vs small D","Large vs small",WORD,SENTENCE,Study1,F,31,60,JOL_Large,User,-,"How likely are you to correctly recall the second item in the pair?|Type your response on a scale from 0-100 and then press Enter.",Study/JOL,"Study Phase2",2482,,,1532,2128,,,,100,1
5e948aa20c949c2fff20eabf,41onbatvos,Trevor-ex1,1,239,2020-07-17T10:27:40-07:00,4.5177049636841,4,versionC_stim.csv,JOL_SIZE_VersionD.csv,"Large vs small D","Large vs small",FUTURE,PAST,Study1,S,61,9,JOL_Small,User,-,"How likely are you to correctly recall the second item in the pair?|Type your response on a scale from 0-100 and then press Enter.",Study/JOL,"Study Phase2",2658,,,1689,2260,,,,100,1
5e948aa20c949c2fff20eabf,41onbatvos,Trevor-ex1,1,240,2020-07-17T10:28:23-07:00,43.160179138184,4,versionC_stim.csv,JOL_SIZE_VersionD.csv,"Large vs small D","Large vs small",OUT,WAY,Study1,B,16,50,JOL_Large,User,-,"How likely are you to correctly recall the second item in the pair?|Type your response on a scale from 0-100 and then press Enter.",Study/JOL,"Study Phase2",40624,,,39707,40198,,,,100,0.054
5e948aa20c949c2fff20eabf,41onbatvos,Trevor-ex1,1,241,2020-07-17T10:28:29-07:00,6.1728699207306,4,versionC_stim.csv,JOL_SIZE_VersionD.csv,"Large vs small D","Large vs small",BAD,DELINQUENT,Study1,B,6,59,JOL_Large,User,-,"How likely are you to correctly recall the second item in the pair?|Type your response on a scale from 0-100 and then press Enter.",Study/JOL,"Study Phase2",3494,,,2960,2961,,,,0,0.533
5e948aa20c949c2fff20eabf,41onbatvos,Trevor-ex1,1,242,2020-07-17T10:28:35-07:00,5.9097311496735,4,versionC_stim.csv,JOL_SIZE_VersionD.csv,"Large vs small D","Large vs small",COLD,BITTER,Study1,B,12,76,JOL_Large,User,-,"How likely are you to correctly recall the second item in the pair?|Type your response on a scale from 0-100 and then press Enter.",Study/JOL,"Study Phase2",3104,,,2091,2661,,,,100,0.308
5e948aa20c949c2fff20eabf,41onbatvos,Trevor-ex1,1,243,2020-07-17T10:28:41-07:00,5.6987338066101,4,versionC_stim.csv,JOL_SIZE_VersionD.csv,"Large vs small D","Large vs small",PLANT,ROOT,Study1,B,13,57,JOL_Large,User,-,"How likely are you to correctly recall the second item in the pair?|Type your response on a scale from 0-100 and then press Enter.",Study/JOL,"Study Phase2",2838,,,1730,2353,,,,100,0.5
5e948aa20c949c2fff20eabf,41onbatvos,Trevor-ex1,1,244,2020-07-17T10:28:48-07:00,6.8011820316315,4,versionC_stim.csv,JOL_SIZE_VersionD.csv,"Large vs small D","Large vs small",STING,HORNET,Study1,B,11,49,JOL_Large,User,-,"How likely are you to correctly recall the second item in the pair?|Type your response on a scale from 0-100 and then press Enter.",Study/JOL,"Study Phase2",4270,,,3240,3882,,,,100,1
5e948aa20c949c2fff20eabf,41onbatvos,Trevor-ex1,1,245,2020-07-17T10:28:56-07:00,7.9881541728973,4,versionC_stim.csv,JOL_SIZE_VersionD.csv,"Large vs small D","Large vs small",HAND,FIX,Study1,U,75,53,JOL_Large,User,-,"How likely are you to correctly recall the second item in the pair?|Type your response on a scale from 0-100 and then press Enter.",Study/JOL,"Study Phase2",3902,,,3401,3402,,,,0,0.4
5e948aa20c949c2fff20eabf,41onbatvos,Trevor-ex1,1,246,2020-07-17T10:29:04-07:00,7.9802088737488,4,versionC_stim.csv,JOL_SIZE_VersionD.csv,"Large vs small D","Large vs small",WASTE,DUMP,Study1,S,49,84,JOL_Large,User,-,"How likely are you to correctly recall the second item in the pair?|Type your response on a scale from 0-100 and then press Enter.",Study/JOL,"Study Phase2",2313,,,1596,2266,,,,100,0.25
5e948aa20c949c2fff20eabf,41onbatvos,Trevor-ex1,1,247,2020-07-17T10:29:30-07:00,26.589251995087,4,versionC_stim.csv,JOL_SIZE_VersionD.csv,"Large vs small D","Large vs small",HAMMER,CHISEL,Study1,B,9,38,JOL_Small,User,-,"How likely are you to correctly recall the second item in the pair?|Type your response on a scale from 0-100 and then press Enter.",Study/JOL,"Study Phase2",22765,,,2504,3067,,,,100,0.35
5e948aa20c949c2fff20eabf,41onbatvos,Trevor-ex1,1,248,2020-07-17T10:29:53-07:00,22.376274108887,4,versionC_stim.csv,JOL_SIZE_VersionD.csv,"Large vs small D","Large vs small",MONEY,WAGE,Study1,B,8,67,JOL_Large,User,-,"How likely are you to correctly recall the second item in the pair?|Type your response on a scale from 0-100 and then press Enter.",Study/JOL,"Study Phase2",19031,,,17821,18626,,,,100,0.06
5e948aa20c949c2fff20eabf,41onbatvos,Trevor-ex1,1,249,2020-07-17T10:30:11-07:00,18.709728956223,4,versionC_stim.csv,JOL_SIZE_VersionD.csv,"Large vs small D","Large vs small",SICK,HIDE,Study1,U,84,72,JOL_Large,User,-,"How likely are you to correctly recall the second item in the pair?|Type your response on a scale from 0-100 and then press Enter.",Study/JOL,"Study Phase2",16203,,,15564,15564,,,,0,0.055
5e948aa20c949c2fff20eabf,41onbatvos,Trevor-ex1,1,250,2020-07-17T10:30:28-07:00,16.188284873962,4,versionC_stim.csv,JOL_SIZE_VersionD.csv,"Large vs small D","Large vs small",DOG,PAW,Study1,B,15,19,JOL_Small,User,-,"How likely are you to correctly recall the second item in the pair?|Type your response on a scale from 0-100 and then press Enter.",Study/JOL,"Study Phase2",12811,,,11620,12130,,,,100,0.089
5e948aa20c949c2fff20eabf,41onbatvos,Trevor-ex1,1,251,2020-07-17T10:30:36-07:00,8.3633489608765,4,versionC_stim.csv,JOL_SIZE_VersionD.csv,"Large vs small D","Large vs small",CHILI,HOT,Study1,F,37,82,JOL_Large,User,-,"How likely are you to correctly recall the second item in the pair?|Type your response on a scale from 0-100 and then press Enter.",Study/JOL,"Study Phase2",5621,,,4215,5348,,,,100,0.381
5e948aa20c949c2fff20eabf,41onbatvos,Trevor-ex1,1,252,2020-07-17T10:30:43-07:00,6.8838560581207,4,versionC_stim.csv,JOL_SIZE_VersionD.csv,"Large vs small D","Large vs small",FAMINE,HUNGER,Study1,F,40,63,JOL_Large,User,-,"How likely are you to correctly recall the second item in the pair?|Type your response on a scale from 0-100 and then press Enter.",Study/JOL,"Study Phase2",3478,,,1702,3181,,,,100,0.5
5e948aa20c949c2fff20eabf,41onbatvos,Trevor-ex1,1,253,2020-07-17T10:30:49-07:00,6.1183450222015,4,versionC_stim.csv,JOL_SIZE_VersionD.csv,"Large vs small D","Large vs small",TALK,DISCUSSION,Study1,B,21,14,JOL_Small,User,-,"How likely are you to correctly recall the second item in the pair?|Type your response on a scale from 0-100 and then press Enter.",Study/JOL,"Study Phase2",4168,,,3340,3925,,,,100,0.333
5e948aa20c949c2fff20eabf,41onbatvos,Trevor-ex1,1,254,2020-07-17T10:30:54-07:00,4.7761161327362,4,versionC_stim.csv,JOL_SIZE_VersionD.csv,"Large vs small D","Large vs small",WOULD,CASH,Study1,U,83,56,JOL_Large,User,-,"How likely are you to correctly recall the second item in the pair?|Type your response on a scale from 0-100 and then press Enter.",Study/JOL,"Study Phase2",2296,,,1950,1950,,,,0,0.25
5e948aa20c949c2fff20eabf,41onbatvos,Trevor-ex1,1,255,2020-07-17T10:30:57-07:00,3.7525959014893,4,versionC_stim.csv,JOL_SIZE_VersionD.csv,"Large vs small D","Large vs small",FLOOR,DISCOVER,Study1,U,71,10,JOL_Small,User,-,"How likely are you to correctly recall the second item in the pair?|Type your response on a scale from 0-100 and then press Enter.",Study/JOL,"Study Phase2",1969,,,1589,1589,,,,0,1
5e948aa20c949c2fff20eabf,41onbatvos,Trevor-ex1,1,256,2020-07-17T10:31:21-07:00,23.69583106041,4,versionC_stim.csv,JOL_SIZE_VersionD.csv,"Large vs small D","Large vs small",SIGHT,DEBATE,Study1,U,73,85,JOL_Large,User,-,"How likely are you to correctly recall the second item in the pair?|Type your response on a scale from 0-100 and then press Enter.",Study/JOL,"Study Phase2",21239,,,18417,20592,,,,0,0.211
5e948aa20c949c2fff20eabf,41onbatvos,Trevor-ex1,1,257,2020-07-17T10:31:28-07:00,6.9512069225311,4,versionC_stim.csv,JOL_SIZE_VersionD.csv,"Large vs small D","Large vs small",ATTORNEY,LAW,Study1,F,34,21,JOL_Small,User,-,"How likely are you to correctly recall the second item in the pair?|Type your response on a scale from 0-100 and then press Enter.",Study/JOL,"Study Phase2",2796,,,1763,2435,,,,100,0.417
5e948aa20c949c2fff20eabf,41onbatvos,Trevor-ex1,1,258,2020-07-17T10:31:34-07:00,6.4180400371552,4,versionC_stim.csv,JOL_SIZE_VersionD.csv,"Large vs small D","Large vs small",CAVE,DARK,Study1,F,28,83,JOL_Large,User,-,"How likely are you to correctly recall the second item in the pair?|Type your response on a scale from 0-100 and then press Enter.",Study/JOL,"Study Phase2",3188,,,1950,2631,,,,100,0.429
5e948aa20c949c2fff20eabf,41onbatvos,Trevor-ex1,1,259,2020-07-17T10:31:40-07:00,5.8011689186096,4,versionC_stim.csv,JOL_SIZE_VersionD.csv,"Large vs small D","Large vs small",CHORE,WORK,Study1,F,39,15,JOL_Small,User,-,"How likely are you to correctly recall the second item in the pair?|Type your response on a scale from 0-100 and then press Enter.",Study/JOL,"Study Phase2",2640,,,1702,2297,,,,100,0.417
5e948aa20c949c2fff20eabf,41onbatvos,Trevor-ex1,1,260,2020-07-17T10:31:47-07:00,6.2815999984741,4,versionC_stim.csv,JOL_SIZE_VersionD.csv,"Large vs small D","Large vs small",CLEAN,HYGIENE,Study1,B,17,16,JOL_Small,User,-,"How likely are you to correctly recall the second item in the pair?|Type your response on a scale from 0-100 and then press Enter.",Study/JOL,"Study Phase2",3165,,,2309,2855,,,,100,0.385
5e948aa20c949c2fff20eabf,41onbatvos,Trevor-ex1,1,261,2020-07-17T10:31:52-07:00,5.1179089546204,4,versionC_stim.csv,JOL_SIZE_VersionD.csv,"Large vs small D","Large vs small",JURY,TRIAL,Study1,S,50,55,JOL_Large,User,-,"How likely are you to correctly recall the second item in the pair?|Type your response on a scale from 0-100 and then press Enter.",Study/JOL,"Study Phase2",2539,,,1548,2255,,,,100,1
5e948aa20c949c2fff20eabf,41onbatvos,Trevor-ex1,1,262,2020-07-17T10:32:03-07:00,11.104192018509,4,versionC_stim.csv,JOL_SIZE_VersionD.csv,"Large vs small D","Large vs small",BRONZE,ARTERY,Study1,U,74,46,JOL_Small,User,-,"How likely are you to correctly recall the second item in the pair?|Type your response on a scale from 0-100 and then press Enter.",Study/JOL,"Study Phase2",8126,,,7019,7019,,,,0,0.216
5e948aa20c949c2fff20eabf,41onbatvos,Trevor-ex1,1,263,2020-07-17T10:32:09-07:00,6.5590951442719,4,versionC_stim.csv,JOL_SIZE_VersionD.csv,"Large vs small D","Large vs small",TUCK,ALLOW,Study1,U,78,65,JOL_Large,User,-,"How likely are you to correctly recall the second item in the pair?|Type your response on a scale from 0-100 and then press Enter.",Study/JOL,"Study Phase2",2470,,,2029,2029,,,,0,0.545
5e948aa20c949c2fff20eabf,41onbatvos,Trevor-ex1,1,264,2020-07-17T10:32:14-07:00,4.9180469512939,4,versionC_stim.csv,JOL_SIZE_VersionD.csv,"Large vs small D","Large vs small",NEWS,EDITOR,Study1,B,10,78,JOL_Large,User,-,"How likely are you to correctly recall the second item in the pair?|Type your response on a scale from 0-100 and then press Enter.",Study/JOL,"Study Phase2",2667,,,1578,2267,,,,100,1
5e948aa20c949c2fff20eabf,41onbatvos,Trevor-ex1,1,265,2020-07-17T10:32:20-07:00,5.6117470264435,4,versionC_stim.csv,JOL_SIZE_VersionD.csv,"Large vs small D","Large vs small",TOILET,BATHROOM,Study1,S,58,20,JOL_Small,User,-,"How likely are you to correctly recall the second item in the pair?|Type your response on a scale from 0-100 and then press Enter.",Study/JOL,"Study Phase2",2367,,,1711,2096,,,,100,0.333
5e948aa20c949c2fff20eabf,41onbatvos,Trevor-ex1,1,266,2020-07-17T10:32:26-07:00,6.450010061264,4,versionC_stim.csv,JOL_SIZE_VersionD.csv,"Large vs small D","Large vs small",BLAZE,FIRE,Study1,F,45,51,JOL_Large,User,-,"How likely are you to correctly recall the second item in the pair?|Type your response on a scale from 0-100 and then press Enter.",Study/JOL,"Study Phase2",3001,,,1980,2514,,,,100,0.333
5e948aa20c949c2fff20eabf,41onbatvos,Trevor-ex1,1,267,2020-07-17T10:32:35-07:00,8.4740707874298,4,versionC_stim.csv,JOL_SIZE_VersionD.csv,"Large vs small D","Large vs small",GOOSE,GEESE,BUFFER2,Buffer,86,87,JOL_Large,User,-,"How likely are you to correctly recall the second item in the pair?|Type your response on a scale from 0-100 and then press Enter.",Study/JOL,BUFFER4,5529,,,4164,5140,,,,100,0.28
5e948aa20c949c2fff20eabf,41onbatvos,Trevor-ex1,1,268,2020-07-17T10:32:41-07:00,5.8302891254425,4,versionC_stim.csv,JOL_SIZE_VersionD.csv,"Large vs small D","Large vs small",POLICE,SHERRIF,BUFFER2,Buffer,87,90,JOL_Small,User,-,"How likely are you to correctly recall the second item in the pair?|Type your response on a scale from 0-100 and then press Enter.",Study/JOL,BUFFER4,3033,,,1755,2535,,,,100,1
5e948aa20c949c2fff20eabf,41onbatvos,Trevor-ex1,1,269,2020-07-17T10:32:48-07:00,6.9256930351257,4,versionC_stim.csv,JOL_SIZE_VersionD.csv,"Large vs small D","Large vs small",STUFF,THING,BUFFER2,Buffer,90,91,JOL_Large,User,-,"How likely are you to correctly recall the second item in the pair?|Type your response on a scale from 0-100 and then press Enter.",Study/JOL,BUFFER4,2769,,,2420,2420,,,,0,0.364
5e948aa20c949c2fff20eabf,41onbatvos,Trevor-ex1,1,270,2020-07-17T10:32:54-07:00,6.4528448581696,4,versionC_stim.csv,JOL_SIZE_VersionD.csv,"Large vs small D","Large vs small",CHOCOLATE,MALT,BUFFER2,Buffer,88,89,JOL_Small,User,-,"How likely are you to correctly recall the second item in the pair?|Type your response on a scale from 0-100 and then press Enter.",Study/JOL,BUFFER4,3646,,,3341,3341,,,,0,0.188
5e948aa20c949c2fff20eabf,41onbatvos,Trevor-ex1,1,271,2020-07-17T10:33:00-07:00,5.8694710731506,4,versionC_stim.csv,JOL_SIZE_VersionD.csv,"Large vs small D","Large vs small",SPACE,MOON,BUFFER2,Buffer,89,88,JOL_Large,User,-,"How likely are you to correctly recall the second item in the pair?|Type your response on a scale from 0-100 and then press Enter.",Study/JOL,BUFFER4,2931,,,1830,2643,,,,100,0.417
5e948aa20c949c2fff20eabf,41onbatvos,Trevor-ex1,1,272,2020-07-17T10:33:05-07:00,5.5412390232086,4,versionC_stim.csv,JOL_SIZE_VersionD.csv,"Large vs small D","Large vs small",,,,,,0,Instruct,User,-,"You have completed this section. Please press Enter.",Filler_Instruction,Instruct5,2486,,,-1,-1,,,,,0
5e948aa20c949c2fff20eabf,41onbatvos,Trevor-ex1,1,273,2020-07-17T10:35:10-07:00,124.11006689072,4,versionC_stim.csv,JOL_SIZE_VersionD.csv,"Large vs small D","Large vs small",,,,,,0,FreeRecall,120,120,"Please list the 50 US states in reverse alphabetical order (z - a). The task will automatically advance to the next screen after two minutes.",,Filler2,120012,"I have no idea on any of them",0,8252,13239,0,0,,,0.06
5e948aa20c949c2fff20eabf,41onbatvos,Trevor-ex1,1,274,2020-07-17T10:35:46-07:00,36.402217149734,4,versionC_stim.csv,JOL_SIZE_VersionD.csv,"Large vs small D","Large vs small",,,,,,0,Instruct,-,10,"You will now be presented with the first word from each of the previously studied item pairs. Please type the missing word. If you do not know the word, you may guess or press Enter to skip forward to the next pair.",,Instruct6,33737,,,-1,-1,,,,,0.019
5e948aa20c949c2fff20eabf,41onbatvos,Trevor-ex1,1,275,2020-07-17T10:35:54-07:00,7.8184988498688,4,versionC_stim.csv,JOL_SIZE_VersionD.csv,"Large vs small D","Large vs small",CAVE,DARK,Study1,F,28,83,Test,User,-,,Recall,Recall2,4144,DARK,100,2545,2801,1,1,,,0.632
5e948aa20c949c2fff20eabf,41onbatvos,Trevor-ex1,1,276,2020-07-17T10:36:03-07:00,9.569904088974,4,versionC_stim.csv,JOL_SIZE_VersionD.csv,"Large vs small D","Large vs small",FLOOR,DISCOVER,Study1,U,71,10,Test,User,-,,Recall,Recall2,7440,,0,5934,6190,0,0,,,0.286
