Username,ID,ExperimentName,Session,Trial,Date,TimeDif,"Condition Number","Stimuli File","Order File","Condition Description","Condition Notes",Stimuli*Cue,Stimuli*Answer,Stimuli*Shuffle,"Stimuli*Stimuli Notes",Stimuli*Value,Procedure*Item,"Procedure*Trial Type","Procedure*Max Time","Procedure*Min Time",Procedure*Text,"Procedure*Procedure Notes",Procedure*Shuffle,Response*RT,Response*Response,Response*Accuracy,Response*RTfirst,Response*RTlast,Response*strictAcc,Response*lenientAcc,Response*focus,Response*JOL,Response*Focus
5ecc0ae50cf6970c228a6bd6,sebbzaozcu,Trevor-ex1,1,1,2020-07-17T11:01:52-07:00,5.8425891399384,8,versionC_stim.csv,JOL_H_VersionD.csv,"Highlight vs normal D","Highlight vs normal",,,,,,0,Instruct,-,5,"In this section, you will be presented with a series of word pairs.",Initial_Instruct,Instruct1,5682,,,-1,-1,,,,,1
5ecc0ae50cf6970c228a6bd6,sebbzaozcu,Trevor-ex1,1,2,2020-07-17T11:02:04-07:00,11.26442193985,8,versionC_stim.csv,JOL_H_VersionD.csv,"Highlight vs normal D","Highlight vs normal",,,,,,0,Instruct,-,10,"As you study, you will be asked to rate your ability to remember the second item in the pair if you were only shown the first at test. You will make these ratings using a 0 to 100 Scale.",,Instruct13,11045,,,-1,-1,,,,,1
5ecc0ae50cf6970c228a6bd6,sebbzaozcu,Trevor-ex1,1,3,2020-07-17T11:02:14-07:00,10.715075969696,8,versionC_stim.csv,JOL_H_VersionD.csv,"Highlight vs normal D","Highlight vs normal",,,,,,0,Instruct,-,10,"For example, if you are given the pair CAT - DOG, a rating of 0 indicates that you would not remember DOG at test, while a rating of 100 indicates full certainty that you would remember the word DOG at test.",,Instruct14,10508,,,-1,-1,,,,,1
5ecc0ae50cf6970c228a6bd6,sebbzaozcu,Trevor-ex1,1,4,2020-07-17T11:02:26-07:00,11.329277992249,8,versionC_stim.csv,JOL_H_VersionD.csv,"Highlight vs normal D","Highlight vs normal",,,,,,0,Instruct,-,10,"When making your ratings, it is criticial that you use the full range of the scale. You will be disqualified for only giving ratings of 0 or 100! After making your rating, press Enter to advance to the next pair.",,Instruct15,11127,,,-1,-1,,,,,1
5ecc0ae50cf6970c228a6bd6,sebbzaozcu,Trevor-ex1,1,5,2020-07-17T11:02:28-07:00,1.9933140277863,8,versionC_stim.csv,JOL_H_VersionD.csv,"Highlight vs normal D","Highlight vs normal",,,,,,0,Instruct,User,-,"You will now begin the study. Press Enter when you are ready to begin.",,Instruct16,1794,,,-1,-1,,,,,1
5ecc0ae50cf6970c228a6bd6,sebbzaozcu,Trevor-ex1,1,6,2020-07-17T11:02:37-07:00,8.9940478801727,8,versionC_stim.csv,JOL_H_VersionD.csv,"Highlight vs normal D","Highlight vs normal",POTATO,CARROT,BUFFER3,Buffer,91,93,JOL,User,-,"How likely are you to correctly recall the second item in the pair?|Type your response on a scale from 0-100 and then press Enter.",Study/JOL,BUFFER,8784,,,5560,6011,,,,100,1
5ecc0ae50cf6970c228a6bd6,sebbzaozcu,Trevor-ex1,1,7,2020-07-17T11:02:46-07:00,9.1219999790192,8,versionC_stim.csv,JOL_H_VersionD.csv,"Highlight vs normal D","Highlight vs normal",ADVENTURE,CAMP,BUFFER3,Buffer,95,94,JOL_H,User,-,"How likely are you to correctly recall the second item in the pair?|Type your response on a scale from 0-100 and then press Enter.",Study/JOL,BUFFER,8889,,,7558,7956,,,,100,1
5ecc0ae50cf6970c228a6bd6,sebbzaozcu,Trevor-ex1,1,8,2020-07-17T11:02:49-07:00,3.3035352230072,8,versionC_stim.csv,JOL_H_VersionD.csv,"Highlight vs normal D","Highlight vs normal",FROZEN,ICE,BUFFER3,Buffer,94,95,JOL_H,User,-,"How likely are you to correctly recall the second item in the pair?|Type your response on a scale from 0-100 and then press Enter.",Study/JOL,BUFFER,3077,,,1848,2182,,,,100,1
5ecc0ae50cf6970c228a6bd6,sebbzaozcu,Trevor-ex1,1,9,2020-07-17T11:02:53-07:00,3.8187940120697,8,versionC_stim.csv,JOL_H_VersionD.csv,"Highlight vs normal D","Highlight vs normal",FISH,SHRIMP,BUFFER3,Buffer,93,96,JOL_H,User,-,"How likely are you to correctly recall the second item in the pair?|Type your response on a scale from 0-100 and then press Enter.",Study/JOL,BUFFER,3629,,,2045,2364,,,,100,1
5ecc0ae50cf6970c228a6bd6,sebbzaozcu,Trevor-ex1,1,10,2020-07-17T11:03:07-07:00,13.558215856552,8,versionC_stim.csv,JOL_H_VersionD.csv,"Highlight vs normal D","Highlight vs normal",STRING,NOODLE,BUFFER3,Buffer,92,92,JOL,User,-,"How likely are you to correctly recall the second item in the pair?|Type your response on a scale from 0-100 and then press Enter.",Study/JOL,BUFFER,13338,,,7589,11636,,,,90,1
5ecc0ae50cf6970c228a6bd6,sebbzaozcu,Trevor-ex1,1,11,2020-07-17T11:03:17-07:00,10.330445051193,8,versionC_stim.csv,JOL_H_VersionD.csv,"Highlight vs normal D","Highlight vs normal",THIMBLE,THREAD,Study2,F,121,142,JOL_H,User,-,"How likely are you to correctly recall the second item in the pair?|Type your response on a scale from 0-100 and then press Enter.",Study/JOL,"Study Phase",10111,,,9156,9562,,,,90,1
5ecc0ae50cf6970c228a6bd6,sebbzaozcu,Trevor-ex1,1,12,2020-07-17T11:03:22-07:00,5.3879408836365,8,versionC_stim.csv,JOL_H_VersionD.csv,"Highlight vs normal D","Highlight vs normal",PAPER,DOCUMENT,Study2,B,109,121,JOL,User,-,"How likely are you to correctly recall the second item in the pair?|Type your response on a scale from 0-100 and then press Enter.",Study/JOL,"Study Phase",4768,,,3561,3888,,,,80,1
5ecc0ae50cf6970c228a6bd6,sebbzaozcu,Trevor-ex1,1,13,2020-07-17T11:03:27-07:00,4.9317140579224,8,versionC_stim.csv,JOL_H_VersionD.csv,"Highlight vs normal D","Highlight vs normal",LEAGUE,BASEBALL,Study2,F,131,143,JOL_H,User,-,"How likely are you to correctly recall the second item in the pair?|Type your response on a scale from 0-100 and then press Enter.",Study/JOL,"Study Phase",4709,,,2595,4225,,,,100,1
5ecc0ae50cf6970c228a6bd6,sebbzaozcu,Trevor-ex1,1,14,2020-07-17T11:03:35-07:00,7.8554329872131,8,versionC_stim.csv,JOL_H_VersionD.csv,"Highlight vs normal D","Highlight vs normal",SHAKE,SHELL,Study2,U,163,130,JOL,User,-,"How likely are you to correctly recall the second item in the pair?|Type your response on a scale from 0-100 and then press Enter.",Study/JOL,"Study Phase",7586,,,1596,1817,,,,50,1
5ecc0ae50cf6970c228a6bd6,sebbzaozcu,Trevor-ex1,1,15,2020-07-17T11:03:39-07:00,4.0449559688568,8,versionC_stim.csv,JOL_H_VersionD.csv,"Highlight vs normal D","Highlight vs normal",TICK,FLEA,Study2,S,151,141,JOL_H,User,-,"How likely are you to correctly recall the second item in the pair?|Type your response on a scale from 0-100 and then press Enter.",Study/JOL,"Study Phase",3834,,,2967,3364,,,,100,1
5ecc0ae50cf6970c228a6bd6,sebbzaozcu,Trevor-ex1,1,16,2020-07-17T11:03:43-07:00,3.5517041683197,8,versionC_stim.csv,JOL_H_VersionD.csv,"Highlight vs normal D","Highlight vs normal",REVENGE,EVEN,Study2,F,122,156,JOL_H,User,-,"How likely are you to correctly recall the second item in the pair?|Type your response on a scale from 0-100 and then press Enter.",Study/JOL,"Study Phase",3361,,,2472,2911,,,,100,1
5ecc0ae50cf6970c228a6bd6,sebbzaozcu,Trevor-ex1,1,17,2020-07-17T11:03:46-07:00,3.0522398948669,8,versionC_stim.csv,JOL_H_VersionD.csv,"Highlight vs normal D","Highlight vs normal",LONG,EXTENSION,Study2,B,96,163,JOL_H,User,-,"How likely are you to correctly recall the second item in the pair?|Type your response on a scale from 0-100 and then press Enter.",Study/JOL,"Study Phase",2819,,,2098,2473,,,,100,1
5ecc0ae50cf6970c228a6bd6,sebbzaozcu,Trevor-ex1,1,18,2020-07-17T11:03:49-07:00,3.121472120285,8,versionC_stim.csv,JOL_H_VersionD.csv,"Highlight vs normal D","Highlight vs normal",RED,CHERRY,Study2,B,104,157,JOL_H,User,-,"How likely are you to correctly recall the second item in the pair?|Type your response on a scale from 0-100 and then press Enter.",Study/JOL,"Study Phase",2902,,,2191,2543,,,,100,1
5ecc0ae50cf6970c228a6bd6,sebbzaozcu,Trevor-ex1,1,19,2020-07-17T11:03:54-07:00,5.4701619148254,8,versionC_stim.csv,JOL_H_VersionD.csv,"Highlight vs normal D","Highlight vs normal",CHILDREN,MIRROR,Study2,U,174,150,JOL_H,User,-,"How likely are you to correctly recall the second item in the pair?|Type your response on a scale from 0-100 and then press Enter.",Study/JOL,"Study Phase",5251,,,4326,4451,,,,75,1
5ecc0ae50cf6970c228a6bd6,sebbzaozcu,Trevor-ex1,1,20,2020-07-17T11:03:58-07:00,4.0713119506836,8,versionC_stim.csv,JOL_H_VersionD.csv,"Highlight vs normal D","Highlight vs normal",NOISE,LOUD,Study2,S,152,148,JOL_H,User,-,"How likely are you to correctly recall the second item in the pair?|Type your response on a scale from 0-100 and then press Enter.",Study/JOL,"Study Phase",3853,,,3233,3413,,,,85,1
5ecc0ae50cf6970c228a6bd6,sebbzaozcu,Trevor-ex1,1,21,2020-07-17T11:04:03-07:00,4.6826000213623,8,versionC_stim.csv,JOL_H_VersionD.csv,"Highlight vs normal D","Highlight vs normal",CHARM,VEHICLE,Study2,U,160,170,JOL_H,User,-,"How likely are you to correctly recall the second item in the pair?|Type your response on a scale from 0-100 and then press Enter.",Study/JOL,"Study Phase",4463,,,3292,3730,,,,50,1
5ecc0ae50cf6970c228a6bd6,sebbzaozcu,Trevor-ex1,1,22,2020-07-17T11:04:10-07:00,6.7207279205322,8,versionC_stim.csv,JOL_H_VersionD.csv,"Highlight vs normal D","Highlight vs normal",SCAR,MAIN,Study2,U,175,134,JOL,User,-,"How likely are you to correctly recall the second item in the pair?|Type your response on a scale from 0-100 and then press Enter.",Study/JOL,"Study Phase",6491,,,5793,6022,,,,50,1
5ecc0ae50cf6970c228a6bd6,sebbzaozcu,Trevor-ex1,1,23,2020-07-17T11:04:14-07:00,4.0349450111389,8,versionC_stim.csv,JOL_H_VersionD.csv,"Highlight vs normal D","Highlight vs normal",SCISSORS,SHEARS,Study2,B,112,175,JOL_H,User,-,"How likely are you to correctly recall the second item in the pair?|Type your response on a scale from 0-100 and then press Enter.",Study/JOL,"Study Phase",3833,,,3038,3239,,,,90,1
5ecc0ae50cf6970c228a6bd6,sebbzaozcu,Trevor-ex1,1,24,2020-07-17T11:04:16-07:00,2.6321301460266,8,versionC_stim.csv,JOL_H_VersionD.csv,"Highlight vs normal D","Highlight vs normal",BREAKABLE,GLASS,Study2,F,127,104,JOL,User,-,"How likely are you to correctly recall the second item in the pair?|Type your response on a scale from 0-100 and then press Enter.",Study/JOL,"Study Phase",2418,,,1499,1926,,,,100,1
5ecc0ae50cf6970c228a6bd6,sebbzaozcu,Trevor-ex1,1,25,2020-07-17T11:04:21-07:00,4.8860769271851,8,versionC_stim.csv,JOL_H_VersionD.csv,"Highlight vs normal D","Highlight vs normal",DONKEY,MULE,Study2,B,108,151,JOL_H,User,-,"How likely are you to correctly recall the second item in the pair?|Type your response on a scale from 0-100 and then press Enter.",Study/JOL,"Study Phase",3668,,,2883,3306,,,,100,1
5ecc0ae50cf6970c228a6bd6,sebbzaozcu,Trevor-ex1,1,26,2020-07-17T11:04:23-07:00,2.1544868946075,8,versionC_stim.csv,JOL_H_VersionD.csv,"Highlight vs normal D","Highlight vs normal",SEATBELT,SAFETY,Study2,S,147,154,JOL_H,User,-,"How likely are you to correctly recall the second item in the pair?|Type your response on a scale from 0-100 and then press Enter.",Study/JOL,"Study Phase",1937,,,1031,1452,,,,100,1
5ecc0ae50cf6970c228a6bd6,sebbzaozcu,Trevor-ex1,1,27,2020-07-17T11:04:29-07:00,5.7448990345001,8,versionC_stim.csv,JOL_H_VersionD.csv,"Highlight vs normal D","Highlight vs normal",SMELL,INCENSE,Study2,B,110,106,JOL,User,-,"How likely are you to correctly recall the second item in the pair?|Type your response on a scale from 0-100 and then press Enter.",Study/JOL,"Study Phase",5510,,,2206,5037,,,,90,1
5ecc0ae50cf6970c228a6bd6,sebbzaozcu,Trevor-ex1,1,28,2020-07-17T11:04:40-07:00,10.58478307724,8,versionC_stim.csv,JOL_H_VersionD.csv,"Highlight vs normal D","Highlight vs normal",CLEAR,MOAT,Study2,U,169,172,JOL_H,User,-,"How likely are you to correctly recall the second item in the pair?|Type your response on a scale from 0-100 and then press Enter.",Study/JOL,"Study Phase",10357,,,2309,9892,,,,40,1
5ecc0ae50cf6970c228a6bd6,sebbzaozcu,Trevor-ex1,1,29,2020-07-17T11:04:42-07:00,2.4979679584503,8,versionC_stim.csv,JOL_H_VersionD.csv,"Highlight vs normal D","Highlight vs normal",COFFIN,DEAD,Study2,F,128,98,JOL,User,-,"How likely are you to correctly recall the second item in the pair?|Type your response on a scale from 0-100 and then press Enter.",Study/JOL,"Study Phase",2236,,,1522,1903,,,,100,1
5ecc0ae50cf6970c228a6bd6,sebbzaozcu,Trevor-ex1,1,30,2020-07-17T11:04:48-07:00,5.3721580505371,8,versionC_stim.csv,JOL_H_VersionD.csv,"Highlight vs normal D","Highlight vs normal",GAME,CLUE,Study2,B,97,124,JOL,User,-,"How likely are you to correctly recall the second item in the pair?|Type your response on a scale from 0-100 and then press Enter.",Study/JOL,"Study Phase",5140,,,3107,4755,,,,90,1
5ecc0ae50cf6970c228a6bd6,sebbzaozcu,Trevor-ex1,1,31,2020-07-17T11:04:50-07:00,2.1507198810577,8,versionC_stim.csv,JOL_H_VersionD.csv,"Highlight vs normal D","Highlight vs normal",TRASH,LITTER,Study2,B,103,145,JOL_H,User,-,"How likely are you to correctly recall the second item in the pair?|Type your response on a scale from 0-100 and then press Enter.",Study/JOL,"Study Phase",1935,,,939,1320,,,,100,1
5ecc0ae50cf6970c228a6bd6,sebbzaozcu,Trevor-ex1,1,32,2020-07-17T11:04:55-07:00,5.2361390590668,8,versionC_stim.csv,JOL_H_VersionD.csv,"Highlight vs normal D","Highlight vs normal",FICTION,LISTEN,Study2,U,164,108,JOL,User,-,"How likely are you to correctly recall the second item in the pair?|Type your response on a scale from 0-100 and then press Enter.",Study/JOL,"Study Phase",5042,,,3721,4550,,,,60,1
5ecc0ae50cf6970c228a6bd6,sebbzaozcu,Trevor-ex1,1,33,2020-07-17T11:05:00-07:00,4.9136409759521,8,versionC_stim.csv,JOL_H_VersionD.csv,"Highlight vs normal D","Highlight vs normal",BALLOON,POP,Study2,F,123,155,JOL_H,User,-,"How likely are you to correctly recall the second item in the pair?|Type your response on a scale from 0-100 and then press Enter.",Study/JOL,"Study Phase",3937,,,3191,3607,,,,100,1
5ecc0ae50cf6970c228a6bd6,sebbzaozcu,Trevor-ex1,1,34,2020-07-17T11:05:02-07:00,1.891401052475,8,versionC_stim.csv,JOL_H_VersionD.csv,"Highlight vs normal D","Highlight vs normal",PENGUIN,BIRD,Study2,F,119,176,JOL_H,User,-,"How likely are you to correctly recall the second item in the pair?|Type your response on a scale from 0-100 and then press Enter.",Study/JOL,"Study Phase",1681,,,899,1338,,,,100,1
5ecc0ae50cf6970c228a6bd6,sebbzaozcu,Trevor-ex1,1,35,2020-07-17T11:05:06-07:00,3.6676430702209,8,versionC_stim.csv,JOL_H_VersionD.csv,"Highlight vs normal D","Highlight vs normal",CAR,DRIVER,Study2,B,106,120,JOL,User,-,"How likely are you to correctly recall the second item in the pair?|Type your response on a scale from 0-100 and then press Enter.",Study/JOL,"Study Phase",3474,,,730,2945,,,,90,1
5ecc0ae50cf6970c228a6bd6,sebbzaozcu,Trevor-ex1,1,36,2020-07-17T11:05:08-07:00,2.9502079486847,8,versionC_stim.csv,JOL_H_VersionD.csv,"Highlight vs normal D","Highlight vs normal",NAP,SLEEP,Study2,F,134,153,JOL_H,User,-,"How likely are you to correctly recall the second item in the pair?|Type your response on a scale from 0-100 and then press Enter.",Study/JOL,"Study Phase",2556,,,1765,2123,,,,100,1
5ecc0ae50cf6970c228a6bd6,sebbzaozcu,Trevor-ex1,1,37,2020-07-17T11:05:11-07:00,2.3995409011841,8,versionC_stim.csv,JOL_H_VersionD.csv,"Highlight vs normal D","Highlight vs normal",LOVE,AFFECTION,Study2,B,115,135,JOL,User,-,"How likely are you to correctly recall the second item in the pair?|Type your response on a scale from 0-100 and then press Enter.",Study/JOL,"Study Phase",2166,,,1437,1818,,,,100,1
5ecc0ae50cf6970c228a6bd6,sebbzaozcu,Trevor-ex1,1,38,2020-07-17T11:05:13-07:00,2.1397361755371,8,versionC_stim.csv,JOL_H_VersionD.csv,"Highlight vs normal D","Highlight vs normal",BRACELET,WRIST,Study2,S,140,173,JOL_H,User,-,"How likely are you to correctly recall the second item in the pair?|Type your response on a scale from 0-100 and then press Enter.",Study/JOL,"Study Phase",1915,,,1093,1426,,,,100,1
5ecc0ae50cf6970c228a6bd6,sebbzaozcu,Trevor-ex1,1,39,2020-07-17T11:05:19-07:00,5.5693879127502,8,versionC_stim.csv,JOL_H_VersionD.csv,"Highlight vs normal D","Highlight vs normal",MAROON,JUSTICE,Study2,U,156,168,JOL_H,User,-,"How likely are you to correctly recall the second item in the pair?|Type your response on a scale from 0-100 and then press Enter.",Study/JOL,"Study Phase",5336,,,2523,4704,,,,80,1
5ecc0ae50cf6970c228a6bd6,sebbzaozcu,Trevor-ex1,1,40,2020-07-17T11:05:22-07:00,3.0509331226349,8,versionC_stim.csv,JOL_H_VersionD.csv,"Highlight vs normal D","Highlight vs normal",BANG,FUZZY,Study2,U,168,113,JOL,User,-,"How likely are you to correctly recall the second item in the pair?|Type your response on a scale from 0-100 and then press Enter.",Study/JOL,"Study Phase",2835,,,2241,2392,,,,40,1
5ecc0ae50cf6970c228a6bd6,sebbzaozcu,Trevor-ex1,1,41,2020-07-17T11:05:26-07:00,4.6710047721863,8,versionC_stim.csv,JOL_H_VersionD.csv,"Highlight vs normal D","Highlight vs normal",END,ADJOURN,Study2,B,101,107,JOL,User,-,"How likely are you to correctly recall the second item in the pair?|Type your response on a scale from 0-100 and then press Enter.",Study/JOL,"Study Phase",4446,,,1611,4047,,,,85,1
5ecc0ae50cf6970c228a6bd6,sebbzaozcu,Trevor-ex1,1,42,2020-07-17T11:05:30-07:00,3.2186322212219,8,versionC_stim.csv,JOL_H_VersionD.csv,"Highlight vs normal D","Highlight vs normal",JAR,MASON,Study2,S,138,122,JOL,User,-,"How likely are you to correctly recall the second item in the pair?|Type your response on a scale from 0-100 and then press Enter.",Study/JOL,"Study Phase",2993,,,2216,2575,,,,100,1
5ecc0ae50cf6970c228a6bd6,sebbzaozcu,Trevor-ex1,1,43,2020-07-17T11:05:37-07:00,7.9820358753204,8,versionC_stim.csv,JOL_H_VersionD.csv,"Highlight vs normal D","Highlight vs normal",WET,DRY,Study2,S,146,137,JOL_H,User,-,"How likely are you to correctly recall the second item in the pair?|Type your response on a scale from 0-100 and then press Enter.",Study/JOL,"Study Phase",7742,,,2093,7302,,,,75,1
5ecc0ae50cf6970c228a6bd6,sebbzaozcu,Trevor-ex1,1,44,2020-07-17T11:05:46-07:00,8.5816700458527,8,versionC_stim.csv,JOL_H_VersionD.csv,"Highlight vs normal D","Highlight vs normal",HATE,NAME,Study2,U,167,171,JOL_H,User,-,"How likely are you to correctly recall the second item in the pair?|Type your response on a scale from 0-100 and then press Enter.",Study/JOL,"Study Phase",8365,,,5308,7965,,,,55,1
5ecc0ae50cf6970c228a6bd6,sebbzaozcu,Trevor-ex1,1,45,2020-07-17T11:05:50-07:00,3.5226240158081,8,versionC_stim.csv,JOL_H_VersionD.csv,"Highlight vs normal D","Highlight vs normal",WAX,CANDLE,Study2,S,139,159,JOL_H,User,-,"How likely are you to correctly recall the second item in the pair?|Type your response on a scale from 0-100 and then press Enter.",Study/JOL,"Study Phase",3301,,,1047,2830,,,,90,1
5ecc0ae50cf6970c228a6bd6,sebbzaozcu,Trevor-ex1,1,46,2020-07-17T11:05:54-07:00,4.4782519340515,8,versionC_stim.csv,JOL_H_VersionD.csv,"Highlight vs normal D","Highlight vs normal",COLD,CHILL,Study2,B,114,112,JOL,User,-,"How likely are you to correctly recall the second item in the pair?|Type your response on a scale from 0-100 and then press Enter.",Study/JOL,"Study Phase",4272,,,3362,3776,,,,100,1
5ecc0ae50cf6970c228a6bd6,sebbzaozcu,Trevor-ex1,1,47,2020-07-17T11:05:56-07:00,2.1303160190582,8,versionC_stim.csv,JOL_H_VersionD.csv,"Highlight vs normal D","Highlight vs normal",AIRCRAFT,PLANE,Study2,F,129,161,JOL_H,User,-,"How likely are you to correctly recall the second item in the pair?|Type your response on a scale from 0-100 and then press Enter.",Study/JOL,"Study Phase",1889,,,1244,1598,,,,100,1
5ecc0ae50cf6970c228a6bd6,sebbzaozcu,Trevor-ex1,1,48,2020-07-17T11:06:05-07:00,8.512955904007,8,versionC_stim.csv,JOL_H_VersionD.csv,"Highlight vs normal D","Highlight vs normal",GROUND,EARTH,Study2,S,144,147,JOL_H,User,-,"How likely are you to correctly recall the second item in the pair?|Type your response on a scale from 0-100 and then press Enter.",Study/JOL,"Study Phase",8266,,,908,7939,,,,90,1
5ecc0ae50cf6970c228a6bd6,sebbzaozcu,Trevor-ex1,1,49,2020-07-17T11:06:10-07:00,4.9772961139679,8,versionC_stim.csv,JOL_H_VersionD.csv,"Highlight vs normal D","Highlight vs normal",ACTRESS,STAR,Study2,F,120,115,JOL,User,-,"How likely are you to correctly recall the second item in the pair?|Type your response on a scale from 0-100 and then press Enter.",Study/JOL,"Study Phase",4657,,,2522,4128,,,,90,1
5ecc0ae50cf6970c228a6bd6,sebbzaozcu,Trevor-ex1,1,50,2020-07-17T11:06:13-07:00,2.9915809631348,8,versionC_stim.csv,JOL_H_VersionD.csv,"Highlight vs normal D","Highlight vs normal",PANTHER,CAT,Study2,F,126,97,JOL,User,-,"How likely are you to correctly recall the second item in the pair?|Type your response on a scale from 0-100 and then press Enter.",Study/JOL,"Study Phase",2761,,,2100,2498,,,,100,1
5ecc0ae50cf6970c228a6bd6,sebbzaozcu,Trevor-ex1,1,51,2020-07-17T11:06:18-07:00,5.5203080177307,8,versionC_stim.csv,JOL_H_VersionD.csv,"Highlight vs normal D","Highlight vs normal",MORNING,TEMPERATURE,Study2,U,173,127,JOL,User,-,"How likely are you to correctly recall the second item in the pair?|Type your response on a scale from 0-100 and then press Enter.",Study/JOL,"Study Phase",5288,,,3291,3524,,,,85,1
5ecc0ae50cf6970c228a6bd6,sebbzaozcu,Trevor-ex1,1,52,2020-07-17T11:06:23-07:00,4.430193901062,8,versionC_stim.csv,JOL_H_VersionD.csv,"Highlight vs normal D","Highlight vs normal",FAVORITE,BEST,Study2,F,125,100,JOL,User,-,"How likely are you to correctly recall the second item in the pair?|Type your response on a scale from 0-100 and then press Enter.",Study/JOL,"Study Phase",4217,,,3364,3658,,,,90,1
5ecc0ae50cf6970c228a6bd6,sebbzaozcu,Trevor-ex1,1,53,2020-07-17T11:06:26-07:00,3.3821220397949,8,versionC_stim.csv,JOL_H_VersionD.csv,"Highlight vs normal D","Highlight vs normal",CUT,CHOP,Study2,B,107,110,JOL,User,-,"How likely are you to correctly recall the second item in the pair?|Type your response on a scale from 0-100 and then press Enter.",Study/JOL,"Study Phase",3157,,,2454,2749,,,,90,1
5ecc0ae50cf6970c228a6bd6,sebbzaozcu,Trevor-ex1,1,54,2020-07-17T11:06:31-07:00,4.7606310844421,8,versionC_stim.csv,JOL_H_VersionD.csv,"Highlight vs normal D","Highlight vs normal",ELECTION,MAZE,Study2,U,159,111,JOL,User,-,"How likely are you to correctly recall the second item in the pair?|Type your response on a scale from 0-100 and then press Enter.",Study/JOL,"Study Phase",4525,,,1837,4076,,,,80,1
5ecc0ae50cf6970c228a6bd6,sebbzaozcu,Trevor-ex1,1,55,2020-07-17T11:06:35-07:00,4.2679688930511,8,versionC_stim.csv,JOL_H_VersionD.csv,"Highlight vs normal D","Highlight vs normal",HEAD,SCALP,Study2,B,105,169,JOL_H,User,-,"How likely are you to correctly recall the second item in the pair?|Type your response on a scale from 0-100 and then press Enter.",Study/JOL,"Study Phase",4031,,,1913,3039,,,,100,1
5ecc0ae50cf6970c228a6bd6,sebbzaozcu,Trevor-ex1,1,56,2020-07-17T11:06:39-07:00,3.8899831771851,8,versionC_stim.csv,JOL_H_VersionD.csv,"Highlight vs normal D","Highlight vs normal",LIE,TRUTH,Study2,S,148,165,JOL_H,User,-,"How likely are you to correctly recall the second item in the pair?|Type your response on a scale from 0-100 and then press Enter.",Study/JOL,"Study Phase",3598,,,2972,3116,,,,75,1
5ecc0ae50cf6970c228a6bd6,sebbzaozcu,Trevor-ex1,1,57,2020-07-17T11:06:44-07:00,5.2173268795013,8,versionC_stim.csv,JOL_H_VersionD.csv,"Highlight vs normal D","Highlight vs normal",FLIP,TURN,Study2,F,116,136,JOL,User,-,"How likely are you to correctly recall the second item in the pair?|Type your response on a scale from 0-100 and then press Enter.",Study/JOL,"Study Phase",5019,,,1196,2090,,,,100,1
5ecc0ae50cf6970c228a6bd6,sebbzaozcu,Trevor-ex1,1,58,2020-07-17T11:06:55-07:00,10.864243030548,8,versionC_stim.csv,JOL_H_VersionD.csv,"Highlight vs normal D","Highlight vs normal",WINDSHIELD,CAR,Study2,F,117,126,JOL,User,-,"How likely are you to correctly recall the second item in the pair?|Type your response on a scale from 0-100 and then press Enter.",Study/JOL,"Study Phase",10608,,,1133,10131,,,,90,0.913
5ecc0ae50cf6970c228a6bd6,sebbzaozcu,Trevor-ex1,1,59,2020-07-17T11:06:58-07:00,3.3495659828186,8,versionC_stim.csv,JOL_H_VersionD.csv,"Highlight vs normal D","Highlight vs normal",DOG,FURRY,Study2,B,102,138,JOL_H,User,-,"How likely are you to correctly recall the second item in the pair?|Type your response on a scale from 0-100 and then press Enter.",Study/JOL,"Study Phase",2768,,,2098,2458,,,,100,1
5ecc0ae50cf6970c228a6bd6,sebbzaozcu,Trevor-ex1,1,60,2020-07-17T11:07:01-07:00,2.8398129940033,8,versionC_stim.csv,JOL_H_VersionD.csv,"Highlight vs normal D","Highlight vs normal",LONELY,ALONE,Study2,S,145,117,JOL,User,-,"How likely are you to correctly recall the second item in the pair?|Type your response on a scale from 0-100 and then press Enter.",Study/JOL,"Study Phase",2635,,,1581,2027,,,,100,1
5ecc0ae50cf6970c228a6bd6,sebbzaozcu,Trevor-ex1,1,61,2020-07-17T11:07:11-07:00,10.026206016541,8,versionC_stim.csv,JOL_H_VersionD.csv,"Highlight vs normal D","Highlight vs normal",HAVE,OWN,Study2,S,153,109,JOL,User,-,"How likely are you to correctly recall the second item in the pair?|Type your response on a scale from 0-100 and then press Enter.",Study/JOL,"Study Phase",9828,,,4570,9352,,,,80,0.93
5ecc0ae50cf6970c228a6bd6,sebbzaozcu,Trevor-ex1,1,62,2020-07-17T11:07:16-07:00,4.6620740890503,8,versionC_stim.csv,JOL_H_VersionD.csv,"Highlight vs normal D","Highlight vs normal",SIGN,LOAN,Study2,U,171,99,JOL,User,-,"How likely are you to correctly recall the second item in the pair?|Type your response on a scale from 0-100 and then press Enter.",Study/JOL,"Study Phase",4429,,,2491,3955,,,,40,1
5ecc0ae50cf6970c228a6bd6,sebbzaozcu,Trevor-ex1,1,63,2020-07-17T11:07:24-07:00,7.7191479206085,8,versionC_stim.csv,JOL_H_VersionD.csv,"Highlight vs normal D","Highlight vs normal",TIE,SHOELACE,Study2,B,99,162,JOL_H,User,-,"How likely are you to correctly recall the second item in the pair?|Type your response on a scale from 0-100 and then press Enter.",Study/JOL,"Study Phase",7455,,,1111,6917,,,,80,1
5ecc0ae50cf6970c228a6bd6,sebbzaozcu,Trevor-ex1,1,64,2020-07-17T11:07:26-07:00,2.4309279918671,8,versionC_stim.csv,JOL_H_VersionD.csv,"Highlight vs normal D","Highlight vs normal",CARBON,ELEMENT,Study2,S,141,116,JOL,User,-,"How likely are you to correctly recall the second item in the pair?|Type your response on a scale from 0-100 and then press Enter.",Study/JOL,"Study Phase",2174,,,1198,1596,,,,100,1
5ecc0ae50cf6970c228a6bd6,sebbzaozcu,Trevor-ex1,1,65,2020-07-17T11:07:31-07:00,4.6573190689087,8,versionC_stim.csv,JOL_H_VersionD.csv,"Highlight vs normal D","Highlight vs normal",OUNCE,BOTH,Study2,U,172,164,JOL_H,User,-,"How likely are you to correctly recall the second item in the pair?|Type your response on a scale from 0-100 and then press Enter.",Study/JOL,"Study Phase",4424,,,3663,3663,,,,0,1
5ecc0ae50cf6970c228a6bd6,sebbzaozcu,Trevor-ex1,1,66,2020-07-17T11:07:33-07:00,2.7261469364166,8,versionC_stim.csv,JOL_H_VersionD.csv,"Highlight vs normal D","Highlight vs normal",TEMPER,TANTRUM,Study2,S,154,152,JOL_H,User,-,"How likely are you to correctly recall the second item in the pair?|Type your response on a scale from 0-100 and then press Enter.",Study/JOL,"Study Phase",2505,,,1582,2008,,,,100,1
5ecc0ae50cf6970c228a6bd6,sebbzaozcu,Trevor-ex1,1,67,2020-07-17T11:07:38-07:00,4.1381289958954,8,versionC_stim.csv,JOL_H_VersionD.csv,"Highlight vs normal D","Highlight vs normal",EAT,DINE,Study2,B,111,123,JOL,User,-,"How likely are you to correctly recall the second item in the pair?|Type your response on a scale from 0-100 and then press Enter.",Study/JOL,"Study Phase",3913,,,3119,3379,,,,60,1
5ecc0ae50cf6970c228a6bd6,sebbzaozcu,Trevor-ex1,1,68,2020-07-17T11:07:42-07:00,4.5758330821991,8,versionC_stim.csv,JOL_H_VersionD.csv,"Highlight vs normal D","Highlight vs normal",BANKER,MONEY,Study2,F,132,129,JOL,User,-,"How likely are you to correctly recall the second item in the pair?|Type your response on a scale from 0-100 and then press Enter.",Study/JOL,"Study Phase",4353,,,2845,3820,,,,75,1
5ecc0ae50cf6970c228a6bd6,sebbzaozcu,Trevor-ex1,1,69,2020-07-17T11:07:53-07:00,10.863942861557,8,versionC_stim.csv,JOL_H_VersionD.csv,"Highlight vs normal D","Highlight vs normal",PLANT,CACTUS,Study2,B,98,131,JOL,User,-,"How likely are you to correctly recall the second item in the pair?|Type your response on a scale from 0-100 and then press Enter.",Study/JOL,"Study Phase",10631,,,1162,10032,,,,10,0.722
5ecc0ae50cf6970c228a6bd6,sebbzaozcu,Trevor-ex1,1,70,2020-07-17T11:07:57-07:00,4.4466080665588,8,versionC_stim.csv,JOL_H_VersionD.csv,"Highlight vs normal D","Highlight vs normal",REEL,ROD,Study2,S,150,133,JOL,User,-,"How likely are you to correctly recall the second item in the pair?|Type your response on a scale from 0-100 and then press Enter.",Study/JOL,"Study Phase",4208,,,3568,3815,,,,60,1
5ecc0ae50cf6970c228a6bd6,sebbzaozcu,Trevor-ex1,1,71,2020-07-17T11:08:06-07:00,8.577819108963,8,versionC_stim.csv,JOL_H_VersionD.csv,"Highlight vs normal D","Highlight vs normal",AWAY,GONE,Study2,S,142,166,JOL_H,User,-,"How likely are you to correctly recall the second item in the pair?|Type your response on a scale from 0-100 and then press Enter.",Study/JOL,"Study Phase",8347,,,1753,7978,,,,80,0.974
5ecc0ae50cf6970c228a6bd6,sebbzaozcu,Trevor-ex1,1,72,2020-07-17T11:08:10-07:00,3.6801679134369,8,versionC_stim.csv,JOL_H_VersionD.csv,"Highlight vs normal D","Highlight vs normal",COMMUNICATION,PHONE,Study2,S,149,158,JOL_H,User,-,"How likely are you to correctly recall the second item in the pair?|Type your response on a scale from 0-100 and then press Enter.",Study/JOL,"Study Phase",3450,,,2576,2757,,,,80,1
5ecc0ae50cf6970c228a6bd6,sebbzaozcu,Trevor-ex1,1,73,2020-07-17T11:08:13-07:00,3.5169320106506,8,versionC_stim.csv,JOL_H_VersionD.csv,"Highlight vs normal D","Highlight vs normal",EQUAL,RIGHTS,Study2,S,137,118,JOL,User,-,"How likely are you to correctly recall the second item in the pair?|Type your response on a scale from 0-100 and then press Enter.",Study/JOL,"Study Phase",3331,,,2664,3032,,,,100,1
5ecc0ae50cf6970c228a6bd6,sebbzaozcu,Trevor-ex1,1,74,2020-07-17T11:08:15-07:00,1.8049628734589,8,versionC_stim.csv,JOL_H_VersionD.csv,"Highlight vs normal D","Highlight vs normal",TAN,SUN,Study2,S,155,174,JOL_H,User,-,"How likely are you to correctly recall the second item in the pair?|Type your response on a scale from 0-100 and then press Enter.",Study/JOL,"Study Phase",1601,,,873,1247,,,,100,1
5ecc0ae50cf6970c228a6bd6,sebbzaozcu,Trevor-ex1,1,75,2020-07-17T11:08:17-07:00,1.8287990093231,8,versionC_stim.csv,JOL_H_VersionD.csv,"Highlight vs normal D","Highlight vs normal",VILLAIN,BAD,Study2,F,118,140,JOL_H,User,-,"How likely are you to correctly recall the second item in the pair?|Type your response on a scale from 0-100 and then press Enter.",Study/JOL,"Study Phase",1634,,,741,1076,,,,100,1
5ecc0ae50cf6970c228a6bd6,sebbzaozcu,Trevor-ex1,1,76,2020-07-17T11:08:19-07:00,2.0275990962982,8,versionC_stim.csv,JOL_H_VersionD.csv,"Highlight vs normal D","Highlight vs normal",STRAWBERRY,FRUIT,Study2,F,124,101,JOL,User,-,"How likely are you to correctly recall the second item in the pair?|Type your response on a scale from 0-100 and then press Enter.",Study/JOL,"Study Phase",1845,,,1122,1458,,,,100,1
5ecc0ae50cf6970c228a6bd6,sebbzaozcu,Trevor-ex1,1,77,2020-07-17T11:08:24-07:00,5.3989479541779,8,versionC_stim.csv,JOL_H_VersionD.csv,"Highlight vs normal D","Highlight vs normal",JOKE,KEYS,Study2,U,165,119,JOL,User,-,"How likely are you to correctly recall the second item in the pair?|Type your response on a scale from 0-100 and then press Enter.",Study/JOL,"Study Phase",5204,,,2999,4863,,,,0,1
5ecc0ae50cf6970c228a6bd6,sebbzaozcu,Trevor-ex1,1,78,2020-07-17T11:08:26-07:00,2.0347211360931,8,versionC_stim.csv,JOL_H_VersionD.csv,"Highlight vs normal D","Highlight vs normal",CLOTHES,CAKE,Study2,U,166,160,JOL_H,User,-,"How likely are you to correctly recall the second item in the pair?|Type your response on a scale from 0-100 and then press Enter.",Study/JOL,"Study Phase",1784,,,1334,1334,,,,0,1
5ecc0ae50cf6970c228a6bd6,sebbzaozcu,Trevor-ex1,1,79,2020-07-17T11:08:43-07:00,16.205343961716,8,versionC_stim.csv,JOL_H_VersionD.csv,"Highlight vs normal D","Highlight vs normal",TRUTHFUL,HONEST,Study2,F,133,146,JOL_H,User,-,"How likely are you to correctly recall the second item in the pair?|Type your response on a scale from 0-100 and then press Enter.",Study/JOL,"Study Phase",15972,,,1254,15444,,,,90,1
5ecc0ae50cf6970c228a6bd6,sebbzaozcu,Trevor-ex1,1,80,2020-07-17T11:08:44-07:00,1.8431420326233,8,versionC_stim.csv,JOL_H_VersionD.csv,"Highlight vs normal D","Highlight vs normal",BRAWL,FIGHT,Study2,F,135,149,JOL_H,User,-,"How likely are you to correctly recall the second item in the pair?|Type your response on a scale from 0-100 and then press Enter.",Study/JOL,"Study Phase",1631,,,856,1254,,,,100,1
5ecc0ae50cf6970c228a6bd6,sebbzaozcu,Trevor-ex1,1,81,2020-07-17T11:08:48-07:00,3.5291118621826,8,versionC_stim.csv,JOL_H_VersionD.csv,"Highlight vs normal D","Highlight vs normal",CLOTH,STRETCH,Study2,U,157,167,JOL_H,User,-,"How likely are you to correctly recall the second item in the pair?|Type your response on a scale from 0-100 and then press Enter.",Study/JOL,"Study Phase",3297,,,769,2999,,,,75,1
5ecc0ae50cf6970c228a6bd6,sebbzaozcu,Trevor-ex1,1,82,2020-07-17T11:08:51-07:00,3.3084571361542,8,versionC_stim.csv,JOL_H_VersionD.csv,"Highlight vs normal D","Highlight vs normal",SARDINE,FISH,Study2,F,130,102,JOL,User,-,"How likely are you to correctly recall the second item in the pair?|Type your response on a scale from 0-100 and then press Enter.",Study/JOL,"Study Phase",3110,,,2068,2610,,,,85,1
5ecc0ae50cf6970c228a6bd6,sebbzaozcu,Trevor-ex1,1,83,2020-07-17T11:08:54-07:00,2.8545389175415,8,versionC_stim.csv,JOL_H_VersionD.csv,"Highlight vs normal D","Highlight vs normal",SHAVE,RAZOR,Study2,S,136,139,JOL_H,User,-,"How likely are you to correctly recall the second item in the pair?|Type your response on a scale from 0-100 and then press Enter.",Study/JOL,"Study Phase",2634,,,1447,2104,,,,95,1
5ecc0ae50cf6970c228a6bd6,sebbzaozcu,Trevor-ex1,1,84,2020-07-17T11:09:00-07:00,5.6390988826752,8,versionC_stim.csv,JOL_H_VersionD.csv,"Highlight vs normal D","Highlight vs normal",TOIL,LEASE,Study2,U,170,114,JOL,User,-,"How likely are you to correctly recall the second item in the pair?|Type your response on a scale from 0-100 and then press Enter.",Study/JOL,"Study Phase",5390,,,3289,4943,,,,0,1
5ecc0ae50cf6970c228a6bd6,sebbzaozcu,Trevor-ex1,1,85,2020-07-17T11:09:03-07:00,2.9992589950562,8,versionC_stim.csv,JOL_H_VersionD.csv,"Highlight vs normal D","Highlight vs normal",ABLE,CRACKLE,Study2,U,162,128,JOL,User,-,"How likely are you to correctly recall the second item in the pair?|Type your response on a scale from 0-100 and then press Enter.",Study/JOL,"Study Phase",2771,,,2171,2171,,,,0,1
5ecc0ae50cf6970c228a6bd6,sebbzaozcu,Trevor-ex1,1,86,2020-07-17T11:09:10-07:00,7.763414144516,8,versionC_stim.csv,JOL_H_VersionD.csv,"Highlight vs normal D","Highlight vs normal",MYSTERY,DETECTIVE,Study2,B,100,144,JOL_H,User,-,"How likely are you to correctly recall the second item in the pair?|Type your response on a scale from 0-100 and then press Enter.",Study/JOL,"Study Phase",7518,,,1409,6559,,,,80,1
5ecc0ae50cf6970c228a6bd6,sebbzaozcu,Trevor-ex1,1,87,2020-07-17T11:09:14-07:00,3.1094679832458,8,versionC_stim.csv,JOL_H_VersionD.csv,"Highlight vs normal D","Highlight vs normal",STEAK,GIVE,Study2,U,158,125,JOL,User,-,"How likely are you to correctly recall the second item in the pair?|Type your response on a scale from 0-100 and then press Enter.",Study/JOL,"Study Phase",2892,,,2261,2261,,,,0,1
5ecc0ae50cf6970c228a6bd6,sebbzaozcu,Trevor-ex1,1,88,2020-07-17T11:09:16-07:00,2.9045388698578,8,versionC_stim.csv,JOL_H_VersionD.csv,"Highlight vs normal D","Highlight vs normal",OBTAIN,MEAT,Study2,U,161,132,JOL,User,-,"How likely are you to correctly recall the second item in the pair?|Type your response on a scale from 0-100 and then press Enter.",Study/JOL,"Study Phase",2680,,,1126,1127,,,,0,1
5ecc0ae50cf6970c228a6bd6,sebbzaozcu,Trevor-ex1,1,89,2020-07-17T11:09:22-07:00,5.8399620056152,8,versionC_stim.csv,JOL_H_VersionD.csv,"Highlight vs normal D","Highlight vs normal",FIGHT,FEUD,Study2,B,113,103,JOL,User,-,"How likely are you to correctly recall the second item in the pair?|Type your response on a scale from 0-100 and then press Enter.",Study/JOL,"Study Phase",5604,,,1499,5213,,,,90,1
5ecc0ae50cf6970c228a6bd6,sebbzaozcu,Trevor-ex1,1,90,2020-07-17T11:09:25-07:00,2.2860510349274,8,versionC_stim.csv,JOL_H_VersionD.csv,"Highlight vs normal D","Highlight vs normal",DRINK,WATER,Study2,S,143,105,JOL,User,-,"How likely are you to correctly recall the second item in the pair?|Type your response on a scale from 0-100 and then press Enter.",Study/JOL,"Study Phase",2078,,,1126,1589,,,,100,1
5ecc0ae50cf6970c228a6bd6,sebbzaozcu,Trevor-ex1,1,91,2020-07-17T11:09:33-07:00,8.5007600784302,8,versionC_stim.csv,JOL_H_VersionD.csv,"Highlight vs normal D","Highlight vs normal",SHED,TOOL,BUFFER4,Buffer,178,181,JOL,User,-,"How likely are you to correctly recall the second item in the pair?|Type your response on a scale from 0-100 and then press Enter.",Study/JOL,BUFFER2,8189,,,3687,7766,,,,80,1
5ecc0ae50cf6970c228a6bd6,sebbzaozcu,Trevor-ex1,1,92,2020-07-17T11:09:35-07:00,2.177768945694,8,versionC_stim.csv,JOL_H_VersionD.csv,"Highlight vs normal D","Highlight vs normal",YEAR,MONTH,BUFFER4,Buffer,177,178,JOL_H,User,-,"How likely are you to correctly recall the second item in the pair?|Type your response on a scale from 0-100 and then press Enter.",Study/JOL,BUFFER2,1969,,,896,1286,,,,100,1
5ecc0ae50cf6970c228a6bd6,sebbzaozcu,Trevor-ex1,1,93,2020-07-17T11:09:37-07:00,1.9147851467133,8,versionC_stim.csv,JOL_H_VersionD.csv,"Highlight vs normal D","Highlight vs normal",MARCH,SPRING,BUFFER4,Buffer,179,177,JOL_H,User,-,"How likely are you to correctly recall the second item in the pair?|Type your response on a scale from 0-100 and then press Enter.",Study/JOL,BUFFER2,1690,,,732,1106,,,,100,1
5ecc0ae50cf6970c228a6bd6,sebbzaozcu,Trevor-ex1,1,94,2020-07-17T11:09:44-07:00,6.4384939670563,8,versionC_stim.csv,JOL_H_VersionD.csv,"Highlight vs normal D","Highlight vs normal",WEEKS,DAYS,BUFFER4,Buffer,176,180,JOL,User,-,"How likely are you to correctly recall the second item in the pair?|Type your response on a scale from 0-100 and then press Enter.",Study/JOL,BUFFER2,6226,,,1094,5509,,,,50,1
5ecc0ae50cf6970c228a6bd6,sebbzaozcu,Trevor-ex1,1,95,2020-07-17T11:09:46-07:00,2.3418009281158,8,versionC_stim.csv,JOL_H_VersionD.csv,"Highlight vs normal D","Highlight vs normal",SPOOKY,OCTOBER,BUFFER4,Buffer,180,179,JOL,User,-,"How likely are you to correctly recall the second item in the pair?|Type your response on a scale from 0-100 and then press Enter.",Study/JOL,BUFFER2,2121,,,1581,1811,,,,50,1
5ecc0ae50cf6970c228a6bd6,sebbzaozcu,Trevor-ex1,1,96,2020-07-17T11:09:47-07:00,1.2767400741577,8,versionC_stim.csv,JOL_H_VersionD.csv,"Highlight vs normal D","Highlight vs normal",,,,,,0,Instruct,User,-,"You have completed this section. Please press Enter.",Filler_Instruction,Instruct2,1101,,,-1,-1,,,,,1
5ecc0ae50cf6970c228a6bd6,sebbzaozcu,Trevor-ex1,1,97,2020-07-17T11:11:48-07:00,120.26792287827,8,versionC_stim.csv,JOL_H_VersionD.csv,"Highlight vs normal D","Highlight vs normal",,,,,,0,FreeRecall,120,120,"Please list the 50 US states in alphabetical order. The task will automatically advance to the next screen after two minutes.",,Filler1,120002,"Alabama, Alaska, Arizona, Arkansas, California, Colorado, Connecticut, Delaware, Florida, Georgia, Hawaii, Idaho, Illinois, Indiana, Iowa, Kansas, Kentucky, Louisiana, Maine, Maryland, Massachusetts, Michigan, Minnesota, Mississippi, Missouri, Montana, Nebraska, Nevada, New Hampshire, New Jersey, New Mexico, New York, North Carolina, North Dakota, Ohio, Oklahoma, Oregon, Pennsylvania,",0,16275,119946,0,0,,,0.943
5ecc0ae50cf6970c228a6bd6,sebbzaozcu,Trevor-ex1,1,98,2020-07-17T11:12:14-07:00,26.660170078278,8,versionC_stim.csv,JOL_H_VersionD.csv,"Highlight vs normal D","Highlight vs normal",,,,,,0,Instruct,-,10,"You will now be presented with the first word from each of the previously studied item pairs. Please type the missing word. If you do not know the word, you may guess or press Enter to skip forward to the next pair.",,Instruct3,26463,,,-1,-1,,,,,0.271
5ecc0ae50cf6970c228a6bd6,sebbzaozcu,Trevor-ex1,1,99,2020-07-17T11:12:23-07:00,8.3838410377502,8,versionC_stim.csv,JOL_H_VersionD.csv,"Highlight vs normal D","Highlight vs normal",TEMPER,TANTRUM,Study2,S,154,152,Test,User,-,,Recall,Recall1,8142,TANTRUM,100,4616,5886,1,1,,,1
5ecc0ae50cf6970c228a6bd6,sebbzaozcu,Trevor-ex1,1,100,2020-07-17T11:12:26-07:00,3.7249119281769,8,versionC_stim.csv,JOL_H_VersionD.csv,"Highlight vs normal D","Highlight vs normal",SHAVE,RAZOR,Study2,S,136,139,Test,User,-,,Recall,Recall1,3490,RAZOR,100,1634,2353,1,1,,,1
5ecc0ae50cf6970c228a6bd6,sebbzaozcu,Trevor-ex1,1,101,2020-07-17T11:12:30-07:00,3.572163105011,8,versionC_stim.csv,JOL_H_VersionD.csv,"Highlight vs normal D","Highlight vs normal",WET,DRY,Study2,S,146,137,Test,User,-,,Recall,Recall1,3328,WATER,25,1794,2233,0,0,,,1
5ecc0ae50cf6970c228a6bd6,sebbzaozcu,Trevor-ex1,1,102,2020-07-17T11:12:34-07:00,3.6908957958221,8,versionC_stim.csv,JOL_H_VersionD.csv,"Highlight vs normal D","Highlight vs normal",BALLOON,POP,Study2,F,123,155,Test,User,-,,Recall,Recall1,3464,POP,100,1494,1720,1,1,,,1
5ecc0ae50cf6970c228a6bd6,sebbzaozcu,Trevor-ex1,1,103,2020-07-17T11:12:37-07:00,3.449606180191,8,versionC_stim.csv,JOL_H_VersionD.csv,"Highlight vs normal D","Highlight vs normal",SARDINE,FISH,Study2,F,130,102,Test,User,-,,Recall,Recall1,3225,FISH,100,1107,2530,1,1,,,1
5ecc0ae50cf6970c228a6bd6,sebbzaozcu,Trevor-ex1,1,104,2020-07-17T11:12:41-07:00,3.8681869506836,8,versionC_stim.csv,JOL_H_VersionD.csv,"Highlight vs normal D","Highlight vs normal",SCISSORS,SHEARS,Study2,B,112,175,Test,User,-,,Recall,Recall1,3645,SHEARS,100,1919,2492,1,1,,,1
5ecc0ae50cf6970c228a6bd6,sebbzaozcu,Trevor-ex1,1,105,2020-07-17T11:12:49-07:00,8.1032378673553,8,versionC_stim.csv,JOL_H_VersionD.csv,"Highlight vs normal D","Highlight vs normal",FIGHT,FEUD,Study2,B,113,103,Test,User,-,,Recall,Recall1,7874,FEUD,100,2426,2737,1,1,,,1
5ecc0ae50cf6970c228a6bd6,sebbzaozcu,Trevor-ex1,1,106,2020-07-17T11:13:05-07:00,15.902533054352,8,versionC_stim.csv,JOL_H_VersionD.csv,"Highlight vs normal D","Highlight vs normal",RED,CHERRY,Study2,B,104,157,Test,User,-,,Recall,Recall1,15673,,0,-1,-1,0,0,,,0.937
5ecc0ae50cf6970c228a6bd6,sebbzaozcu,Trevor-ex1,1,107,2020-07-17T11:13:11-07:00,5.7846620082855,8,versionC_stim.csv,JOL_H_VersionD.csv,"Highlight vs normal D","Highlight vs normal",CAR,DRIVER,Study2,B,106,120,Test,User,-,,Recall,Recall1,5558,WINDSHIELD,25,2023,4244,0,0,,,1
5ecc0ae50cf6970c228a6bd6,sebbzaozcu,Trevor-ex1,1,108,2020-07-17T11:13:14-07:00,3.2281539440155,8,versionC_stim.csv,JOL_H_VersionD.csv,"Highlight vs normal D","Highlight vs normal",OBTAIN,MEAT,Study2,U,161,132,Test,User,-,,Recall,Recall1,3016,MEAT,100,1693,2094,1,1,,,1
5ecc0ae50cf6970c228a6bd6,sebbzaozcu,Trevor-ex1,1,109,2020-07-17T11:13:39-07:00,24.900796175003,8,versionC_stim.csv,JOL_H_VersionD.csv,"Highlight vs normal D","Highlight vs normal",END,ADJOURN,Study2,B,101,107,Test,User,-,,Recall,Recall1,24671,,0,2405,2708,0,0,,,0.929
5ecc0ae50cf6970c228a6bd6,sebbzaozcu,Trevor-ex1,1,110,2020-07-17T11:13:44-07:00,4.7463519573212,8,versionC_stim.csv,JOL_H_VersionD.csv,"Highlight vs normal D","Highlight vs normal",ELECTION,MAZE,Study2,U,159,111,Test,User,-,,Recall,Recall1,4523,MAZE,100,2633,3889,1,1,,,1
5ecc0ae50cf6970c228a6bd6,sebbzaozcu,Trevor-ex1,1,111,2020-07-17T11:13:50-07:00,6.8173730373383,8,versionC_stim.csv,JOL_H_VersionD.csv,"Highlight vs normal D","Highlight vs normal",LEAGUE,BASEBALL,Study2,F,131,143,Test,User,-,,Recall,Recall1,6585,BASEBALL,100,3706,4673,1,1,,,1
5ecc0ae50cf6970c228a6bd6,sebbzaozcu,Trevor-ex1,1,112,2020-07-17T11:13:54-07:00,4.0349388122559,8,versionC_stim.csv,JOL_H_VersionD.csv,"Highlight vs normal D","Highlight vs normal",LOVE,AFFECTION,Study2,B,115,135,Test,User,-,,Recall,Recall1,3814,AFFECTION,100,1523,2414,1,1,,,1
5ecc0ae50cf6970c228a6bd6,sebbzaozcu,Trevor-ex1,1,113,2020-07-17T11:14:00-07:00,5.8389282226562,8,versionC_stim.csv,JOL_H_VersionD.csv,"Highlight vs normal D","Highlight vs normal",SEATBELT,SAFETY,Study2,S,147,154,Test,User,-,,Recall,Recall1,5601,SAFETY,100,1579,4673,1,1,,,1
5ecc0ae50cf6970c228a6bd6,sebbzaozcu,Trevor-ex1,1,114,2020-07-17T11:14:04-07:00,3.2779738903046,8,versionC_stim.csv,JOL_H_VersionD.csv,"Highlight vs normal D","Highlight vs normal",PENGUIN,BIRD,Study2,F,119,176,Test,User,-,,Recall,Recall1,3094,BIRD,100,1246,1675,1,1,,,1
5ecc0ae50cf6970c228a6bd6,sebbzaozcu,Trevor-ex1,1,115,2020-07-17T11:14:10-07:00,6.3012330532074,8,versionC_stim.csv,JOL_H_VersionD.csv,"Highlight vs normal D","Highlight vs normal",TOIL,LEASE,Study2,U,170,114,Test,User,-,,Recall,Recall1,5991,LEASE,100,4648,5135,1,1,,,1
5ecc0ae50cf6970c228a6bd6,sebbzaozcu,Trevor-ex1,1,116,2020-07-17T11:14:13-07:00,3.5698919296265,8,versionC_stim.csv,JOL_H_VersionD.csv,"Highlight vs normal D","Highlight vs normal",FLIP,TURN,Study2,F,116,136,Test,User,-,,Recall,Recall1,3341,TURN,100,2059,2354,1,1,,,1
5ecc0ae50cf6970c228a6bd6,sebbzaozcu,Trevor-ex1,1,117,2020-07-17T11:14:17-07:00,3.9945769309998,8,versionC_stim.csv,JOL_H_VersionD.csv,"Highlight vs normal D","Highlight vs normal",TIE,SHOELACE,Study2,B,99,162,Test,User,-,,Recall,Recall1,3716,SHOELACE,100,2081,2848,1,1,,,1
5ecc0ae50cf6970c228a6bd6,sebbzaozcu,Trevor-ex1,1,118,2020-07-17T11:14:20-07:00,2.9326300621033,8,versionC_stim.csv,JOL_H_VersionD.csv,"Highlight vs normal D","Highlight vs normal",JAR,MASON,Study2,S,138,122,Test,User,-,,Recall,Recall1,2700,MASON,100,1351,1686,1,1,,,1
5ecc0ae50cf6970c228a6bd6,sebbzaozcu,Trevor-ex1,1,119,2020-07-17T11:14:24-07:00,3.8833780288696,8,versionC_stim.csv,JOL_H_VersionD.csv,"Highlight vs normal D","Highlight vs normal",CHARM,VEHICLE,Study2,U,160,170,Test,User,-,,Recall,Recall1,3657,,0,-1,-1,0,0,,,1
5ecc0ae50cf6970c228a6bd6,sebbzaozcu,Trevor-ex1,1,120,2020-07-17T11:14:28-07:00,3.5443179607391,8,versionC_stim.csv,JOL_H_VersionD.csv,"Highlight vs normal D","Highlight vs normal",HEAD,SCALP,Study2,B,105,169,Test,User,-,,Recall,Recall1,3300,,0,-1,-1,0,0,,,1
5ecc0ae50cf6970c228a6bd6,sebbzaozcu,Trevor-ex1,1,121,2020-07-17T11:14:41-07:00,12.98362493515,8,versionC_stim.csv,JOL_H_VersionD.csv,"Highlight vs normal D","Highlight vs normal",FAVORITE,BEST,Study2,F,125,100,Test,User,-,,Recall,Recall1,12746,,0,-1,-1,0,0,,,0.789
5ecc0ae50cf6970c228a6bd6,sebbzaozcu,Trevor-ex1,1,122,2020-07-17T11:14:46-07:00,5.493066072464,8,versionC_stim.csv,JOL_H_VersionD.csv,"Highlight vs normal D","Highlight vs normal",HAVE,OWN,Study2,S,153,109,Test,User,-,,Recall,Recall1,5284,OWN,100,3863,4059,1,1,,,1
5ecc0ae50cf6970c228a6bd6,sebbzaozcu,Trevor-ex1,1,123,2020-07-17T11:14:52-07:00,5.8257241249084,8,versionC_stim.csv,JOL_H_VersionD.csv,"Highlight vs normal D","Highlight vs normal",MORNING,TEMPERATURE,Study2,U,173,127,Test,User,-,,Recall,Recall1,5594,TEMPERATURE,100,2192,3471,1,1,,,1
5ecc0ae50cf6970c228a6bd6,sebbzaozcu,Trevor-ex1,1,124,2020-07-17T11:14:56-07:00,3.7619779109955,8,versionC_stim.csv,JOL_H_VersionD.csv,"Highlight vs normal D","Highlight vs normal",JOKE,KEYS,Study2,U,165,119,Test,User,-,,Recall,Recall1,3139,,0,-1,-1,0,0,,,1
5ecc0ae50cf6970c228a6bd6,sebbzaozcu,Trevor-ex1,1,125,2020-07-17T11:14:59-07:00,3.2902898788452,8,versionC_stim.csv,JOL_H_VersionD.csv,"Highlight vs normal D","Highlight vs normal",TICK,FLEA,Study2,S,151,141,Test,User,-,,Recall,Recall1,3066,FLEA,100,1874,2223,1,1,,,1
5ecc0ae50cf6970c228a6bd6,sebbzaozcu,Trevor-ex1,1,126,2020-07-17T11:15:03-07:00,3.7289850711823,8,versionC_stim.csv,JOL_H_VersionD.csv,"Highlight vs normal D","Highlight vs normal",REVENGE,EVEN,Study2,F,122,156,Test,User,-,,Recall,Recall1,2967,EVEN,100,1642,1971,1,1,,,1
5ecc0ae50cf6970c228a6bd6,sebbzaozcu,Trevor-ex1,1,127,2020-07-17T11:15:06-07:00,3.2232739925385,8,versionC_stim.csv,JOL_H_VersionD.csv,"Highlight vs normal D","Highlight vs normal",BRACELET,WRIST,Study2,S,140,173,Test,User,-,,Recall,Recall1,3012,WRIST,100,1611,2178,1,1,,,1
5ecc0ae50cf6970c228a6bd6,sebbzaozcu,Trevor-ex1,1,128,2020-07-17T11:15:10-07:00,3.8253531455994,8,versionC_stim.csv,JOL_H_VersionD.csv,"Highlight vs normal D","Highlight vs normal",HATE,NAME,Study2,U,167,171,Test,User,-,,Recall,Recall1,3115,,0,-1,-1,0,0,,,1
5ecc0ae50cf6970c228a6bd6,sebbzaozcu,Trevor-ex1,1,129,2020-07-17T11:15:13-07:00,3.5409998893738,8,versionC_stim.csv,JOL_H_VersionD.csv,"Highlight vs normal D","Highlight vs normal",PAPER,DOCUMENT,Study2,B,109,121,Test,User,-,,Recall,Recall1,3250,DOCUMENT,100,1571,2378,1,1,,,1
5ecc0ae50cf6970c228a6bd6,sebbzaozcu,Trevor-ex1,1,130,2020-07-17T11:15:16-07:00,2.9914109706879,8,versionC_stim.csv,JOL_H_VersionD.csv,"Highlight vs normal D","Highlight vs normal",TRASH,LITTER,Study2,B,103,145,Test,User,-,,Recall,Recall1,2785,LITTER,100,1582,2149,1,1,,,1
5ecc0ae50cf6970c228a6bd6,sebbzaozcu,Trevor-ex1,1,131,2020-07-17T11:15:19-07:00,2.7978789806366,8,versionC_stim.csv,JOL_H_VersionD.csv,"Highlight vs normal D","Highlight vs normal",CUT,CHOP,Study2,B,107,110,Test,User,-,,Recall,Recall1,2504,,0,-1,-1,0,0,,,1
5ecc0ae50cf6970c228a6bd6,sebbzaozcu,Trevor-ex1,1,132,2020-07-17T11:15:27-07:00,7.4942240715027,8,versionC_stim.csv,JOL_H_VersionD.csv,"Highlight vs normal D","Highlight vs normal",CHILDREN,MIRROR,Study2,U,174,150,Test,User,-,,Recall,Recall1,7298,,0,-1,-1,0,0,,,1
5ecc0ae50cf6970c228a6bd6,sebbzaozcu,Trevor-ex1,1,133,2020-07-17T11:15:32-07:00,4.8371710777283,8,versionC_stim.csv,JOL_H_VersionD.csv,"Highlight vs normal D","Highlight vs normal",EAT,DINE,Study2,B,111,123,Test,User,-,,Recall,Recall1,4469,,0,-1,-1,0,0,,,0.783
5ecc0ae50cf6970c228a6bd6,sebbzaozcu,Trevor-ex1,1,134,2020-07-17T11:15:40-07:00,8.3682818412781,8,versionC_stim.csv,JOL_H_VersionD.csv,"Highlight vs normal D","Highlight vs normal",SCAR,MAIN,Study2,U,175,134,Test,User,-,,Recall,Recall1,8146,,0,-1,-1,0,0,,,1
5ecc0ae50cf6970c228a6bd6,sebbzaozcu,Trevor-ex1,1,135,2020-07-17T11:15:42-07:00,2.5170791149139,8,versionC_stim.csv,JOL_H_VersionD.csv,"Highlight vs normal D","Highlight vs normal",WINDSHIELD,CAR,Study2,F,117,126,Test,User,-,,Recall,Recall1,2300,CAR,100,1533,1841,1,1,,,1
5ecc0ae50cf6970c228a6bd6,sebbzaozcu,Trevor-ex1,1,136,2020-07-17T11:15:48-07:00,5.9022479057312,8,versionC_stim.csv,JOL_H_VersionD.csv,"Highlight vs normal D","Highlight vs normal",ABLE,CRACKLE,Study2,U,162,128,Test,User,-,,Recall,Recall1,5461,,0,-1,-1,0,0,,,1
5ecc0ae50cf6970c228a6bd6,sebbzaozcu,Trevor-ex1,1,137,2020-07-17T11:15:52-07:00,3.3021521568298,8,versionC_stim.csv,JOL_H_VersionD.csv,"Highlight vs normal D","Highlight vs normal",CARBON,ELEMENT,Study2,S,141,116,Test,User,-,,Recall,Recall1,3079,ELEMENT,100,1415,2838,1,1,,,1
5ecc0ae50cf6970c228a6bd6,sebbzaozcu,Trevor-ex1,1,138,2020-07-17T11:15:54-07:00,2.6159338951111,8,versionC_stim.csv,JOL_H_VersionD.csv,"Highlight vs normal D","Highlight vs normal",GAME,CLUE,Study2,B,97,124,Test,User,-,,Recall,Recall1,2429,CLUE,100,1828,2237,1,1,,,1
5ecc0ae50cf6970c228a6bd6,sebbzaozcu,Trevor-ex1,1,139,2020-07-17T11:16:02-07:00,7.7023239135742,8,versionC_stim.csv,JOL_H_VersionD.csv,"Highlight vs normal D","Highlight vs normal",CLOTHES,CAKE,Study2,U,166,160,Test,User,-,,Recall,Recall1,7491,,0,-1,-1,0,0,,,1
5ecc0ae50cf6970c228a6bd6,sebbzaozcu,Trevor-ex1,1,140,2020-07-17T11:16:04-07:00,1.8414211273193,8,versionC_stim.csv,JOL_H_VersionD.csv,"Highlight vs normal D","Highlight vs normal",TAN,SUN,Study2,S,155,174,Test,User,-,,Recall,Recall1,1596,SUN,100,1091,1372,1,1,,,1
5ecc0ae50cf6970c228a6bd6,sebbzaozcu,Trevor-ex1,1,141,2020-07-17T11:16:06-07:00,2.6224539279938,8,versionC_stim.csv,JOL_H_VersionD.csv,"Highlight vs normal D","Highlight vs normal",BANKER,MONEY,Study2,F,132,129,Test,User,-,,Recall,Recall1,2402,MONEY,100,1059,1993,1,1,,,1
5ecc0ae50cf6970c228a6bd6,sebbzaozcu,Trevor-ex1,1,142,2020-07-17T11:16:08-07:00,2.0383100509644,8,versionC_stim.csv,JOL_H_VersionD.csv,"Highlight vs normal D","Highlight vs normal",DONKEY,MULE,Study2,B,108,151,Test,User,-,,Recall,Recall1,1812,MULE,100,1197,1620,1,1,,,1
5ecc0ae50cf6970c228a6bd6,sebbzaozcu,Trevor-ex1,1,143,2020-07-17T11:16:11-07:00,2.575355052948,8,versionC_stim.csv,JOL_H_VersionD.csv,"Highlight vs normal D","Highlight vs normal",EQUAL,RIGHTS,Study2,S,137,118,Test,User,-,,Recall,Recall1,2377,RIGHTS,100,1666,2153,1,1,,,1
5ecc0ae50cf6970c228a6bd6,sebbzaozcu,Trevor-ex1,1,144,2020-07-17T11:16:13-07:00,2.2662508487701,8,versionC_stim.csv,JOL_H_VersionD.csv,"Highlight vs normal D","Highlight vs normal",NAP,SLEEP,Study2,F,134,153,Test,User,-,,Recall,Recall1,2052,SLEEP,100,1278,1796,1,1,,,1
5ecc0ae50cf6970c228a6bd6,sebbzaozcu,Trevor-ex1,1,145,2020-07-17T11:16:16-07:00,3.0639801025391,8,versionC_stim.csv,JOL_H_VersionD.csv,"Highlight vs normal D","Highlight vs normal",LIE,TRUTH,Study2,S,148,165,Test,User,-,,Recall,Recall1,2852,,0,-1,-1,0,0,,,1
5ecc0ae50cf6970c228a6bd6,sebbzaozcu,Trevor-ex1,1,146,2020-07-17T11:16:20-07:00,3.3527729511261,8,versionC_stim.csv,JOL_H_VersionD.csv,"Highlight vs normal D","Highlight vs normal",PLANT,CACTUS,Study2,B,98,131,Test,User,-,,Recall,Recall1,3143,,0,-1,-1,0,0,,,1
5ecc0ae50cf6970c228a6bd6,sebbzaozcu,Trevor-ex1,1,147,2020-07-17T11:16:22-07:00,2.4902539253235,8,versionC_stim.csv,JOL_H_VersionD.csv,"Highlight vs normal D","Highlight vs normal",OUNCE,BOTH,Study2,U,172,164,Test,User,-,,Recall,Recall1,2187,,0,-1,-1,0,0,,,1
5ecc0ae50cf6970c228a6bd6,sebbzaozcu,Trevor-ex1,1,148,2020-07-17T11:16:25-07:00,2.6274662017822,8,versionC_stim.csv,JOL_H_VersionD.csv,"Highlight vs normal D","Highlight vs normal",BRAWL,FIGHT,Study2,F,135,149,Test,User,-,,Recall,Recall1,2406,FIGHT,100,1749,2206,1,1,,,1
5ecc0ae50cf6970c228a6bd6,sebbzaozcu,Trevor-ex1,1,149,2020-07-17T11:16:29-07:00,4.0696868896484,8,versionC_stim.csv,JOL_H_VersionD.csv,"Highlight vs normal D","Highlight vs normal",ACTRESS,STAR,Study2,F,120,115,Test,User,-,,Recall,Recall1,3827,STAR,100,1517,2523,1,1,,,1
5ecc0ae50cf6970c228a6bd6,sebbzaozcu,Trevor-ex1,1,150,2020-07-17T11:16:32-07:00,3.1499059200287,8,versionC_stim.csv,JOL_H_VersionD.csv,"Highlight vs normal D","Highlight vs normal",CLOTH,STRETCH,Study2,U,157,167,Test,User,-,,Recall,Recall1,2934,STRETCH,100,1079,2062,1,1,,,1
5ecc0ae50cf6970c228a6bd6,sebbzaozcu,Trevor-ex1,1,151,2020-07-17T11:16:35-07:00,2.6509861946106,8,versionC_stim.csv,JOL_H_VersionD.csv,"Highlight vs normal D","Highlight vs normal",BANG,FUZZY,Study2,U,168,113,Test,User,-,,Recall,Recall1,2440,,0,-1,-1,0,0,,,1
5ecc0ae50cf6970c228a6bd6,sebbzaozcu,Trevor-ex1,1,152,2020-07-17T11:16:40-07:00,5.6230938434601,8,versionC_stim.csv,JOL_H_VersionD.csv,"Highlight vs normal D","Highlight vs normal",LONG,EXTENSION,Study2,B,96,163,Test,User,-,,Recall,Recall1,5385,EXTENSION,100,1802,4442,1,1,,,1
5ecc0ae50cf6970c228a6bd6,sebbzaozcu,Trevor-ex1,1,153,2020-07-17T11:16:43-07:00,3.0261270999908,8,versionC_stim.csv,JOL_H_VersionD.csv,"Highlight vs normal D","Highlight vs normal",WAX,CANDLE,Study2,S,139,159,Test,User,-,,Recall,Recall1,2797,,0,-1,-1,0,0,,,1
5ecc0ae50cf6970c228a6bd6,sebbzaozcu,Trevor-ex1,1,154,2020-07-17T11:16:45-07:00,2.1464450359344,8,versionC_stim.csv,JOL_H_VersionD.csv,"Highlight vs normal D","Highlight vs normal",DOG,FURRY,Study2,B,102,138,Test,User,-,,Recall,Recall1,1892,,0,-1,-1,0,0,,,1
5ecc0ae50cf6970c228a6bd6,sebbzaozcu,Trevor-ex1,1,155,2020-07-17T11:16:48-07:00,2.7207570075989,8,versionC_stim.csv,JOL_H_VersionD.csv,"Highlight vs normal D","Highlight vs normal",DRINK,WATER,Study2,S,143,105,Test,User,-,,Recall,Recall1,2420,,0,-1,-1,0,0,,,1
5ecc0ae50cf6970c228a6bd6,sebbzaozcu,Trevor-ex1,1,156,2020-07-17T11:16:50-07:00,2.0240089893341,8,versionC_stim.csv,JOL_H_VersionD.csv,"Highlight vs normal D","Highlight vs normal",FICTION,LISTEN,Study2,U,164,108,Test,User,-,,Recall,Recall1,1814,,0,-1,-1,0,0,,,1
5ecc0ae50cf6970c228a6bd6,sebbzaozcu,Trevor-ex1,1,157,2020-07-17T11:16:53-07:00,2.8928439617157,8,versionC_stim.csv,JOL_H_VersionD.csv,"Highlight vs normal D","Highlight vs normal",STRAWBERRY,FRUIT,Study2,F,124,101,Test,User,-,,Recall,Recall1,2669,RED,25,2054,2333,0,0,,,1
5ecc0ae50cf6970c228a6bd6,sebbzaozcu,Trevor-ex1,1,158,2020-07-17T11:16:57-07:00,4.1330859661102,8,versionC_stim.csv,JOL_H_VersionD.csv,"Highlight vs normal D","Highlight vs normal",GROUND,EARTH,Study2,S,144,147,Test,User,-,,Recall,Recall1,3905,EARTH,100,2920,3449,1,1,,,1
5ecc0ae50cf6970c228a6bd6,sebbzaozcu,Trevor-ex1,1,159,2020-07-17T11:16:59-07:00,2.1148979663849,8,versionC_stim.csv,JOL_H_VersionD.csv,"Highlight vs normal D","Highlight vs normal",COFFIN,DEAD,Study2,F,128,98,Test,User,-,,Recall,Recall1,1867,DEAD,100,1141,1499,1,1,,,1
5ecc0ae50cf6970c228a6bd6,sebbzaozcu,Trevor-ex1,1,160,2020-07-17T11:17:02-07:00,3.0700879096985,8,versionC_stim.csv,JOL_H_VersionD.csv,"Highlight vs normal D","Highlight vs normal",MYSTERY,DETECTIVE,Study2,B,100,144,Test,User,-,,Recall,Recall1,2801,DETECTIVE,100,1258,2377,1,1,,,1
5ecc0ae50cf6970c228a6bd6,sebbzaozcu,Trevor-ex1,1,161,2020-07-17T11:17:04-07:00,1.8010971546173,8,versionC_stim.csv,JOL_H_VersionD.csv,"Highlight vs normal D","Highlight vs normal",PANTHER,CAT,Study2,F,126,97,Test,User,-,,Recall,Recall1,1566,CAT,100,1080,1357,1,1,,,1
5ecc0ae50cf6970c228a6bd6,sebbzaozcu,Trevor-ex1,1,162,2020-07-17T11:17:10-07:00,5.4841530323029,8,versionC_stim.csv,JOL_H_VersionD.csv,"Highlight vs normal D","Highlight vs normal",COMMUNICATION,PHONE,Study2,S,149,158,Test,User,-,,Recall,Recall1,5286,PHONE,100,2144,5007,1,1,,,1
5ecc0ae50cf6970c228a6bd6,sebbzaozcu,Trevor-ex1,1,163,2020-07-17T11:17:16-07:00,6.0789668560028,8,versionC_stim.csv,JOL_H_VersionD.csv,"Highlight vs normal D","Highlight vs normal",TRUTHFUL,HONEST,Study2,F,133,146,Test,User,-,,Recall,Recall1,5710,HONEST,100,4230,5093,1,1,,,1
5ecc0ae50cf6970c228a6bd6,sebbzaozcu,Trevor-ex1,1,164,2020-07-17T11:17:18-07:00,1.7874829769135,8,versionC_stim.csv,JOL_H_VersionD.csv,"Highlight vs normal D","Highlight vs normal",BREAKABLE,GLASS,Study2,F,127,104,Test,User,-,,Recall,Recall1,1555,,0,-1,-1,0,0,,,1
5ecc0ae50cf6970c228a6bd6,sebbzaozcu,Trevor-ex1,1,165,2020-07-17T11:17:22-07:00,4.7441740036011,8,versionC_stim.csv,JOL_H_VersionD.csv,"Highlight vs normal D","Highlight vs normal",MAROON,JUSTICE,Study2,U,156,168,Test,User,-,,Recall,Recall1,4577,,0,-1,-1,0,0,,,1
5ecc0ae50cf6970c228a6bd6,sebbzaozcu,Trevor-ex1,1,166,2020-07-17T11:17:24-07:00,1.8064820766449,8,versionC_stim.csv,JOL_H_VersionD.csv,"Highlight vs normal D","Highlight vs normal",COLD,CHILL,Study2,B,114,112,Test,User,-,,Recall,Recall1,1642,ICE,25,1217,1504,0,0,,,1
5ecc0ae50cf6970c228a6bd6,sebbzaozcu,Trevor-ex1,1,167,2020-07-17T11:17:27-07:00,3.0212819576263,8,versionC_stim.csv,JOL_H_VersionD.csv,"Highlight vs normal D","Highlight vs normal",SHAKE,SHELL,Study2,U,163,130,Test,User,-,,Recall,Recall1,2788,,0,-1,-1,0,0,,,1
5ecc0ae50cf6970c228a6bd6,sebbzaozcu,Trevor-ex1,1,168,2020-07-17T11:17:32-07:00,4.4205090999603,8,versionC_stim.csv,JOL_H_VersionD.csv,"Highlight vs normal D","Highlight vs normal",REEL,ROD,Study2,S,150,133,Test,User,-,,Recall,Recall1,3240,ROD,100,1688,2847,1,1,,,1
5ecc0ae50cf6970c228a6bd6,sebbzaozcu,Trevor-ex1,1,169,2020-07-17T11:17:33-07:00,1.7503080368042,8,versionC_stim.csv,JOL_H_VersionD.csv,"Highlight vs normal D","Highlight vs normal",SMELL,INCENSE,Study2,B,110,106,Test,User,-,,Recall,Recall1,1576,,0,-1,-1,0,0,,,1
5ecc0ae50cf6970c228a6bd6,sebbzaozcu,Trevor-ex1,1,170,2020-07-17T11:17:36-07:00,2.5765478610992,8,versionC_stim.csv,JOL_H_VersionD.csv,"Highlight vs normal D","Highlight vs normal",VILLAIN,BAD,Study2,F,118,140,Test,User,-,,Recall,Recall1,2410,EVIL,0,1617,2025,0,0,,,1
5ecc0ae50cf6970c228a6bd6,sebbzaozcu,Trevor-ex1,1,171,2020-07-17T11:17:42-07:00,6.3922810554504,8,versionC_stim.csv,JOL_H_VersionD.csv,"Highlight vs normal D","Highlight vs normal",AWAY,GONE,Study2,S,142,166,Test,User,-,,Recall,Recall1,6207,,0,-1,-1,0,0,,,1
5ecc0ae50cf6970c228a6bd6,sebbzaozcu,Trevor-ex1,1,172,2020-07-17T11:17:45-07:00,3.0674059391022,8,versionC_stim.csv,JOL_H_VersionD.csv,"Highlight vs normal D","Highlight vs normal",LONELY,ALONE,Study2,S,145,117,Test,User,-,,Recall,Recall1,2880,ALONE,100,1064,2647,1,1,,,1
5ecc0ae50cf6970c228a6bd6,sebbzaozcu,Trevor-ex1,1,173,2020-07-17T11:17:49-07:00,3.1464569568634,8,versionC_stim.csv,JOL_H_VersionD.csv,"Highlight vs normal D","Highlight vs normal",NOISE,LOUD,Study2,S,152,148,Test,User,-,,Recall,Recall1,1972,LOUD,100,1323,1779,1,1,,,1
5ecc0ae50cf6970c228a6bd6,sebbzaozcu,Trevor-ex1,1,174,2020-07-17T11:17:50-07:00,1.8111062049866,8,versionC_stim.csv,JOL_H_VersionD.csv,"Highlight vs normal D","Highlight vs normal",CLEAR,MOAT,Study2,U,169,172,Test,User,-,,Recall,Recall1,1635,,0,-1,-1,0,0,,,1
5ecc0ae50cf6970c228a6bd6,sebbzaozcu,Trevor-ex1,1,175,2020-07-17T11:18:02-07:00,11.280533790588,8,versionC_stim.csv,JOL_H_VersionD.csv,"Highlight vs normal D","Highlight vs normal",STEAK,GIVE,Study2,U,158,125,Test,User,-,,Recall,Recall1,11016,,0,-1,-1,0,0,,,0.767
5ecc0ae50cf6970c228a6bd6,sebbzaozcu,Trevor-ex1,1,176,2020-07-17T11:18:10-07:00,8.8258399963379,8,versionC_stim.csv,JOL_H_VersionD.csv,"Highlight vs normal D","Highlight vs normal",AIRCRAFT,PLANE,Study2,F,129,161,Test,User,-,,Recall,Recall1,8642,AIRPLANE,76.923076923077,5641,8312,0,1,,,1
5ecc0ae50cf6970c228a6bd6,sebbzaozcu,Trevor-ex1,1,177,2020-07-17T11:18:13-07:00,2.5217590332031,8,versionC_stim.csv,JOL_H_VersionD.csv,"Highlight vs normal D","Highlight vs normal",THIMBLE,THREAD,Study2,F,121,142,Test,User,-,,Recall,Recall1,2300,THREAD,100,1574,2083,1,1,,,1
5ecc0ae50cf6970c228a6bd6,sebbzaozcu,Trevor-ex1,1,178,2020-07-17T11:18:15-07:00,2.2078399658203,8,versionC_stim.csv,JOL_H_VersionD.csv,"Highlight vs normal D","Highlight vs normal",SIGN,LOAN,Study2,U,171,99,Test,User,-,,Recall,Recall1,1983,,0,-1,-1,0,0,,,1
5ecc0ae50cf6970c228a6bd6,sebbzaozcu,Trevor-ex1,1,179,2020-07-17T11:18:26-07:00,10.945432186127,8,versionC_stim.csv,JOL_H_VersionD.csv,"Highlight vs normal D","Highlight vs normal",,,,,,0,Instruct,-,10,"You will now be presented with a new set of word pairs. Please study each pair. Remember that your memory will be tested! When finished, press Enter to move to the next pair.",Initial_Instruct,Instruct4,10720,,,-1,-1,,,,,0.87
5ecc0ae50cf6970c228a6bd6,sebbzaozcu,Trevor-ex1,1,180,2020-07-17T11:18:37-07:00,10.995437860489,8,versionC_stim.csv,JOL_H_VersionD.csv,"Highlight vs normal D","Highlight vs normal",,,,,,0,Instruct,,10,"You will again be asked to rate your ability to remember these items using a 0 to 100 scale. Remember to use the full range of the scale!",,Instruct10,10791,,,-1,-1,,,,,0.556
5ecc0ae50cf6970c228a6bd6,sebbzaozcu,Trevor-ex1,1,181,2020-07-17T11:18:39-07:00,2.2934010028839,8,versionC_stim.csv,JOL_H_VersionD.csv,"Highlight vs normal D","Highlight vs normal",,,,,,0,Instruct,User,-,"Press Enter when you are readty to begin",,Instruct11,2055,,,-1,-1,,,,,1
5ecc0ae50cf6970c228a6bd6,sebbzaozcu,Trevor-ex1,1,182,2020-07-17T11:18:58-07:00,18.90785908699,8,versionC_stim.csv,JOL_H_VersionD.csv,"Highlight vs normal D","Highlight vs normal",CATCHER,BASEBALL,BUFFER1,Buffer,2,6,JOL_H,User,-,"How likely are you to correctly recall the second item in the pair?|Type your response on a scale from 0-100 and then press Enter.",Study/JOL,BUFFER3,18732,,,17416,18069,,,,100,0.5
5ecc0ae50cf6970c228a6bd6,sebbzaozcu,Trevor-ex1,1,183,2020-07-17T11:19:07-07:00,9.1498448848724,8,versionC_stim.csv,JOL_H_VersionD.csv,"Highlight vs normal D","Highlight vs normal",HIDE,SCARE,BUFFER1,Buffer,4,5,JOL_H,User,-,"How likely are you to correctly recall the second item in the pair?|Type your response on a scale from 0-100 and then press Enter.",Study/JOL,BUFFER3,8902,,,6964,8433,,,,70,0.556
5ecc0ae50cf6970c228a6bd6,sebbzaozcu,Trevor-ex1,1,184,2020-07-17T11:19:18-07:00,10.608211994171,8,versionC_stim.csv,JOL_H_VersionD.csv,"Highlight vs normal D","Highlight vs normal",JAM,SPACE,BUFFER1,Buffer,5,4,JOL_H,User,-,"How likely are you to correctly recall the second item in the pair?|Type your response on a scale from 0-100 and then press Enter.",Study/JOL,BUFFER3,10401,,,8515,9001,,,,60,0.712
5ecc0ae50cf6970c228a6bd6,sebbzaozcu,Trevor-ex1,1,185,2020-07-17T11:19:31-07:00,12.533786058426,8,versionC_stim.csv,JOL_H_VersionD.csv,"Highlight vs normal D","Highlight vs normal",GREEN,TREES,BUFFER1,Buffer,1,3,JOL,User,-,"How likely are you to correctly recall the second item in the pair?|Type your response on a scale from 0-100 and then press Enter.",Study/JOL,BUFFER3,12295,,,11447,11781,,,,60,0.758
5ecc0ae50cf6970c228a6bd6,sebbzaozcu,Trevor-ex1,1,186,2020-07-17T11:19:37-07:00,6.51527094841,8,versionC_stim.csv,JOL_H_VersionD.csv,"Highlight vs normal D","Highlight vs normal",BUTTER,PEANUT,BUFFER1,Buffer,3,2,JOL,User,-,"How likely are you to correctly recall the second item in the pair?|Type your response on a scale from 0-100 and then press Enter.",Study/JOL,BUFFER3,6292,,,5399,5941,,,,100,0.469
5ecc0ae50cf6970c228a6bd6,sebbzaozcu,Trevor-ex1,1,187,2020-07-17T11:19:45-07:00,7.411190032959,8,versionC_stim.csv,JOL_H_VersionD.csv,"Highlight vs normal D","Highlight vs normal",PLANT,ROOT,Study1,B,13,20,JOL,User,-,"How likely are you to correctly recall the second item in the pair?|Type your response on a scale from 0-100 and then press Enter.",Study/JOL,"Study Phase2",7164,,,6431,6724,,,,70,0.556
5ecc0ae50cf6970c228a6bd6,sebbzaozcu,Trevor-ex1,1,188,2020-07-17T11:19:55-07:00,10.76086807251,8,versionC_stim.csv,JOL_H_VersionD.csv,"Highlight vs normal D","Highlight vs normal",ROUND,CIRCLE,Study1,S,65,61,JOL_H,User,-,"How likely are you to correctly recall the second item in the pair?|Type your response on a scale from 0-100 and then press Enter.",Study/JOL,"Study Phase2",10549,,,6585,10093,,,,70,0.679
5ecc0ae50cf6970c228a6bd6,sebbzaozcu,Trevor-ex1,1,189,2020-07-17T11:20:12-07:00,16.613437891006,8,versionC_stim.csv,JOL_H_VersionD.csv,"Highlight vs normal D","Highlight vs normal",BLAZE,FIRE,Study1,F,45,81,JOL_H,User,-,"How likely are you to correctly recall the second item in the pair?|Type your response on a scale from 0-100 and then press Enter.",Study/JOL,"Study Phase2",16384,,,12358,12542,,,,80,0.747
5ecc0ae50cf6970c228a6bd6,sebbzaozcu,Trevor-ex1,1,190,2020-07-17T11:20:21-07:00,8.650130033493,8,versionC_stim.csv,JOL_H_VersionD.csv,"Highlight vs normal D","Highlight vs normal",BRONZE,ARTERY,Study1,U,74,14,JOL,User,-,"How likely are you to correctly recall the second item in the pair?|Type your response on a scale from 0-100 and then press Enter.",Study/JOL,"Study Phase2",8440,,,7873,8048,,,,80,0.465
5ecc0ae50cf6970c228a6bd6,sebbzaozcu,Trevor-ex1,1,191,2020-07-17T11:20:28-07:00,7.8798799514771,8,versionC_stim.csv,JOL_H_VersionD.csv,"Highlight vs normal D","Highlight vs normal",ASSIGNMENT,DUE,Study1,S,46,60,JOL_H,User,-,"How likely are you to correctly recall the second item in the pair?|Type your response on a scale from 0-100 and then press Enter.",Study/JOL,"Study Phase2",7699,,,2344,3778,,,,100,0.487
5ecc0ae50cf6970c228a6bd6,sebbzaozcu,Trevor-ex1,1,192,2020-07-17T11:20:31-07:00,2.9697060585022,8,versionC_stim.csv,JOL_H_VersionD.csv,"Highlight vs normal D","Highlight vs normal",DOG,PAW,Study1,B,15,53,JOL_H,User,-,"How likely are you to correctly recall the second item in the pair?|Type your response on a scale from 0-100 and then press Enter.",Study/JOL,"Study Phase2",2670,,,965,1554,,,,100,1
5ecc0ae50cf6970c228a6bd6,sebbzaozcu,Trevor-ex1,1,193,2020-07-17T11:20:37-07:00,5.5585441589355,8,versionC_stim.csv,JOL_H_VersionD.csv,"Highlight vs normal D","Highlight vs normal",SIP,DRINK,Study1,F,27,79,JOL_H,User,-,"How likely are you to correctly recall the second item in the pair?|Type your response on a scale from 0-100 and then press Enter.",Study/JOL,"Study Phase2",5377,,,4027,4193,,,,80,0.481
5ecc0ae50cf6970c228a6bd6,sebbzaozcu,Trevor-ex1,1,194,2020-07-17T11:20:46-07:00,9.4040989875793,8,versionC_stim.csv,JOL_H_VersionD.csv,"Highlight vs normal D","Highlight vs normal",CHORE,WORK,Study1,F,39,12,JOL,User,-,"How likely are you to correctly recall the second item in the pair?|Type your response on a scale from 0-100 and then press Enter.",Study/JOL,"Study Phase2",8156,,,7093,7298,,,,60,0.512
5ecc0ae50cf6970c228a6bd6,sebbzaozcu,Trevor-ex1,1,195,2020-07-17T11:20:54-07:00,7.3676788806915,8,versionC_stim.csv,JOL_H_VersionD.csv,"Highlight vs normal D","Highlight vs normal",SEIZE,TAKE,Study1,F,29,86,JOL_H,User,-,"How likely are you to correctly recall the second item in the pair?|Type your response on a scale from 0-100 and then press Enter.",Study/JOL,"Study Phase2",7098,,,6142,6428,,,,80,0.639
5ecc0ae50cf6970c228a6bd6,sebbzaozcu,Trevor-ex1,1,196,2020-07-17T11:21:02-07:00,8.1261210441589,8,versionC_stim.csv,JOL_H_VersionD.csv,"Highlight vs normal D","Highlight vs normal",END,BEGIN,Study1,S,54,75,JOL_H,User,-,"How likely are you to correctly recall the second item in the pair?|Type your response on a scale from 0-100 and then press Enter.",Study/JOL,"Study Phase2",7914,,,3595,3971,,,,40,0.6
5ecc0ae50cf6970c228a6bd6,sebbzaozcu,Trevor-ex1,1,197,2020-07-17T11:21:12-07:00,10.100548028946,8,versionC_stim.csv,JOL_H_VersionD.csv,"Highlight vs normal D","Highlight vs normal",HAND,FIX,Study1,U,75,35,JOL,User,-,"How likely are you to correctly recall the second item in the pair?|Type your response on a scale from 0-100 and then press Enter.",Study/JOL,"Study Phase2",9755,,,5266,5645,,,,20,0.673
5ecc0ae50cf6970c228a6bd6,sebbzaozcu,Trevor-ex1,1,198,2020-07-17T11:21:17-07:00,5.5263578891754,8,versionC_stim.csv,JOL_H_VersionD.csv,"Highlight vs normal D","Highlight vs normal",BAD,DELINQUENT,Study1,B,6,50,JOL_H,User,-,"How likely are you to correctly recall the second item in the pair?|Type your response on a scale from 0-100 and then press Enter.",Study/JOL,"Study Phase2",5334,,,4410,4611,,,,90,1
5ecc0ae50cf6970c228a6bd6,sebbzaozcu,Trevor-ex1,1,199,2020-07-17T11:21:28-07:00,10.261057138443,8,versionC_stim.csv,JOL_H_VersionD.csv,"Highlight vs normal D","Highlight vs normal",BAR,GRILL,Study1,S,52,46,JOL,User,-,"How likely are you to correctly recall the second item in the pair?|Type your response on a scale from 0-100 and then press Enter.",Study/JOL,"Study Phase2",10060,,,6965,8180,,,,100,0.412
5ecc0ae50cf6970c228a6bd6,sebbzaozcu,Trevor-ex1,1,200,2020-07-17T11:21:35-07:00,6.9801049232483,8,versionC_stim.csv,JOL_H_VersionD.csv,"Highlight vs normal D","Highlight vs normal",COW,HERD,Study1,B,22,51,JOL_H,User,-,"How likely are you to correctly recall the second item in the pair?|Type your response on a scale from 0-100 and then press Enter.",Study/JOL,"Study Phase2",6747,,,5800,6319,,,,100,0.324
5ecc0ae50cf6970c228a6bd6,sebbzaozcu,Trevor-ex1,1,201,2020-07-17T11:21:49-07:00,14.520384073257,8,versionC_stim.csv,JOL_H_VersionD.csv,"Highlight vs normal D","Highlight vs normal",TALK,DISCUSSION,Study1,B,21,18,JOL,User,-,"How likely are you to correctly recall the second item in the pair?|Type your response on a scale from 0-100 and then press Enter.",Study/JOL,"Study Phase2",14285,,,9667,9827,,,,80,0.556
5ecc0ae50cf6970c228a6bd6,sebbzaozcu,Trevor-ex1,1,202,2020-07-17T11:21:56-07:00,6.3884019851685,8,versionC_stim.csv,JOL_H_VersionD.csv,"Highlight vs normal D","Highlight vs normal",TUCK,ALLOW,Study1,U,78,59,JOL_H,User,-,"How likely are you to correctly recall the second item in the pair?|Type your response on a scale from 0-100 and then press Enter.",Study/JOL,"Study Phase2",6176,,,2352,2726,,,,10,0.548
5ecc0ae50cf6970c228a6bd6,sebbzaozcu,Trevor-ex1,1,203,2020-07-17T11:21:59-07:00,3.5785758495331,8,versionC_stim.csv,JOL_H_VersionD.csv,"Highlight vs normal D","Highlight vs normal",BELT,SOON,Study1,U,70,76,JOL_H,User,-,"How likely are you to correctly recall the second item in the pair?|Type your response on a scale from 0-100 and then press Enter.",Study/JOL,"Study Phase2",3398,,,2395,2604,,,,90,1
5ecc0ae50cf6970c228a6bd6,sebbzaozcu,Trevor-ex1,1,204,2020-07-17T11:22:11-07:00,11.802795171738,8,versionC_stim.csv,JOL_H_VersionD.csv,"Highlight vs normal D","Highlight vs normal",OUT,WAY,Study1,B,16,21,JOL,User,-,"How likely are you to correctly recall the second item in the pair?|Type your response on a scale from 0-100 and then press Enter.",Study/JOL,"Study Phase2",11580,,,7208,7514,,,,80,0.466
5ecc0ae50cf6970c228a6bd6,sebbzaozcu,Trevor-ex1,1,205,2020-07-17T11:22:15-07:00,4.0135369300842,8,versionC_stim.csv,JOL_H_VersionD.csv,"Highlight vs normal D","Highlight vs normal",LION,ART,Study1,U,79,41,JOL,User,-,"How likely are you to correctly recall the second item in the pair?|Type your response on a scale from 0-100 and then press Enter.",Study/JOL,"Study Phase2",3780,,,2793,3311,,,,100,1
5ecc0ae50cf6970c228a6bd6,sebbzaozcu,Trevor-ex1,1,206,2020-07-17T11:22:24-07:00,9.3769159317017,8,versionC_stim.csv,JOL_H_VersionD.csv,"Highlight vs normal D","Highlight vs normal",ACCIDENT,STRONG,Study1,U,80,36,JOL,User,-,"How likely are you to correctly recall the second item in the pair?|Type your response on a scale from 0-100 and then press Enter.",Study/JOL,"Study Phase2",9191,,,8435,8740,,,,70,0.326
5ecc0ae50cf6970c228a6bd6,sebbzaozcu,Trevor-ex1,1,207,2020-07-17T11:22:28-07:00,3.1631650924683,8,versionC_stim.csv,JOL_H_VersionD.csv,"Highlight vs normal D","Highlight vs normal",DEFINITION,MEANING,Study1,S,62,54,JOL_H,User,-,"How likely are you to correctly recall the second item in the pair?|Type your response on a scale from 0-100 and then press Enter.",Study/JOL,"Study Phase2",2898,,,1931,2465,,,,100,1
5ecc0ae50cf6970c228a6bd6,sebbzaozcu,Trevor-ex1,1,208,2020-07-17T11:22:34-07:00,6.5920259952545,8,versionC_stim.csv,JOL_H_VersionD.csv,"Highlight vs normal D","Highlight vs normal",WATER,BRIDGE,Study1,B,18,38,JOL,User,-,"How likely are you to correctly recall the second item in the pair?|Type your response on a scale from 0-100 and then press Enter.",Study/JOL,"Study Phase2",6360,,,5441,5994,,,,100,0.344
5ecc0ae50cf6970c228a6bd6,sebbzaozcu,Trevor-ex1,1,209,2020-07-17T11:22:40-07:00,6.2689008712769,8,versionC_stim.csv,JOL_H_VersionD.csv,"Highlight vs normal D","Highlight vs normal",MONEY,WAGE,Study1,B,8,19,JOL,User,-,"How likely are you to correctly recall the second item in the pair?|Type your response on a scale from 0-100 and then press Enter.",Study/JOL,"Study Phase2",6044,,,5132,5656,,,,100,0.387
5ecc0ae50cf6970c228a6bd6,sebbzaozcu,Trevor-ex1,1,210,2020-07-17T11:22:48-07:00,7.4232749938965,8,versionC_stim.csv,JOL_H_VersionD.csv,"Highlight vs normal D","Highlight vs normal",SICK,HIDE,Study1,U,84,26,JOL,User,-,"How likely are you to correctly recall the second item in the pair?|Type your response on a scale from 0-100 and then press Enter.",Study/JOL,"Study Phase2",7105,,,6183,6568,,,,30,0.583
5ecc0ae50cf6970c228a6bd6,sebbzaozcu,Trevor-ex1,1,211,2020-07-17T11:22:55-07:00,7.0733630657196,8,versionC_stim.csv,JOL_H_VersionD.csv,"Highlight vs normal D","Highlight vs normal",STING,HORNET,Study1,B,11,67,JOL_H,User,-,"How likely are you to correctly recall the second item in the pair?|Type your response on a scale from 0-100 and then press Enter.",Study/JOL,"Study Phase2",6865,,,5700,6306,,,,100,0.286
5ecc0ae50cf6970c228a6bd6,sebbzaozcu,Trevor-ex1,1,212,2020-07-17T11:22:57-07:00,2.4634931087494,8,versionC_stim.csv,JOL_H_VersionD.csv,"Highlight vs normal D","Highlight vs normal",TOILET,BATHROOM,Study1,S,58,37,JOL,User,-,"How likely are you to correctly recall the second item in the pair?|Type your response on a scale from 0-100 and then press Enter.",Study/JOL,"Study Phase2",2233,,,1289,1863,,,,100,1
5ecc0ae50cf6970c228a6bd6,sebbzaozcu,Trevor-ex1,1,213,2020-07-17T11:23:03-07:00,5.6707339286804,8,versionC_stim.csv,JOL_H_VersionD.csv,"Highlight vs normal D","Highlight vs normal",SITE,LOCATION,Study1,S,48,83,JOL_H,User,-,"How likely are you to correctly recall the second item in the pair?|Type your response on a scale from 0-100 and then press Enter.",Study/JOL,"Study Phase2",5454,,,4234,4925,,,,100,0.429
5ecc0ae50cf6970c228a6bd6,sebbzaozcu,Trevor-ex1,1,214,2020-07-17T11:23:13-07:00,9.5136740207672,8,versionC_stim.csv,JOL_H_VersionD.csv,"Highlight vs normal D","Highlight vs normal",STENCH,SMELL,Study1,F,42,45,JOL,User,-,"How likely are you to correctly recall the second item in the pair?|Type your response on a scale from 0-100 and then press Enter.",Study/JOL,"Study Phase2",9321,,,6393,8776,,,,90,0.447
5ecc0ae50cf6970c228a6bd6,sebbzaozcu,Trevor-ex1,1,215,2020-07-17T11:23:23-07:00,10.161151885986,8,versionC_stim.csv,JOL_H_VersionD.csv,"Highlight vs normal D","Highlight vs normal",ENOUGH,FULL,Study1,F,26,82,JOL_H,User,-,"How likely are you to correctly recall the second item in the pair?|Type your response on a scale from 0-100 and then press Enter.",Study/JOL,"Study Phase2",9852,,,8376,9329,,,,85,0.5
5ecc0ae50cf6970c228a6bd6,sebbzaozcu,Trevor-ex1,1,216,2020-07-17T11:23:41-07:00,17.842714071274,8,versionC_stim.csv,JOL_H_VersionD.csv,"Highlight vs normal D","Highlight vs normal",ADD,VALLEY,Study1,U,82,69,JOL_H,User,-,"How likely are you to correctly recall the second item in the pair?|Type your response on a scale from 0-100 and then press Enter.",Study/JOL,"Study Phase2",17604,,,15698,16260,,,,10,0.352
5ecc0ae50cf6970c228a6bd6,sebbzaozcu,Trevor-ex1,1,217,2020-07-17T11:23:46-07:00,5.8290269374847,8,versionC_stim.csv,JOL_H_VersionD.csv,"Highlight vs normal D","Highlight vs normal",FANTASTIC,GREAT,Study1,F,35,30,JOL,User,-,"How likely are you to correctly recall the second item in the pair?|Type your response on a scale from 0-100 and then press Enter.",Study/JOL,"Study Phase2",5606,,,3657,4375,,,,60,1
5ecc0ae50cf6970c228a6bd6,sebbzaozcu,Trevor-ex1,1,218,2020-07-17T11:23:56-07:00,9.6087779998779,8,versionC_stim.csv,JOL_H_VersionD.csv,"Highlight vs normal D","Highlight vs normal",BUSINESS,DEATH,Study1,U,72,72,JOL_H,User,-,"How likely are you to correctly recall the second item in the pair?|Type your response on a scale from 0-100 and then press Enter.",Study/JOL,"Study Phase2",9405,,,8331,8660,,,,50,0.404
5ecc0ae50cf6970c228a6bd6,sebbzaozcu,Trevor-ex1,1,219,2020-07-17T11:24:01-07:00,4.6603960990906,8,versionC_stim.csv,JOL_H_VersionD.csv,"Highlight vs normal D","Highlight vs normal",WASP,BUG,Study1,F,32,39,JOL,User,-,"How likely are you to correctly recall the second item in the pair?|Type your response on a scale from 0-100 and then press Enter.",Study/JOL,"Study Phase2",4443,,,3643,4160,,,,100,0.522
5ecc0ae50cf6970c228a6bd6,sebbzaozcu,Trevor-ex1,1,220,2020-07-17T11:24:04-07:00,2.9264490604401,8,versionC_stim.csv,JOL_H_VersionD.csv,"Highlight vs normal D","Highlight vs normal",FAMINE,HUNGER,Study1,F,40,73,JOL_H,User,-,"How likely are you to correctly recall the second item in the pair?|Type your response on a scale from 0-100 and then press Enter.",Study/JOL,"Study Phase2",2699,,,1432,1950,,,,100,1
5ecc0ae50cf6970c228a6bd6,sebbzaozcu,Trevor-ex1,1,221,2020-07-17T11:24:13-07:00,9.5512850284576,8,versionC_stim.csv,JOL_H_VersionD.csv,"Highlight vs normal D","Highlight vs normal",CLEAN,HYGIENE,Study1,B,17,65,JOL_H,User,-,"How likely are you to correctly recall the second item in the pair?|Type your response on a scale from 0-100 and then press Enter.",Study/JOL,"Study Phase2",9335,,,8321,8938,,,,100,0.17
5ecc0ae50cf6970c228a6bd6,sebbzaozcu,Trevor-ex1,1,222,2020-07-17T11:24:15-07:00,2.3081748485565,8,versionC_stim.csv,JOL_H_VersionD.csv,"Highlight vs normal D","Highlight vs normal",ATTORNEY,LAW,Study1,F,34,48,JOL_H,User,-,"How likely are you to correctly recall the second item in the pair?|Type your response on a scale from 0-100 and then press Enter.",Study/JOL,"Study Phase2",2057,,,1043,1625,,,,100,1
5ecc0ae50cf6970c228a6bd6,sebbzaozcu,Trevor-ex1,1,223,2020-07-17T11:24:25-07:00,9.2022249698639,8,versionC_stim.csv,JOL_H_VersionD.csv,"Highlight vs normal D","Highlight vs normal",COLD,BITTER,Study1,B,12,58,JOL_H,User,-,"How likely are you to correctly recall the second item in the pair?|Type your response on a scale from 0-100 and then press Enter.",Study/JOL,"Study Phase2",8987,,,7785,8263,,,,75,0.511
5ecc0ae50cf6970c228a6bd6,sebbzaozcu,Trevor-ex1,1,224,2020-07-17T11:24:30-07:00,4.9990470409393,8,versionC_stim.csv,JOL_H_VersionD.csv,"Highlight vs normal D","Highlight vs normal",JURY,TRIAL,Study1,S,50,55,JOL_H,User,-,"How likely are you to correctly recall the second item in the pair?|Type your response on a scale from 0-100 and then press Enter.",Study/JOL,"Study Phase2",4773,,,4000,4518,,,,100,0.417
5ecc0ae50cf6970c228a6bd6,sebbzaozcu,Trevor-ex1,1,225,2020-07-17T11:24:32-07:00,2.2071270942688,8,versionC_stim.csv,JOL_H_VersionD.csv,"Highlight vs normal D","Highlight vs normal",HAMMER,CHISEL,Study1,B,9,23,JOL,User,-,"How likely are you to correctly recall the second item in the pair?|Type your response on a scale from 0-100 and then press Enter.",Study/JOL,"Study Phase2",1983,,,878,1494,,,,100,1
5ecc0ae50cf6970c228a6bd6,sebbzaozcu,Trevor-ex1,1,226,2020-07-17T11:24:44-07:00,12.179569959641,8,versionC_stim.csv,JOL_H_VersionD.csv,"Highlight vs normal D","Highlight vs normal",WOULD,CASH,Study1,U,83,10,JOL,User,-,"How likely are you to correctly recall the second item in the pair?|Type your response on a scale from 0-100 and then press Enter.",Study/JOL,"Study Phase2",11961,,,8862,10767,,,,0,0.483
5ecc0ae50cf6970c228a6bd6,sebbzaozcu,Trevor-ex1,1,227,2020-07-17T11:24:54-07:00,9.9127240180969,8,versionC_stim.csv,JOL_H_VersionD.csv,"Highlight vs normal D","Highlight vs normal",LIVER,KIDNEY,Study1,S,53,70,JOL_H,User,-,"How likely are you to correctly recall the second item in the pair?|Type your response on a scale from 0-100 and then press Enter.",Study/JOL,"Study Phase2",9704,,,6125,8963,,,,100,0.469
5ecc0ae50cf6970c228a6bd6,sebbzaozcu,Trevor-ex1,1,228,2020-07-17T11:24:58-07:00,3.7812819480896,8,versionC_stim.csv,JOL_H_VersionD.csv,"Highlight vs normal D","Highlight vs normal",SALAD,LETTUCE,Study1,S,59,43,JOL,User,-,"How likely are you to correctly recall the second item in the pair?|Type your response on a scale from 0-100 and then press Enter.",Study/JOL,"Study Phase2",3538,,,1507,2148,,,,100,1
5ecc0ae50cf6970c228a6bd6,sebbzaozcu,Trevor-ex1,1,229,2020-07-17T11:25:08-07:00,10.440037965775,8,versionC_stim.csv,JOL_H_VersionD.csv,"Highlight vs normal D","Highlight vs normal",HUNGRY,PARK,Study1,U,68,24,JOL,User,-,"How likely are you to correctly recall the second item in the pair?|Type your response on a scale from 0-100 and then press Enter.",Study/JOL,"Study Phase2",10197,,,7560,9527,,,,0,0.431
5ecc0ae50cf6970c228a6bd6,sebbzaozcu,Trevor-ex1,1,230,2020-07-17T11:25:12-07:00,3.5280251502991,8,versionC_stim.csv,JOL_H_VersionD.csv,"Highlight vs normal D","Highlight vs normal",CAR,HAPPY,Study1,U,77,7,JOL,User,-,"How likely are you to correctly recall the second item in the pair?|Type your response on a scale from 0-100 and then press Enter.",Study/JOL,"Study Phase2",3294,,,2512,2847,,,,50,1
5ecc0ae50cf6970c228a6bd6,sebbzaozcu,Trevor-ex1,1,231,2020-07-17T11:25:22-07:00,10.141675949097,8,versionC_stim.csv,JOL_H_VersionD.csv,"Highlight vs normal D","Highlight vs normal",PILOT,PLANE,Study1,F,44,64,JOL_H,User,-,"How likely are you to correctly recall the second item in the pair?|Type your response on a scale from 0-100 and then press Enter.",Study/JOL,"Study Phase2",9948,,,6231,6894,,,,100,0.44
5ecc0ae50cf6970c228a6bd6,sebbzaozcu,Trevor-ex1,1,232,2020-07-17T11:25:24-07:00,2.605929851532,8,versionC_stim.csv,JOL_H_VersionD.csv,"Highlight vs normal D","Highlight vs normal",CARD,CREDIT,Study1,B,23,9,JOL,User,-,"How likely are you to correctly recall the second item in the pair?|Type your response on a scale from 0-100 and then press Enter.",Study/JOL,"Study Phase2",2392,,,1302,1829,,,,100,1
5ecc0ae50cf6970c228a6bd6,sebbzaozcu,Trevor-ex1,1,233,2020-07-17T11:25:35-07:00,10.895895004272,8,versionC_stim.csv,JOL_H_VersionD.csv,"Highlight vs normal D","Highlight vs normal",ATTIRE,CLOTHES,Study1,F,43,74,JOL_H,User,-,"How likely are you to correctly recall the second item in the pair?|Type your response on a scale from 0-100 and then press Enter.",Study/JOL,"Study Phase2",10644,,,9779,10298,,,,100,0.185
5ecc0ae50cf6970c228a6bd6,sebbzaozcu,Trevor-ex1,1,234,2020-07-17T11:25:40-07:00,4.3536109924316,8,versionC_stim.csv,JOL_H_VersionD.csv,"Highlight vs normal D","Highlight vs normal",SIGHT,DEBATE,Study1,U,73,13,JOL,User,-,"How likely are you to correctly recall the second item in the pair?|Type your response on a scale from 0-100 and then press Enter.",Study/JOL,"Study Phase2",3660,,,990,3157,,,,0,1
5ecc0ae50cf6970c228a6bd6,sebbzaozcu,Trevor-ex1,1,235,2020-07-17T11:25:52-07:00,11.932118177414,8,versionC_stim.csv,JOL_H_VersionD.csv,"Highlight vs normal D","Highlight vs normal",NEWS,EDITOR,Study1,B,10,34,JOL,User,-,"How likely are you to correctly recall the second item in the pair?|Type your response on a scale from 0-100 and then press Enter.",Study/JOL,"Study Phase2",11742,,,7702,7933,,,,80,0.356
5ecc0ae50cf6970c228a6bd6,sebbzaozcu,Trevor-ex1,1,236,2020-07-17T11:25:56-07:00,4.054771900177,8,versionC_stim.csv,JOL_H_VersionD.csv,"Highlight vs normal D","Highlight vs normal",BEE,HONEY,Study1,S,63,27,JOL,User,-,"How likely are you to correctly recall the second item in the pair?|Type your response on a scale from 0-100 and then press Enter.",Study/JOL,"Study Phase2",3851,,,1090,1640,,,,100,1
5ecc0ae50cf6970c228a6bd6,sebbzaozcu,Trevor-ex1,1,237,2020-07-17T11:26:12-07:00,16.253477096558,8,versionC_stim.csv,JOL_H_VersionD.csv,"Highlight vs normal D","Highlight vs normal",POSITION,MACHINE,Study1,U,76,85,JOL_H,User,-,"How likely are you to correctly recall the second item in the pair?|Type your response on a scale from 0-100 and then press Enter.",Study/JOL,"Study Phase2",16077,,,8946,15370,,,,60,0.519
5ecc0ae50cf6970c228a6bd6,sebbzaozcu,Trevor-ex1,1,238,2020-07-17T11:26:18-07:00,5.7414028644562,8,versionC_stim.csv,JOL_H_VersionD.csv,"Highlight vs normal D","Highlight vs normal",WOMAN,LIFT,Study1,U,69,25,JOL,User,-,"How likely are you to correctly recall the second item in the pair?|Type your response on a scale from 0-100 and then press Enter.",Study/JOL,"Study Phase2",4487,,,2676,3514,,,,30,1
5ecc0ae50cf6970c228a6bd6,sebbzaozcu,Trevor-ex1,1,239,2020-07-17T11:26:24-07:00,6.1273009777069,8,versionC_stim.csv,JOL_H_VersionD.csv,"Highlight vs normal D","Highlight vs normal",WAR,REVOLUTION,Study1,B,20,28,JOL,User,-,"How likely are you to correctly recall the second item in the pair?|Type your response on a scale from 0-100 and then press Enter.",Study/JOL,"Study Phase2",5895,,,4854,5430,,,,100,0.233
5ecc0ae50cf6970c228a6bd6,sebbzaozcu,Trevor-ex1,1,240,2020-07-17T11:26:30-07:00,6.5781970024109,8,versionC_stim.csv,JOL_H_VersionD.csv,"Highlight vs normal D","Highlight vs normal",STOMACH,DIGESTION,Study1,B,7,66,JOL_H,User,-,"How likely are you to correctly recall the second item in the pair?|Type your response on a scale from 0-100 and then press Enter.",Study/JOL,"Study Phase2",6341,,,5356,5965,,,,100,0.375
5ecc0ae50cf6970c228a6bd6,sebbzaozcu,Trevor-ex1,1,241,2020-07-17T11:26:41-07:00,10.199856996536,8,versionC_stim.csv,JOL_H_VersionD.csv,"Highlight vs normal D","Highlight vs normal",WIND,BLOW,Study1,S,55,15,JOL,User,-,"How likely are you to correctly recall the second item in the pair?|Type your response on a scale from 0-100 and then press Enter.",Study/JOL,"Study Phase2",9988,,,6982,9262,,,,75,0.7
5ecc0ae50cf6970c228a6bd6,sebbzaozcu,Trevor-ex1,1,242,2020-07-17T11:26:43-07:00,2.9021589756012,8,versionC_stim.csv,JOL_H_VersionD.csv,"Highlight vs normal D","Highlight vs normal",DIVISION,MATH,Study1,F,33,33,JOL,User,-,"How likely are you to correctly recall the second item in the pair?|Type your response on a scale from 0-100 and then press Enter.",Study/JOL,"Study Phase2",2651,,,1392,1993,,,,100,1
5ecc0ae50cf6970c228a6bd6,sebbzaozcu,Trevor-ex1,1,243,2020-07-17T11:26:50-07:00,6.9028952121735,8,versionC_stim.csv,JOL_H_VersionD.csv,"Highlight vs normal D","Highlight vs normal",CHEESE,WINE,Study1,S,57,56,JOL_H,User,-,"How likely are you to correctly recall the second item in the pair?|Type your response on a scale from 0-100 and then press Enter.",Study/JOL,"Study Phase2",6722,,,5758,6319,,,,100,0.206
5ecc0ae50cf6970c228a6bd6,sebbzaozcu,Trevor-ex1,1,244,2020-07-17T11:26:53-07:00,2.1902577877045,8,versionC_stim.csv,JOL_H_VersionD.csv,"Highlight vs normal D","Highlight vs normal",WASTE,DUMP,Study1,S,49,78,JOL_H,User,-,"How likely are you to correctly recall the second item in the pair?|Type your response on a scale from 0-100 and then press Enter.",Study/JOL,"Study Phase2",1974,,,979,1492,,,,100,1
5ecc0ae50cf6970c228a6bd6,sebbzaozcu,Trevor-ex1,1,245,2020-07-17T11:27:00-07:00,7.5033121109009,8,versionC_stim.csv,JOL_H_VersionD.csv,"Highlight vs normal D","Highlight vs normal",FLOWER,ORCHID,Study1,B,24,22,JOL,User,-,"How likely are you to correctly recall the second item in the pair?|Type your response on a scale from 0-100 and then press Enter.",Study/JOL,"Study Phase2",7290,,,6316,6842,,,,30,0.27
5ecc0ae50cf6970c228a6bd6,sebbzaozcu,Trevor-ex1,1,246,2020-07-17T11:27:19-07:00,18.470842123032,8,versionC_stim.csv,JOL_H_VersionD.csv,"Highlight vs normal D","Highlight vs normal",FUTURE,PAST,Study1,S,61,47,JOL_H,User,-,"How likely are you to correctly recall the second item in the pair?|Type your response on a scale from 0-100 and then press Enter.",Study/JOL,"Study Phase2",18231,,,3040,3644,,,,20,0.315
5ecc0ae50cf6970c228a6bd6,sebbzaozcu,Trevor-ex1,1,247,2020-07-17T11:27:23-07:00,4.5627808570862,8,versionC_stim.csv,JOL_H_VersionD.csv,"Highlight vs normal D","Highlight vs normal",SODA,POP,Study1,S,56,62,JOL_H,User,-,"How likely are you to correctly recall the second item in the pair?|Type your response on a scale from 0-100 and then press Enter.",Study/JOL,"Study Phase2",4321,,,2062,3346,,,,100,1
5ecc0ae50cf6970c228a6bd6,sebbzaozcu,Trevor-ex1,1,248,2020-07-17T11:27:33-07:00,9.3848950862885,8,versionC_stim.csv,JOL_H_VersionD.csv,"Highlight vs normal D","Highlight vs normal",WORD,SENTENCE,Study1,F,31,8,JOL,User,-,"How likely are you to correctly recall the second item in the pair?|Type your response on a scale from 0-100 and then press Enter.",Study/JOL,"Study Phase2",9167,,,8324,8690,,,,50,0.413
5ecc0ae50cf6970c228a6bd6,sebbzaozcu,Trevor-ex1,1,249,2020-07-17T11:27:36-07:00,3.8924119472504,8,versionC_stim.csv,JOL_H_VersionD.csv,"Highlight vs normal D","Highlight vs normal",FLOOR,DISCOVER,Study1,U,71,71,JOL_H,User,-,"How likely are you to correctly recall the second item in the pair?|Type your response on a scale from 0-100 and then press Enter.",Study/JOL,"Study Phase2",3599,,,2674,3144,,,,20,1
5ecc0ae50cf6970c228a6bd6,sebbzaozcu,Trevor-ex1,1,250,2020-07-17T11:27:44-07:00,8.0936100482941,8,versionC_stim.csv,JOL_H_VersionD.csv,"Highlight vs normal D","Highlight vs normal",CLUTTER,PUSHER,Study1,U,66,52,JOL_H,User,-,"How likely are you to correctly recall the second item in the pair?|Type your response on a scale from 0-100 and then press Enter.",Study/JOL,"Study Phase2",7891,,,6687,7365,,,,20,0.3
5ecc0ae50cf6970c228a6bd6,sebbzaozcu,Trevor-ex1,1,251,2020-07-17T11:27:49-07:00,4.1596200466156,8,versionC_stim.csv,JOL_H_VersionD.csv,"Highlight vs normal D","Highlight vs normal",AMOUNT,NUMBER,Study1,S,47,44,JOL,User,-,"How likely are you to correctly recall the second item in the pair?|Type your response on a scale from 0-100 and then press Enter.",Study/JOL,"Study Phase2",3926,,,2991,3429,,,,10,1
5ecc0ae50cf6970c228a6bd6,sebbzaozcu,Trevor-ex1,1,252,2020-07-17T11:27:58-07:00,9.7636148929596,8,versionC_stim.csv,JOL_H_VersionD.csv,"Highlight vs normal D","Highlight vs normal",RIDDLE,SUGAR,Study1,U,81,17,JOL,User,-,"How likely are you to correctly recall the second item in the pair?|Type your response on a scale from 0-100 and then press Enter.",Study/JOL,"Study Phase2",9513,,,8874,9057,,,,90,0.229
5ecc0ae50cf6970c228a6bd6,sebbzaozcu,Trevor-ex1,1,253,2020-07-17T11:28:04-07:00,5.8104650974274,8,versionC_stim.csv,JOL_H_VersionD.csv,"Highlight vs normal D","Highlight vs normal",FOOT,SHOE,Study1,S,60,42,JOL,User,-,"How likely are you to correctly recall the second item in the pair?|Type your response on a scale from 0-100 and then press Enter.",Study/JOL,"Study Phase2",5558,,,4860,5160,,,,60,0.464
5ecc0ae50cf6970c228a6bd6,sebbzaozcu,Trevor-ex1,1,254,2020-07-17T11:28:18-07:00,13.872887849808,8,versionC_stim.csv,JOL_H_VersionD.csv,"Highlight vs normal D","Highlight vs normal",ROCK,GEOLOGY,Study1,B,19,80,JOL_H,User,-,"How likely are you to correctly recall the second item in the pair?|Type your response on a scale from 0-100 and then press Enter.",Study/JOL,"Study Phase2",13627,,,8525,13051,,,,65,0.551
5ecc0ae50cf6970c228a6bd6,sebbzaozcu,Trevor-ex1,1,255,2020-07-17T11:28:24-07:00,5.6431720256805,8,versionC_stim.csv,JOL_H_VersionD.csv,"Highlight vs normal D","Highlight vs normal",DESIGN,ARCHITECTURE,Study1,S,51,84,JOL_H,User,-,"How likely are you to correctly recall the second item in the pair?|Type your response on a scale from 0-100 and then press Enter.",Study/JOL,"Study Phase2",5425,,,1698,4802,,,,80,1
5ecc0ae50cf6970c228a6bd6,sebbzaozcu,Trevor-ex1,1,256,2020-07-17T11:28:35-07:00,10.773004055023,8,versionC_stim.csv,JOL_H_VersionD.csv,"Highlight vs normal D","Highlight vs normal",SACKING,DIETARY,Study1,U,67,68,JOL_H,User,-,"How likely are you to correctly recall the second item in the pair?|Type your response on a scale from 0-100 and then press Enter.",Study/JOL,"Study Phase2",10527,,,9363,9897,,,,20,0.34
5ecc0ae50cf6970c228a6bd6,sebbzaozcu,Trevor-ex1,1,257,2020-07-17T11:28:37-07:00,2.5823700428009,8,versionC_stim.csv,JOL_H_VersionD.csv,"Highlight vs normal D","Highlight vs normal",GROWTH,HEIGHT,Study1,F,30,57,JOL_H,User,-,"How likely are you to correctly recall the second item in the pair?|Type your response on a scale from 0-100 and then press Enter.",Study/JOL,"Study Phase2",2337,,,1244,1864,,,,100,1
5ecc0ae50cf6970c228a6bd6,sebbzaozcu,Trevor-ex1,1,258,2020-07-17T11:28:45-07:00,8.347913980484,8,versionC_stim.csv,JOL_H_VersionD.csv,"Highlight vs normal D","Highlight vs normal",BIRD,SWAN,Study1,B,14,29,JOL,User,-,"How likely are you to correctly recall the second item in the pair?|Type your response on a scale from 0-100 and then press Enter.",Study/JOL,"Study Phase2",8133,,,6980,7585,,,,100,0.268
5ecc0ae50cf6970c228a6bd6,sebbzaozcu,Trevor-ex1,1,259,2020-07-17T11:28:48-07:00,2.570955991745,8,versionC_stim.csv,JOL_H_VersionD.csv,"Highlight vs normal D","Highlight vs normal",CHILD,BABY,Study1,S,64,49,JOL_H,User,-,"How likely are you to correctly recall the second item in the pair?|Type your response on a scale from 0-100 and then press Enter.",Study/JOL,"Study Phase2",2345,,,1377,2001,,,,100,1
5ecc0ae50cf6970c228a6bd6,sebbzaozcu,Trevor-ex1,1,260,2020-07-17T11:28:59-07:00,11.285315036774,8,versionC_stim.csv,JOL_H_VersionD.csv,"Highlight vs normal D","Highlight vs normal",DROWSY,SLEEP,Study1,F,41,40,JOL,User,-,"How likely are you to correctly recall the second item in the pair?|Type your response on a scale from 0-100 and then press Enter.",Study/JOL,"Study Phase2",11091,,,7005,10596,,,,85,0.518
5ecc0ae50cf6970c228a6bd6,sebbzaozcu,Trevor-ex1,1,261,2020-07-17T11:29:03-07:00,3.3063058853149,8,versionC_stim.csv,JOL_H_VersionD.csv,"Highlight vs normal D","Highlight vs normal",RACKET,BALL,Study1,F,38,31,JOL,User,-,"How likely are you to correctly recall the second item in the pair?|Type your response on a scale from 0-100 and then press Enter.",Study/JOL,"Study Phase2",3106,,,1633,2328,,,,100,1
5ecc0ae50cf6970c228a6bd6,sebbzaozcu,Trevor-ex1,1,262,2020-07-17T11:29:20-07:00,17.435806035995,8,versionC_stim.csv,JOL_H_VersionD.csv,"Highlight vs normal D","Highlight vs normal",LATCH,KEY,Study1,F,36,32,JOL,User,-,"How likely are you to correctly recall the second item in the pair?|Type your response on a scale from 0-100 and then press Enter.",Study/JOL,"Study Phase2",17209,,,14722,16720,,,,80,0.628
5ecc0ae50cf6970c228a6bd6,sebbzaozcu,Trevor-ex1,1,263,2020-07-17T11:29:23-07:00,3.3866550922394,8,versionC_stim.csv,JOL_H_VersionD.csv,"Highlight vs normal D","Highlight vs normal",VASE,KING,Study1,U,85,16,JOL,User,-,"How likely are you to correctly recall the second item in the pair?|Type your response on a scale from 0-100 and then press Enter.",Study/JOL,"Study Phase2",3147,,,1949,1949,,,,0,1
5ecc0ae50cf6970c228a6bd6,sebbzaozcu,Trevor-ex1,1,264,2020-07-17T11:29:32-07:00,8.9007480144501,8,versionC_stim.csv,JOL_H_VersionD.csv,"Highlight vs normal D","Highlight vs normal",CAVE,DARK,Study1,F,28,63,JOL_H,User,-,"How likely are you to correctly recall the second item in the pair?|Type your response on a scale from 0-100 and then press Enter.",Study/JOL,"Study Phase2",8697,,,7306,8202,,,,75,0.409
5ecc0ae50cf6970c228a6bd6,sebbzaozcu,Trevor-ex1,1,265,2020-07-17T11:29:35-07:00,2.6795248985291,8,versionC_stim.csv,JOL_H_VersionD.csv,"Highlight vs normal D","Highlight vs normal",CHILI,HOT,Study1,F,37,77,JOL_H,User,-,"How likely are you to correctly recall the second item in the pair?|Type your response on a scale from 0-100 and then press Enter.",Study/JOL,"Study Phase2",2448,,,1391,1983,,,,100,1
5ecc0ae50cf6970c228a6bd6,sebbzaozcu,Trevor-ex1,1,266,2020-07-17T11:29:47-07:00,11.915401935577,8,versionC_stim.csv,JOL_H_VersionD.csv,"Highlight vs normal D","Highlight vs normal",FISH,TUNA,Study1,B,25,11,JOL,User,-,"How likely are you to correctly recall the second item in the pair?|Type your response on a scale from 0-100 and then press Enter.",Study/JOL,"Study Phase2",11686,,,7430,11341,,,,90,0.424
5ecc0ae50cf6970c228a6bd6,sebbzaozcu,Trevor-ex1,1,267,2020-07-17T11:29:53-07:00,6.020133972168,8,versionC_stim.csv,JOL_H_VersionD.csv,"Highlight vs normal D","Highlight vs normal",POLICE,SHERRIF,BUFFER2,Buffer,87,90,JOL,User,-,"How likely are you to correctly recall the second item in the pair?|Type your response on a scale from 0-100 and then press Enter.",Study/JOL,BUFFER4,5799,,,1910,5062,,,,80,1
5ecc0ae50cf6970c228a6bd6,sebbzaozcu,Trevor-ex1,1,268,2020-07-17T11:30:07-07:00,14.091623067856,8,versionC_stim.csv,JOL_H_VersionD.csv,"Highlight vs normal D","Highlight vs normal",STUFF,THING,BUFFER2,Buffer,90,87,JOL_H,User,-,"How likely are you to correctly recall the second item in the pair?|Type your response on a scale from 0-100 and then press Enter.",Study/JOL,BUFFER4,13863,,,10850,13581,,,,80,0.414
5ecc0ae50cf6970c228a6bd6,sebbzaozcu,Trevor-ex1,1,269,2020-07-17T11:30:12-07:00,4.807070016861,8,versionC_stim.csv,JOL_H_VersionD.csv,"Highlight vs normal D","Highlight vs normal",GOOSE,GEESE,BUFFER2,Buffer,86,89,JOL,User,-,"How likely are you to correctly recall the second item in the pair?|Type your response on a scale from 0-100 and then press Enter.",Study/JOL,BUFFER4,3602,,,2844,3187,,,,100,1
5ecc0ae50cf6970c228a6bd6,sebbzaozcu,Trevor-ex1,1,270,2020-07-17T11:30:15-07:00,3.6306340694427,8,versionC_stim.csv,JOL_H_VersionD.csv,"Highlight vs normal D","Highlight vs normal",CHOCOLATE,MALT,BUFFER2,Buffer,88,91,JOL,User,-,"How likely are you to correctly recall the second item in the pair?|Type your response on a scale from 0-100 and then press Enter.",Study/JOL,BUFFER4,3404,,,2749,2893,,,,80,1
5ecc0ae50cf6970c228a6bd6,sebbzaozcu,Trevor-ex1,1,271,2020-07-17T11:30:19-07:00,3.2842769622803,8,versionC_stim.csv,JOL_H_VersionD.csv,"Highlight vs normal D","Highlight vs normal",SPACE,MOON,BUFFER2,Buffer,89,88,JOL_H,User,-,"How likely are you to correctly recall the second item in the pair?|Type your response on a scale from 0-100 and then press Enter.",Study/JOL,BUFFER4,3057,,,1683,2505,,,,90,1
5ecc0ae50cf6970c228a6bd6,sebbzaozcu,Trevor-ex1,1,272,2020-07-17T11:30:21-07:00,2.5983500480652,8,versionC_stim.csv,JOL_H_VersionD.csv,"Highlight vs normal D","Highlight vs normal",,,,,,0,Instruct,User,-,"You have completed this section. Please press Enter.",Filler_Instruction,Instruct5,2317,,,-1,-1,,,,,1
