Username,ID,ExperimentName,Session,Trial,Date,TimeDif,"Condition Number","Stimuli File","Order File","Condition Description","Condition Notes",Stimuli*Cue,Stimuli*Answer,Stimuli*Shuffle,"Stimuli*Stimuli Notes",Stimuli*Value,Procedure*Item,"Procedure*Trial Type","Procedure*Max Time","Procedure*Min Time",Procedure*Text,"Procedure*Procedure Notes",Procedure*Shuffle,Response*RT,Response*Response,Response*Accuracy,Response*RTfirst,Response*RTlast,Response*strictAcc,Response*lenientAcc,Response*focus,Response*JOL,Response*Focus
5ead5e32f32e3b3dd328e5ef,7chamt4gwj,Trevor-ex1,1,1,2020-07-17T09:43:44-07:00,14.978772878647,3,versionC_stim.csv,JOL_SIZE_VersionC.csv,"Large vs small C","Large vs small",,,,,,0,Instruct,-,5,"In this section, you will be presented with a series of word pairs.",Initial_Instruct,Instruct1,13667,,,-1,-1,,,,,1
5ead5e32f32e3b3dd328e5ef,7chamt4gwj,Trevor-ex1,1,2,2020-07-17T09:43:56-07:00,11.924401044846,3,versionC_stim.csv,JOL_SIZE_VersionC.csv,"Large vs small C","Large vs small",,,,,,0,Instruct,-,10,"As you study, you will be asked to rate your ability to remember the second item in the pair if you were only shown the first at test. You will make these ratings using a 0 to 100 Scale.",,Instruct13,10777,,,-1,-1,,,,,1
5ead5e32f32e3b3dd328e5ef,7chamt4gwj,Trevor-ex1,1,3,2020-07-17T09:44:08-07:00,12.201030015945,3,versionC_stim.csv,JOL_SIZE_VersionC.csv,"Large vs small C","Large vs small",,,,,,0,Instruct,-,10,"For example, if you are given the pair CAT - DOG, a rating of 0 indicates that you would not remember DOG at test, while a rating of 100 indicates full certainty that you would remember the word DOG at test.",,Instruct14,11669,,,-1,-1,,,,,1
5ead5e32f32e3b3dd328e5ef,7chamt4gwj,Trevor-ex1,1,4,2020-07-17T09:44:21-07:00,12.743857860565,3,versionC_stim.csv,JOL_SIZE_VersionC.csv,"Large vs small C","Large vs small",,,,,,0,Instruct,-,10,"When making your ratings, it is criticial that you use the full range of the scale. You will be disqualified for only giving ratings of 0 or 100! After making your rating, press Enter to advance to the next pair.",,Instruct15,12242,,,-1,-1,,,,,1
5ead5e32f32e3b3dd328e5ef,7chamt4gwj,Trevor-ex1,1,5,2020-07-17T09:44:23-07:00,2.2411072254181,3,versionC_stim.csv,JOL_SIZE_VersionC.csv,"Large vs small C","Large vs small",,,,,,0,Instruct,User,-,"You will now begin the study. Press Enter when you are ready to begin.",,Instruct16,1735,,,-1,-1,,,,,1
5ead5e32f32e3b3dd328e5ef,7chamt4gwj,Trevor-ex1,1,6,2020-07-17T09:44:43-07:00,20.053443908691,3,versionC_stim.csv,JOL_SIZE_VersionC.csv,"Large vs small C","Large vs small",BUTTER,PEANUT,BUFFER1,Buffer,3,3,JOL_Small,User,-,"How likely are you to correctly recall the second item in the pair?|Type your response on a scale from 0-100 and then press Enter.",Study/JOL,BUFFER,19326,,,18083,18265,,,,95,1
5ead5e32f32e3b3dd328e5ef,7chamt4gwj,Trevor-ex1,1,7,2020-07-17T09:44:56-07:00,13.21547794342,3,versionC_stim.csv,JOL_SIZE_VersionC.csv,"Large vs small C","Large vs small",CATCHER,BASEBALL,BUFFER1,Buffer,2,4,JOL_Small,User,-,"How likely are you to correctly recall the second item in the pair?|Type your response on a scale from 0-100 and then press Enter.",Study/JOL,BUFFER,11009,,,7159,7309,,,,96,1
5ead5e32f32e3b3dd328e5ef,7chamt4gwj,Trevor-ex1,1,8,2020-07-17T09:45:11-07:00,14.453050136566,3,versionC_stim.csv,JOL_SIZE_VersionC.csv,"Large vs small C","Large vs small",JAM,SPACE,BUFFER1,Buffer,5,5,JOL_Large,User,-,"How likely are you to correctly recall the second item in the pair?|Type your response on a scale from 0-100 and then press Enter.",Study/JOL,BUFFER,13398,,,9535,9702,,,,94,1
5ead5e32f32e3b3dd328e5ef,7chamt4gwj,Trevor-ex1,1,9,2020-07-17T09:45:23-07:00,12.079152822495,3,versionC_stim.csv,JOL_SIZE_VersionC.csv,"Large vs small C","Large vs small",GREEN,TREES,BUFFER1,Buffer,1,2,JOL_Small,User,-,"How likely are you to correctly recall the second item in the pair?|Type your response on a scale from 0-100 and then press Enter.",Study/JOL,BUFFER,11544,,,7712,10504,,,,90,1
5ead5e32f32e3b3dd328e5ef,7chamt4gwj,Trevor-ex1,1,10,2020-07-17T09:45:29-07:00,5.8889491558075,3,versionC_stim.csv,JOL_SIZE_VersionC.csv,"Large vs small C","Large vs small",HIDE,SCARE,BUFFER1,Buffer,4,6,JOL_Large,User,-,"How likely are you to correctly recall the second item in the pair?|Type your response on a scale from 0-100 and then press Enter.",Study/JOL,BUFFER,5357,,,3779,4097,,,,100,1
5ead5e32f32e3b3dd328e5ef,7chamt4gwj,Trevor-ex1,1,11,2020-07-17T09:45:32-07:00,3.0564019680023,3,versionC_stim.csv,JOL_SIZE_VersionC.csv,"Large vs small C","Large vs small",BLAZE,FIRE,Study1,F,45,21,JOL_Large,User,-,"How likely are you to correctly recall the second item in the pair?|Type your response on a scale from 0-100 and then press Enter.",Study/JOL,"Study Phase",2554,,,897,1635,,,,100,1
5ead5e32f32e3b3dd328e5ef,7chamt4gwj,Trevor-ex1,1,12,2020-07-17T09:45:37-07:00,5.0592238903046,3,versionC_stim.csv,JOL_SIZE_VersionC.csv,"Large vs small C","Large vs small",CLUTTER,PUSHER,Study1,U,66,29,JOL_Large,User,-,"How likely are you to correctly recall the second item in the pair?|Type your response on a scale from 0-100 and then press Enter.",Study/JOL,"Study Phase",4541,,,3844,4135,,,,100,1
5ead5e32f32e3b3dd328e5ef,7chamt4gwj,Trevor-ex1,1,13,2020-07-17T09:45:46-07:00,8.7461099624634,3,versionC_stim.csv,JOL_SIZE_VersionC.csv,"Large vs small C","Large vs small",BUSINESS,DEATH,Study1,U,72,23,JOL_Large,User,-,"How likely are you to correctly recall the second item in the pair?|Type your response on a scale from 0-100 and then press Enter.",Study/JOL,"Study Phase",8231,,,6753,7061,,,,100,0.946
5ead5e32f32e3b3dd328e5ef,7chamt4gwj,Trevor-ex1,1,14,2020-07-17T09:45:51-07:00,5.5373771190643,3,versionC_stim.csv,JOL_SIZE_VersionC.csv,"Large vs small C","Large vs small",DOG,PAW,Study1,B,15,15,JOL_Large,User,-,"How likely are you to correctly recall the second item in the pair?|Type your response on a scale from 0-100 and then press Enter.",Study/JOL,"Study Phase",4854,,,3255,3381,,,,99,1
5ead5e32f32e3b3dd328e5ef,7chamt4gwj,Trevor-ex1,1,15,2020-07-17T09:46:02-07:00,10.579272985458,3,versionC_stim.csv,JOL_SIZE_VersionC.csv,"Large vs small C","Large vs small",OUT,WAY,Study1,B,16,54,JOL_Small,User,-,"How likely are you to correctly recall the second item in the pair?|Type your response on a scale from 0-100 and then press Enter.",Study/JOL,"Study Phase",8695,,,7076,7289,,,,50,1
5ead5e32f32e3b3dd328e5ef,7chamt4gwj,Trevor-ex1,1,16,2020-07-17T09:46:07-07:00,5.6268970966339,3,versionC_stim.csv,JOL_SIZE_VersionC.csv,"Large vs small C","Large vs small",COLD,BITTER,Study1,B,12,64,JOL_Small,User,-,"How likely are you to correctly recall the second item in the pair?|Type your response on a scale from 0-100 and then press Enter.",Study/JOL,"Study Phase",3609,,,2103,2298,,,,51,1
5ead5e32f32e3b3dd328e5ef,7chamt4gwj,Trevor-ex1,1,17,2020-07-17T09:46:11-07:00,3.530907869339,3,versionC_stim.csv,JOL_SIZE_VersionC.csv,"Large vs small C","Large vs small",WOULD,CASH,Study1,U,83,70,JOL_Small,User,-,"How likely are you to correctly recall the second item in the pair?|Type your response on a scale from 0-100 and then press Enter.",Study/JOL,"Study Phase",2818,,,787,1129,,,,56,1
5ead5e32f32e3b3dd328e5ef,7chamt4gwj,Trevor-ex1,1,18,2020-07-17T09:46:14-07:00,3.1413540840149,3,versionC_stim.csv,JOL_SIZE_VersionC.csv,"Large vs small C","Large vs small",FLOWER,ORCHID,Study1,B,24,68,JOL_Small,User,-,"How likely are you to correctly recall the second item in the pair?|Type your response on a scale from 0-100 and then press Enter.",Study/JOL,"Study Phase",2614,,,768,1511,,,,80,1
5ead5e32f32e3b3dd328e5ef,7chamt4gwj,Trevor-ex1,1,19,2020-07-17T09:46:18-07:00,3.5208740234375,3,versionC_stim.csv,JOL_SIZE_VersionC.csv,"Large vs small C","Large vs small",SICK,HIDE,Study1,U,84,30,JOL_Large,User,-,"How likely are you to correctly recall the second item in the pair?|Type your response on a scale from 0-100 and then press Enter.",Study/JOL,"Study Phase",2865,,,1422,1745,,,,100,1
5ead5e32f32e3b3dd328e5ef,7chamt4gwj,Trevor-ex1,1,20,2020-07-17T09:46:20-07:00,2.8969700336456,3,versionC_stim.csv,JOL_SIZE_VersionC.csv,"Large vs small C","Large vs small",WASP,BUG,Study1,F,32,14,JOL_Large,User,-,"How likely are you to correctly recall the second item in the pair?|Type your response on a scale from 0-100 and then press Enter.",Study/JOL,"Study Phase",2201,,,925,1191,,,,100,1
5ead5e32f32e3b3dd328e5ef,7chamt4gwj,Trevor-ex1,1,21,2020-07-17T09:46:23-07:00,2.4003639221191,3,versionC_stim.csv,JOL_SIZE_VersionC.csv,"Large vs small C","Large vs small",ATTIRE,CLOTHES,Study1,F,43,32,JOL_Large,User,-,"How likely are you to correctly recall the second item in the pair?|Type your response on a scale from 0-100 and then press Enter.",Study/JOL,"Study Phase",1912,,,926,1223,,,,100,1
5ead5e32f32e3b3dd328e5ef,7chamt4gwj,Trevor-ex1,1,22,2020-07-17T09:46:26-07:00,2.6782050132751,3,versionC_stim.csv,JOL_SIZE_VersionC.csv,"Large vs small C","Large vs small",BAD,DELINQUENT,Study1,B,6,36,JOL_Large,User,-,"How likely are you to correctly recall the second item in the pair?|Type your response on a scale from 0-100 and then press Enter.",Study/JOL,"Study Phase",2173,,,813,1126,,,,100,1
5ead5e32f32e3b3dd328e5ef,7chamt4gwj,Trevor-ex1,1,23,2020-07-17T09:46:31-07:00,5.1741070747375,3,versionC_stim.csv,JOL_SIZE_VersionC.csv,"Large vs small C","Large vs small",DEFINITION,MEANING,Study1,S,62,11,JOL_Large,User,-,"How likely are you to correctly recall the second item in the pair?|Type your response on a scale from 0-100 and then press Enter.",Study/JOL,"Study Phase",4688,,,972,1317,,,,100,1
5ead5e32f32e3b3dd328e5ef,7chamt4gwj,Trevor-ex1,1,24,2020-07-17T09:46:34-07:00,3.2025029659271,3,versionC_stim.csv,JOL_SIZE_VersionC.csv,"Large vs small C","Large vs small",JURY,TRIAL,Study1,S,50,72,JOL_Small,User,-,"How likely are you to correctly recall the second item in the pair?|Type your response on a scale from 0-100 and then press Enter.",Study/JOL,"Study Phase",2715,,,1786,1960,,,,45,1
5ead5e32f32e3b3dd328e5ef,7chamt4gwj,Trevor-ex1,1,25,2020-07-17T09:46:37-07:00,2.7495629787445,3,versionC_stim.csv,JOL_SIZE_VersionC.csv,"Large vs small C","Large vs small",WATER,BRIDGE,Study1,B,18,12,JOL_Large,User,-,"How likely are you to correctly recall the second item in the pair?|Type your response on a scale from 0-100 and then press Enter.",Study/JOL,"Study Phase",2254,,,1044,1329,,,,100,1
5ead5e32f32e3b3dd328e5ef,7chamt4gwj,Trevor-ex1,1,26,2020-07-17T09:46:40-07:00,3.0601539611816,3,versionC_stim.csv,JOL_SIZE_VersionC.csv,"Large vs small C","Large vs small",DROWSY,SLEEP,Study1,F,41,25,JOL_Large,User,-,"How likely are you to correctly recall the second item in the pair?|Type your response on a scale from 0-100 and then press Enter.",Study/JOL,"Study Phase",2575,,,1350,1630,,,,100,1
5ead5e32f32e3b3dd328e5ef,7chamt4gwj,Trevor-ex1,1,27,2020-07-17T09:46:42-07:00,2.6771779060364,3,versionC_stim.csv,JOL_SIZE_VersionC.csv,"Large vs small C","Large vs small",SEIZE,TAKE,Study1,F,29,31,JOL_Large,User,-,"How likely are you to correctly recall the second item in the pair?|Type your response on a scale from 0-100 and then press Enter.",Study/JOL,"Study Phase",2188,,,954,1285,,,,100,1
5ead5e32f32e3b3dd328e5ef,7chamt4gwj,Trevor-ex1,1,28,2020-07-17T09:46:46-07:00,3.4945750236511,3,versionC_stim.csv,JOL_SIZE_VersionC.csv,"Large vs small C","Large vs small",CHORE,WORK,Study1,F,39,73,JOL_Small,User,-,"How likely are you to correctly recall the second item in the pair?|Type your response on a scale from 0-100 and then press Enter.",Study/JOL,"Study Phase",2872,,,1742,1929,,,,40,1
5ead5e32f32e3b3dd328e5ef,7chamt4gwj,Trevor-ex1,1,29,2020-07-17T09:46:50-07:00,3.6688461303711,3,versionC_stim.csv,JOL_SIZE_VersionC.csv,"Large vs small C","Large vs small",SACKING,DIETARY,Study1,U,67,49,JOL_Small,User,-,"How likely are you to correctly recall the second item in the pair?|Type your response on a scale from 0-100 and then press Enter.",Study/JOL,"Study Phase",2180,,,1477,1664,,,,32,1
5ead5e32f32e3b3dd328e5ef,7chamt4gwj,Trevor-ex1,1,30,2020-07-17T09:46:54-07:00,4.1144418716431,3,versionC_stim.csv,JOL_SIZE_VersionC.csv,"Large vs small C","Large vs small",LIVER,KIDNEY,Study1,S,53,53,JOL_Small,User,-,"How likely are you to correctly recall the second item in the pair?|Type your response on a scale from 0-100 and then press Enter.",Study/JOL,"Study Phase",3586,,,2144,2655,,,,25,1
5ead5e32f32e3b3dd328e5ef,7chamt4gwj,Trevor-ex1,1,31,2020-07-17T09:46:58-07:00,4.0573871135712,3,versionC_stim.csv,JOL_SIZE_VersionC.csv,"Large vs small C","Large vs small",SALAD,LETTUCE,Study1,S,59,82,JOL_Small,User,-,"How likely are you to correctly recall the second item in the pair?|Type your response on a scale from 0-100 and then press Enter.",Study/JOL,"Study Phase",3576,,,2738,2902,,,,20,1
5ead5e32f32e3b3dd328e5ef,7chamt4gwj,Trevor-ex1,1,32,2020-07-17T09:47:01-07:00,3.3076288700104,3,versionC_stim.csv,JOL_SIZE_VersionC.csv,"Large vs small C","Large vs small",RACKET,BALL,Study1,F,38,26,JOL_Large,User,-,"How likely are you to correctly recall the second item in the pair?|Type your response on a scale from 0-100 and then press Enter.",Study/JOL,"Study Phase",2786,,,1567,1943,,,,100,1
5ead5e32f32e3b3dd328e5ef,7chamt4gwj,Trevor-ex1,1,33,2020-07-17T09:47:06-07:00,4.4827380180359,3,versionC_stim.csv,JOL_SIZE_VersionC.csv,"Large vs small C","Large vs small",FUTURE,PAST,Study1,S,61,37,JOL_Large,User,-,"How likely are you to correctly recall the second item in the pair?|Type your response on a scale from 0-100 and then press Enter.",Study/JOL,"Study Phase",3979,,,2438,2814,,,,100,1
5ead5e32f32e3b3dd328e5ef,7chamt4gwj,Trevor-ex1,1,34,2020-07-17T09:47:12-07:00,6.5215840339661,3,versionC_stim.csv,JOL_SIZE_VersionC.csv,"Large vs small C","Large vs small",POSITION,MACHINE,Study1,U,76,85,JOL_Small,User,-,"How likely are you to correctly recall the second item in the pair?|Type your response on a scale from 0-100 and then press Enter.",Study/JOL,"Study Phase",6002,,,4460,4658,,,,25,1
5ead5e32f32e3b3dd328e5ef,7chamt4gwj,Trevor-ex1,1,35,2020-07-17T09:47:15-07:00,2.7764229774475,3,versionC_stim.csv,JOL_SIZE_VersionC.csv,"Large vs small C","Large vs small",STOMACH,DIGESTION,Study1,B,7,16,JOL_Large,User,-,"How likely are you to correctly recall the second item in the pair?|Type your response on a scale from 0-100 and then press Enter.",Study/JOL,"Study Phase",2197,,,1195,1431,,,,100,1
5ead5e32f32e3b3dd328e5ef,7chamt4gwj,Trevor-ex1,1,36,2020-07-17T09:47:18-07:00,3.4168739318848,3,versionC_stim.csv,JOL_SIZE_VersionC.csv,"Large vs small C","Large vs small",WORD,SENTENCE,Study1,F,31,74,JOL_Small,User,-,"How likely are you to correctly recall the second item in the pair?|Type your response on a scale from 0-100 and then press Enter.",Study/JOL,"Study Phase",2916,,,2042,2207,,,,48,1
5ead5e32f32e3b3dd328e5ef,7chamt4gwj,Trevor-ex1,1,37,2020-07-17T09:47:21-07:00,2.563766002655,3,versionC_stim.csv,JOL_SIZE_VersionC.csv,"Large vs small C","Large vs small",TUCK,ALLOW,Study1,U,78,41,JOL_Large,User,-,"How likely are you to correctly recall the second item in the pair?|Type your response on a scale from 0-100 and then press Enter.",Study/JOL,"Study Phase",2088,,,857,1137,,,,100,1
5ead5e32f32e3b3dd328e5ef,7chamt4gwj,Trevor-ex1,1,38,2020-07-17T09:47:25-07:00,3.6671919822693,3,versionC_stim.csv,JOL_SIZE_VersionC.csv,"Large vs small C","Large vs small",STING,HORNET,Study1,B,11,59,JOL_Small,User,-,"How likely are you to correctly recall the second item in the pair?|Type your response on a scale from 0-100 and then press Enter.",Study/JOL,"Study Phase",3180,,,2373,2511,,,,23,1
5ead5e32f32e3b3dd328e5ef,7chamt4gwj,Trevor-ex1,1,39,2020-07-17T09:47:30-07:00,5.5654690265656,3,versionC_stim.csv,JOL_SIZE_VersionC.csv,"Large vs small C","Large vs small",ENOUGH,FULL,Study1,F,26,76,JOL_Small,User,-,"How likely are you to correctly recall the second item in the pair?|Type your response on a scale from 0-100 and then press Enter.",Study/JOL,"Study Phase",5063,,,4323,4401,,,,10,1
5ead5e32f32e3b3dd328e5ef,7chamt4gwj,Trevor-ex1,1,40,2020-07-17T09:47:33-07:00,3.184709072113,3,versionC_stim.csv,JOL_SIZE_VersionC.csv,"Large vs small C","Large vs small",END,BEGIN,Study1,S,54,19,JOL_Large,User,-,"How likely are you to correctly recall the second item in the pair?|Type your response on a scale from 0-100 and then press Enter.",Study/JOL,"Study Phase",2211,,,1069,1354,,,,100,1
5ead5e32f32e3b3dd328e5ef,7chamt4gwj,Trevor-ex1,1,41,2020-07-17T09:47:36-07:00,2.2938599586487,3,versionC_stim.csv,JOL_SIZE_VersionC.csv,"Large vs small C","Large vs small",ROCK,GEOLOGY,Study1,B,19,8,JOL_Large,User,-,"How likely are you to correctly recall the second item in the pair?|Type your response on a scale from 0-100 and then press Enter.",Study/JOL,"Study Phase",1780,,,1022,1299,,,,100,1
5ead5e32f32e3b3dd328e5ef,7chamt4gwj,Trevor-ex1,1,42,2020-07-17T09:47:39-07:00,3.1217300891876,3,versionC_stim.csv,JOL_SIZE_VersionC.csv,"Large vs small C","Large vs small",FLOOR,DISCOVER,Study1,U,71,55,JOL_Small,User,-,"How likely are you to correctly recall the second item in the pair?|Type your response on a scale from 0-100 and then press Enter.",Study/JOL,"Study Phase",2611,,,1887,2081,,,,15,1
5ead5e32f32e3b3dd328e5ef,7chamt4gwj,Trevor-ex1,1,43,2020-07-17T09:47:47-07:00,8.5928580760956,3,versionC_stim.csv,JOL_SIZE_VersionC.csv,"Large vs small C","Large vs small",ACCIDENT,STRONG,Study1,U,80,50,JOL_Small,User,-,"How likely are you to correctly recall the second item in the pair?|Type your response on a scale from 0-100 and then press Enter.",Study/JOL,"Study Phase",8073,,,6891,7308,,,,20,1
5ead5e32f32e3b3dd328e5ef,7chamt4gwj,Trevor-ex1,1,44,2020-07-17T09:47:50-07:00,2.6545078754425,3,versionC_stim.csv,JOL_SIZE_VersionC.csv,"Large vs small C","Large vs small",BAR,GRILL,Study1,S,52,79,JOL_Small,User,-,"How likely are you to correctly recall the second item in the pair?|Type your response on a scale from 0-100 and then press Enter.",Study/JOL,"Study Phase",2174,,,1837,1988,,,,23,1
5ead5e32f32e3b3dd328e5ef,7chamt4gwj,Trevor-ex1,1,45,2020-07-17T09:47:53-07:00,3.0617580413818,3,versionC_stim.csv,JOL_SIZE_VersionC.csv,"Large vs small C","Large vs small",FOOT,SHOE,Study1,S,60,27,JOL_Large,User,-,"How likely are you to correctly recall the second item in the pair?|Type your response on a scale from 0-100 and then press Enter.",Study/JOL,"Study Phase",2571,,,1153,1464,,,,100,1
5ead5e32f32e3b3dd328e5ef,7chamt4gwj,Trevor-ex1,1,46,2020-07-17T09:47:57-07:00,4.1973540782928,3,versionC_stim.csv,JOL_SIZE_VersionC.csv,"Large vs small C","Large vs small",GROWTH,HEIGHT,Study1,F,30,51,JOL_Small,User,-,"How likely are you to correctly recall the second item in the pair?|Type your response on a scale from 0-100 and then press Enter.",Study/JOL,"Study Phase",3718,,,3272,3448,,,,52,1
5ead5e32f32e3b3dd328e5ef,7chamt4gwj,Trevor-ex1,1,47,2020-07-17T09:48:00-07:00,2.7376008033752,3,versionC_stim.csv,JOL_SIZE_VersionC.csv,"Large vs small C","Large vs small",ATTORNEY,LAW,Study1,F,34,75,JOL_Small,User,-,"How likely are you to correctly recall the second item in the pair?|Type your response on a scale from 0-100 and then press Enter.",Study/JOL,"Study Phase",2238,,,1769,1993,,,,65,1
5ead5e32f32e3b3dd328e5ef,7chamt4gwj,Trevor-ex1,1,48,2020-07-17T09:48:02-07:00,1.5899081230164,3,versionC_stim.csv,JOL_SIZE_VersionC.csv,"Large vs small C","Large vs small",DESIGN,ARCHITECTURE,Study1,S,51,56,JOL_Small,User,-,"How likely are you to correctly recall the second item in the pair?|Type your response on a scale from 0-100 and then press Enter.",Study/JOL,"Study Phase",1087,,,770,909,,,,32,1
5ead5e32f32e3b3dd328e5ef,7chamt4gwj,Trevor-ex1,1,49,2020-07-17T09:48:03-07:00,1.760232925415,3,versionC_stim.csv,JOL_SIZE_VersionC.csv,"Large vs small C","Large vs small",DIVISION,MATH,Study1,F,33,10,JOL_Large,User,-,"How likely are you to correctly recall the second item in the pair?|Type your response on a scale from 0-100 and then press Enter.",Study/JOL,"Study Phase",1270,,,858,1133,,,,100,1
5ead5e32f32e3b3dd328e5ef,7chamt4gwj,Trevor-ex1,1,50,2020-07-17T09:48:05-07:00,1.5379900932312,3,versionC_stim.csv,JOL_SIZE_VersionC.csv,"Large vs small C","Large vs small",FAMINE,HUNGER,Study1,F,40,34,JOL_Large,User,-,"How likely are you to correctly recall the second item in the pair?|Type your response on a scale from 0-100 and then press Enter.",Study/JOL,"Study Phase",1005,,,607,869,,,,100,1
5ead5e32f32e3b3dd328e5ef,7chamt4gwj,Trevor-ex1,1,51,2020-07-17T09:48:06-07:00,1.3154590129852,3,versionC_stim.csv,JOL_SIZE_VersionC.csv,"Large vs small C","Large vs small",BRONZE,ARTERY,Study1,U,74,33,JOL_Large,User,-,"How likely are you to correctly recall the second item in the pair?|Type your response on a scale from 0-100 and then press Enter.",Study/JOL,"Study Phase",797,,,368,645,,,,100,1
5ead5e32f32e3b3dd328e5ef,7chamt4gwj,Trevor-ex1,1,52,2020-07-17T09:48:08-07:00,2.2153718471527,3,versionC_stim.csv,JOL_SIZE_VersionC.csv,"Large vs small C","Large vs small",NEWS,EDITOR,Study1,B,10,86,JOL_Small,User,-,"How likely are you to correctly recall the second item in the pair?|Type your response on a scale from 0-100 and then press Enter.",Study/JOL,"Study Phase",1678,,,1403,1520,,,,56,1
5ead5e32f32e3b3dd328e5ef,7chamt4gwj,Trevor-ex1,1,53,2020-07-17T09:48:10-07:00,1.5158159732819,3,versionC_stim.csv,JOL_SIZE_VersionC.csv,"Large vs small C","Large vs small",BIRD,SWAN,Study1,B,14,61,JOL_Small,User,-,"How likely are you to correctly recall the second item in the pair?|Type your response on a scale from 0-100 and then press Enter.",Study/JOL,"Study Phase",1043,,,718,849,,,,58,1
5ead5e32f32e3b3dd328e5ef,7chamt4gwj,Trevor-ex1,1,54,2020-07-17T09:48:13-07:00,2.8467252254486,3,versionC_stim.csv,JOL_SIZE_VersionC.csv,"Large vs small C","Large vs small",CLEAN,HYGIENE,Study1,B,17,17,JOL_Large,User,-,"How likely are you to correctly recall the second item in the pair?|Type your response on a scale from 0-100 and then press Enter.",Study/JOL,"Study Phase",2360,,,398,1955,,,,100,1
5ead5e32f32e3b3dd328e5ef,7chamt4gwj,Trevor-ex1,1,55,2020-07-17T09:48:17-07:00,4.0814199447632,3,versionC_stim.csv,JOL_SIZE_VersionC.csv,"Large vs small C","Large vs small",ADD,VALLEY,Study1,U,82,7,JOL_Large,User,-,"How likely are you to correctly recall the second item in the pair?|Type your response on a scale from 0-100 and then press Enter.",Study/JOL,"Study Phase",3591,,,430,3459,,,,100,1
5ead5e32f32e3b3dd328e5ef,7chamt4gwj,Trevor-ex1,1,56,2020-07-17T09:48:20-07:00,3.7037329673767,3,versionC_stim.csv,JOL_SIZE_VersionC.csv,"Large vs small C","Large vs small",TALK,DISCUSSION,Study1,B,21,67,JOL_Small,User,-,"How likely are you to correctly recall the second item in the pair?|Type your response on a scale from 0-100 and then press Enter.",Study/JOL,"Study Phase",3212,,,2454,2651,,,,27,1
5ead5e32f32e3b3dd328e5ef,7chamt4gwj,Trevor-ex1,1,57,2020-07-17T09:48:23-07:00,2.3324899673462,3,versionC_stim.csv,JOL_SIZE_VersionC.csv,"Large vs small C","Large vs small",ASSIGNMENT,DUE,Study1,S,46,52,JOL_Small,User,-,"How likely are you to correctly recall the second item in the pair?|Type your response on a scale from 0-100 and then press Enter.",Study/JOL,"Study Phase",1845,,,1520,1587,,,,89,1
5ead5e32f32e3b3dd328e5ef,7chamt4gwj,Trevor-ex1,1,58,2020-07-17T09:48:26-07:00,2.8102090358734,3,versionC_stim.csv,JOL_SIZE_VersionC.csv,"Large vs small C","Large vs small",SITE,LOCATION,Study1,S,48,84,JOL_Small,User,-,"How likely are you to correctly recall the second item in the pair?|Type your response on a scale from 0-100 and then press Enter.",Study/JOL,"Study Phase",2310,,,1650,1897,,,,100,1
5ead5e32f32e3b3dd328e5ef,7chamt4gwj,Trevor-ex1,1,59,2020-07-17T09:48:27-07:00,1.7716748714447,3,versionC_stim.csv,JOL_SIZE_VersionC.csv,"Large vs small C","Large vs small",STENCH,SMELL,Study1,F,42,46,JOL_Large,User,-,"How likely are you to correctly recall the second item in the pair?|Type your response on a scale from 0-100 and then press Enter.",Study/JOL,"Study Phase",1275,,,920,1195,,,,100,1
5ead5e32f32e3b3dd328e5ef,7chamt4gwj,Trevor-ex1,1,60,2020-07-17T09:48:29-07:00,1.8035650253296,3,versionC_stim.csv,JOL_SIZE_VersionC.csv,"Large vs small C","Large vs small",COW,HERD,Study1,B,22,38,JOL_Large,User,-,"How likely are you to correctly recall the second item in the pair?|Type your response on a scale from 0-100 and then press Enter.",Study/JOL,"Study Phase",1316,,,1028,1295,,,,100,1
5ead5e32f32e3b3dd328e5ef,7chamt4gwj,Trevor-ex1,1,61,2020-07-17T09:48:32-07:00,3.2717380523682,3,versionC_stim.csv,JOL_SIZE_VersionC.csv,"Large vs small C","Large vs small",TOILET,BATHROOM,Study1,S,58,47,JOL_Small,User,-,"How likely are you to correctly recall the second item in the pair?|Type your response on a scale from 0-100 and then press Enter.",Study/JOL,"Study Phase",1747,,,1387,1665,,,,100,1
5ead5e32f32e3b3dd328e5ef,7chamt4gwj,Trevor-ex1,1,62,2020-07-17T09:48:35-07:00,2.9582660198212,3,versionC_stim.csv,JOL_SIZE_VersionC.csv,"Large vs small C","Large vs small",VASE,KING,Study1,U,85,28,JOL_Large,User,-,"How likely are you to correctly recall the second item in the pair?|Type your response on a scale from 0-100 and then press Enter.",Study/JOL,"Study Phase",2376,,,2169,2243,,,,32,1
5ead5e32f32e3b3dd328e5ef,7chamt4gwj,Trevor-ex1,1,63,2020-07-17T09:48:37-07:00,2.0611479282379,3,versionC_stim.csv,JOL_SIZE_VersionC.csv,"Large vs small C","Large vs small",FISH,TUNA,Study1,B,25,78,JOL_Small,User,-,"How likely are you to correctly recall the second item in the pair?|Type your response on a scale from 0-100 and then press Enter.",Study/JOL,"Study Phase",1538,,,1156,1432,,,,100,1
5ead5e32f32e3b3dd328e5ef,7chamt4gwj,Trevor-ex1,1,64,2020-07-17T09:48:41-07:00,3.6520440578461,3,versionC_stim.csv,JOL_SIZE_VersionC.csv,"Large vs small C","Large vs small",ROUND,CIRCLE,Study1,S,65,18,JOL_Large,User,-,"How likely are you to correctly recall the second item in the pair?|Type your response on a scale from 0-100 and then press Enter.",Study/JOL,"Study Phase",2047,,,1314,1577,,,,100,1
5ead5e32f32e3b3dd328e5ef,7chamt4gwj,Trevor-ex1,1,65,2020-07-17T09:48:43-07:00,2.0030999183655,3,versionC_stim.csv,JOL_SIZE_VersionC.csv,"Large vs small C","Large vs small",BEE,HONEY,Study1,S,63,44,JOL_Large,User,-,"How likely are you to correctly recall the second item in the pair?|Type your response on a scale from 0-100 and then press Enter.",Study/JOL,"Study Phase",1423,,,1029,1290,,,,100,1
5ead5e32f32e3b3dd328e5ef,7chamt4gwj,Trevor-ex1,1,66,2020-07-17T09:48:46-07:00,3.2806940078735,3,versionC_stim.csv,JOL_SIZE_VersionC.csv,"Large vs small C","Large vs small",HAND,FIX,Study1,U,75,83,JOL_Small,User,-,"How likely are you to correctly recall the second item in the pair?|Type your response on a scale from 0-100 and then press Enter.",Study/JOL,"Study Phase",2783,,,2488,2611,,,,45,1
5ead5e32f32e3b3dd328e5ef,7chamt4gwj,Trevor-ex1,1,67,2020-07-17T09:48:49-07:00,2.8353660106659,3,versionC_stim.csv,JOL_SIZE_VersionC.csv,"Large vs small C","Large vs small",PILOT,PLANE,Study1,F,44,58,JOL_Small,User,-,"How likely are you to correctly recall the second item in the pair?|Type your response on a scale from 0-100 and then press Enter.",Study/JOL,"Study Phase",2348,,,1958,2228,,,,100,1
5ead5e32f32e3b3dd328e5ef,7chamt4gwj,Trevor-ex1,1,68,2020-07-17T09:48:51-07:00,2.2110199928284,3,versionC_stim.csv,JOL_SIZE_VersionC.csv,"Large vs small C","Large vs small",HAMMER,CHISEL,Study1,B,9,80,JOL_Small,User,-,"How likely are you to correctly recall the second item in the pair?|Type your response on a scale from 0-100 and then press Enter.",Study/JOL,"Study Phase",1704,,,1339,1603,,,,100,1
5ead5e32f32e3b3dd328e5ef,7chamt4gwj,Trevor-ex1,1,69,2020-07-17T09:48:53-07:00,1.8291850090027,3,versionC_stim.csv,JOL_SIZE_VersionC.csv,"Large vs small C","Large vs small",CARD,CREDIT,Study1,B,23,57,JOL_Small,User,-,"How likely are you to correctly recall the second item in the pair?|Type your response on a scale from 0-100 and then press Enter.",Study/JOL,"Study Phase",1329,,,1057,1175,,,,32,1
5ead5e32f32e3b3dd328e5ef,7chamt4gwj,Trevor-ex1,1,70,2020-07-17T09:48:55-07:00,1.8800621032715,3,versionC_stim.csv,JOL_SIZE_VersionC.csv,"Large vs small C","Large vs small",FANTASTIC,GREAT,Study1,F,35,9,JOL_Large,User,-,"How likely are you to correctly recall the second item in the pair?|Type your response on a scale from 0-100 and then press Enter.",Study/JOL,"Study Phase",1407,,,770,1052,,,,100,1
5ead5e32f32e3b3dd328e5ef,7chamt4gwj,Trevor-ex1,1,71,2020-07-17T09:49:00-07:00,4.3788909912109,3,versionC_stim.csv,JOL_SIZE_VersionC.csv,"Large vs small C","Large vs small",RIDDLE,SUGAR,Study1,U,81,42,JOL_Large,User,-,"How likely are you to correctly recall the second item in the pair?|Type your response on a scale from 0-100 and then press Enter.",Study/JOL,"Study Phase",3873,,,2059,2373,,,,05,1
5ead5e32f32e3b3dd328e5ef,7chamt4gwj,Trevor-ex1,1,72,2020-07-17T09:49:03-07:00,3.8155059814453,3,versionC_stim.csv,JOL_SIZE_VersionC.csv,"Large vs small C","Large vs small",WOMAN,LIFT,Study1,U,69,13,JOL_Large,User,-,"How likely are you to correctly recall the second item in the pair?|Type your response on a scale from 0-100 and then press Enter.",Study/JOL,"Study Phase",2814,,,2552,2687,,,,02,1
5ead5e32f32e3b3dd328e5ef,7chamt4gwj,Trevor-ex1,1,73,2020-07-17T09:49:06-07:00,2.2144529819489,3,versionC_stim.csv,JOL_SIZE_VersionC.csv,"Large vs small C","Large vs small",MONEY,WAGE,Study1,B,8,62,JOL_Small,User,-,"How likely are you to correctly recall the second item in the pair?|Type your response on a scale from 0-100 and then press Enter.",Study/JOL,"Study Phase",1640,,,1352,1609,,,,100,1
5ead5e32f32e3b3dd328e5ef,7chamt4gwj,Trevor-ex1,1,74,2020-07-17T09:49:08-07:00,2.3623669147491,3,versionC_stim.csv,JOL_SIZE_VersionC.csv,"Large vs small C","Large vs small",SODA,POP,Study1,S,56,35,JOL_Large,User,-,"How likely are you to correctly recall the second item in the pair?|Type your response on a scale from 0-100 and then press Enter.",Study/JOL,"Study Phase",1778,,,1582,1667,,,,32,1
5ead5e32f32e3b3dd328e5ef,7chamt4gwj,Trevor-ex1,1,75,2020-07-17T09:49:10-07:00,2.0033030509949,3,versionC_stim.csv,JOL_SIZE_VersionC.csv,"Large vs small C","Large vs small",SIP,DRINK,Study1,F,27,43,JOL_Large,User,-,"How likely are you to correctly recall the second item in the pair?|Type your response on a scale from 0-100 and then press Enter.",Study/JOL,"Study Phase",1505,,,1151,1381,,,,100,1
5ead5e32f32e3b3dd328e5ef,7chamt4gwj,Trevor-ex1,1,76,2020-07-17T09:49:12-07:00,1.9553940296173,3,versionC_stim.csv,JOL_SIZE_VersionC.csv,"Large vs small C","Large vs small",AMOUNT,NUMBER,Study1,S,47,66,JOL_Small,User,-,"How likely are you to correctly recall the second item in the pair?|Type your response on a scale from 0-100 and then press Enter.",Study/JOL,"Study Phase",1452,,,1079,1384,,,,100,1
5ead5e32f32e3b3dd328e5ef,7chamt4gwj,Trevor-ex1,1,77,2020-07-17T09:49:13-07:00,1.5469739437103,3,versionC_stim.csv,JOL_SIZE_VersionC.csv,"Large vs small C","Large vs small",PLANT,ROOT,Study1,B,13,63,JOL_Small,User,-,"How likely are you to correctly recall the second item in the pair?|Type your response on a scale from 0-100 and then press Enter.",Study/JOL,"Study Phase",1050,,,724,1002,,,,100,1
5ead5e32f32e3b3dd328e5ef,7chamt4gwj,Trevor-ex1,1,78,2020-07-17T09:49:15-07:00,1.2926330566406,3,versionC_stim.csv,JOL_SIZE_VersionC.csv,"Large vs small C","Large vs small",WASTE,DUMP,Study1,S,49,69,JOL_Small,User,-,"How likely are you to correctly recall the second item in the pair?|Type your response on a scale from 0-100 and then press Enter.",Study/JOL,"Study Phase",807,,,490,766,,,,100,1
5ead5e32f32e3b3dd328e5ef,7chamt4gwj,Trevor-ex1,1,79,2020-07-17T09:49:16-07:00,1.3789229393005,3,versionC_stim.csv,JOL_SIZE_VersionC.csv,"Large vs small C","Large vs small",CHEESE,WINE,Study1,S,57,60,JOL_Small,User,-,"How likely are you to correctly recall the second item in the pair?|Type your response on a scale from 0-100 and then press Enter.",Study/JOL,"Study Phase",887,,,568,843,,,,100,1
5ead5e32f32e3b3dd328e5ef,7chamt4gwj,Trevor-ex1,1,80,2020-07-17T09:49:18-07:00,1.4407691955566,3,versionC_stim.csv,JOL_SIZE_VersionC.csv,"Large vs small C","Large vs small",CAVE,DARK,Study1,F,28,71,JOL_Small,User,-,"How likely are you to correctly recall the second item in the pair?|Type your response on a scale from 0-100 and then press Enter.",Study/JOL,"Study Phase",891,,,564,838,,,,100,1
5ead5e32f32e3b3dd328e5ef,7chamt4gwj,Trevor-ex1,1,81,2020-07-17T09:49:19-07:00,1.5656979084015,3,versionC_stim.csv,JOL_SIZE_VersionC.csv,"Large vs small C","Large vs small",CHILI,HOT,Study1,F,37,40,JOL_Large,User,-,"How likely are you to correctly recall the second item in the pair?|Type your response on a scale from 0-100 and then press Enter.",Study/JOL,"Study Phase",1084,,,745,1020,,,,100,1
5ead5e32f32e3b3dd328e5ef,7chamt4gwj,Trevor-ex1,1,82,2020-07-17T09:49:22-07:00,2.5835800170898,3,versionC_stim.csv,JOL_SIZE_VersionC.csv,"Large vs small C","Large vs small",WIND,BLOW,Study1,S,55,81,JOL_Small,User,-,"How likely are you to correctly recall the second item in the pair?|Type your response on a scale from 0-100 and then press Enter.",Study/JOL,"Study Phase",2085,,,461,939,,,,100,1
5ead5e32f32e3b3dd328e5ef,7chamt4gwj,Trevor-ex1,1,83,2020-07-17T09:49:25-07:00,3.2609970569611,3,versionC_stim.csv,JOL_SIZE_VersionC.csv,"Large vs small C","Large vs small",CHILD,BABY,Study1,S,64,65,JOL_Small,User,-,"How likely are you to correctly recall the second item in the pair?|Type your response on a scale from 0-100 and then press Enter.",Study/JOL,"Study Phase",2761,,,2460,2615,,,,10,1
5ead5e32f32e3b3dd328e5ef,7chamt4gwj,Trevor-ex1,1,84,2020-07-17T09:49:27-07:00,1.5722968578339,3,versionC_stim.csv,JOL_SIZE_VersionC.csv,"Large vs small C","Large vs small",SIGHT,DEBATE,Study1,U,73,24,JOL_Large,User,-,"How likely are you to correctly recall the second item in the pair?|Type your response on a scale from 0-100 and then press Enter.",Study/JOL,"Study Phase",1079,,,692,975,,,,100,1
5ead5e32f32e3b3dd328e5ef,7chamt4gwj,Trevor-ex1,1,85,2020-07-17T09:49:28-07:00,1.3822820186615,3,versionC_stim.csv,JOL_SIZE_VersionC.csv,"Large vs small C","Large vs small",CAR,HAPPY,Study1,U,77,22,JOL_Large,User,-,"How likely are you to correctly recall the second item in the pair?|Type your response on a scale from 0-100 and then press Enter.",Study/JOL,"Study Phase",897,,,481,768,,,,100,1
5ead5e32f32e3b3dd328e5ef,7chamt4gwj,Trevor-ex1,1,86,2020-07-17T09:49:30-07:00,2.3612461090088,3,versionC_stim.csv,JOL_SIZE_VersionC.csv,"Large vs small C","Large vs small",HUNGRY,PARK,Study1,U,68,39,JOL_Large,User,-,"How likely are you to correctly recall the second item in the pair?|Type your response on a scale from 0-100 and then press Enter.",Study/JOL,"Study Phase",1856,,,1592,1734,,,,53,1
5ead5e32f32e3b3dd328e5ef,7chamt4gwj,Trevor-ex1,1,87,2020-07-17T09:49:32-07:00,1.8518450260162,3,versionC_stim.csv,JOL_SIZE_VersionC.csv,"Large vs small C","Large vs small",WAR,REVOLUTION,Study1,B,20,77,JOL_Small,User,-,"How likely are you to correctly recall the second item in the pair?|Type your response on a scale from 0-100 and then press Enter.",Study/JOL,"Study Phase",1381,,,1074,1327,,,,100,1
5ead5e32f32e3b3dd328e5ef,7chamt4gwj,Trevor-ex1,1,88,2020-07-17T09:49:34-07:00,2.034551858902,3,versionC_stim.csv,JOL_SIZE_VersionC.csv,"Large vs small C","Large vs small",BELT,SOON,Study1,U,70,20,JOL_Large,User,-,"How likely are you to correctly recall the second item in the pair?|Type your response on a scale from 0-100 and then press Enter.",Study/JOL,"Study Phase",1533,,,1242,1503,,,,100,1
5ead5e32f32e3b3dd328e5ef,7chamt4gwj,Trevor-ex1,1,89,2020-07-17T09:49:36-07:00,1.8367929458618,3,versionC_stim.csv,JOL_SIZE_VersionC.csv,"Large vs small C","Large vs small",LION,ART,Study1,U,79,48,JOL_Small,User,-,"How likely are you to correctly recall the second item in the pair?|Type your response on a scale from 0-100 and then press Enter.",Study/JOL,"Study Phase",1337,,,971,1246,,,,100,1
5ead5e32f32e3b3dd328e5ef,7chamt4gwj,Trevor-ex1,1,90,2020-07-17T09:49:38-07:00,1.75022315979,3,versionC_stim.csv,JOL_SIZE_VersionC.csv,"Large vs small C","Large vs small",LATCH,KEY,Study1,F,36,45,JOL_Large,User,-,"How likely are you to correctly recall the second item in the pair?|Type your response on a scale from 0-100 and then press Enter.",Study/JOL,"Study Phase",1243,,,979,1128,,,,52,1
5ead5e32f32e3b3dd328e5ef,7chamt4gwj,Trevor-ex1,1,91,2020-07-17T09:49:40-07:00,1.8119649887085,3,versionC_stim.csv,JOL_SIZE_VersionC.csv,"Large vs small C","Large vs small",GOOSE,GEESE,BUFFER2,Buffer,86,88,JOL_Large,User,-,"How likely are you to correctly recall the second item in the pair?|Type your response on a scale from 0-100 and then press Enter.",Study/JOL,BUFFER2,1327,,,1064,1202,,,,52,1
5ead5e32f32e3b3dd328e5ef,7chamt4gwj,Trevor-ex1,1,92,2020-07-17T09:49:41-07:00,1.6448290348053,3,versionC_stim.csv,JOL_SIZE_VersionC.csv,"Large vs small C","Large vs small",SPACE,MOON,BUFFER2,Buffer,89,90,JOL_Small,User,-,"How likely are you to correctly recall the second item in the pair?|Type your response on a scale from 0-100 and then press Enter.",Study/JOL,BUFFER2,1129,,,758,1028,,,,100,1
5ead5e32f32e3b3dd328e5ef,7chamt4gwj,Trevor-ex1,1,93,2020-07-17T09:49:44-07:00,2.5834619998932,3,versionC_stim.csv,JOL_SIZE_VersionC.csv,"Large vs small C","Large vs small",CHOCOLATE,MALT,BUFFER2,Buffer,88,87,JOL_Large,User,-,"How likely are you to correctly recall the second item in the pair?|Type your response on a scale from 0-100 and then press Enter.",Study/JOL,BUFFER2,2099,,,1894,2011,,,,21,1
5ead5e32f32e3b3dd328e5ef,7chamt4gwj,Trevor-ex1,1,94,2020-07-17T09:49:45-07:00,1.6369829177856,3,versionC_stim.csv,JOL_SIZE_VersionC.csv,"Large vs small C","Large vs small",POLICE,SHERRIF,BUFFER2,Buffer,87,89,JOL_Small,User,-,"How likely are you to correctly recall the second item in the pair?|Type your response on a scale from 0-100 and then press Enter.",Study/JOL,BUFFER2,1138,,,622,695,,,,12,1
5ead5e32f32e3b3dd328e5ef,7chamt4gwj,Trevor-ex1,1,95,2020-07-17T09:49:47-07:00,1.7153549194336,3,versionC_stim.csv,JOL_SIZE_VersionC.csv,"Large vs small C","Large vs small",STUFF,THING,BUFFER2,Buffer,90,91,JOL_Large,User,-,"How likely are you to correctly recall the second item in the pair?|Type your response on a scale from 0-100 and then press Enter.",Study/JOL,BUFFER2,1227,,,930,1174,,,,100,1
5ead5e32f32e3b3dd328e5ef,7chamt4gwj,Trevor-ex1,1,96,2020-07-17T09:49:51-07:00,3.4974691867828,3,versionC_stim.csv,JOL_SIZE_VersionC.csv,"Large vs small C","Large vs small",,,,,,0,Instruct,User,-,"You have completed this section. Please press Enter.",Filler_Instruction,Instruct2,3012,,,-1,-1,,,,,1
5ead5e32f32e3b3dd328e5ef,7chamt4gwj,Trevor-ex1,1,97,2020-07-17T09:51:51-07:00,120.6430618763,3,versionC_stim.csv,JOL_SIZE_VersionC.csv,"Large vs small C","Large vs small",,,,,,0,FreeRecall,120,120,"Please list the 50 US states in alphabetical order. The task will automatically advance to the next screen after two minutes.",,Filler1,120004,"Alabama Alaska Arizona Arkansas California Colorado Connecticut Delaware Florida Georgia Hawaii Idaho Illinois Indiana Iowa ",0,24020,119542,0,0,,,1
5ead5e32f32e3b3dd328e5ef,7chamt4gwj,Trevor-ex1,1,98,2020-07-17T09:52:06-07:00,15.16706609726,3,versionC_stim.csv,JOL_SIZE_VersionC.csv,"Large vs small C","Large vs small",,,,,,0,Instruct,-,10,"You will now be presented with the first word from each of the previously studied item pairs. Please type the missing word. If you do not know the word, you may guess or press Enter to skip forward to the next pair.",,Instruct3,14656,,,-1,-1,,,,,1
5ead5e32f32e3b3dd328e5ef,7chamt4gwj,Trevor-ex1,1,99,2020-07-17T09:52:13-07:00,6.4689939022064,3,versionC_stim.csv,JOL_SIZE_VersionC.csv,"Large vs small C","Large vs small",SITE,LOCATION,Study1,S,48,84,Test,User,-,,Recall,Recall1,5925,Location,100,2033,5656,1,1,,,1
5ead5e32f32e3b3dd328e5ef,7chamt4gwj,Trevor-ex1,1,100,2020-07-17T09:52:34-07:00,20.985171079636,3,versionC_stim.csv,JOL_SIZE_VersionC.csv,"Large vs small C","Large vs small",SEIZE,TAKE,Study1,F,29,31,Test,User,-,,Recall,Recall1,20478,Attack,60,19391,20144,0,0,,,1
5ead5e32f32e3b3dd328e5ef,7chamt4gwj,Trevor-ex1,1,101,2020-07-17T09:52:38-07:00,4.1499350070953,3,versionC_stim.csv,JOL_SIZE_VersionC.csv,"Large vs small C","Large vs small",PLANT,ROOT,Study1,B,13,63,Test,User,-,,Recall,Recall1,3113,Root,100,1921,2539,1,1,,,1
5ead5e32f32e3b3dd328e5ef,7chamt4gwj,Trevor-ex1,1,102,2020-07-17T09:52:42-07:00,4.0721199512482,3,versionC_stim.csv,JOL_SIZE_VersionC.csv,"Large vs small C","Large vs small",FLOOR,DISCOVER,Study1,U,71,55,Test,User,-,,Recall,Recall1,3534,,0,-1,-1,0,0,,,1
5ead5e32f32e3b3dd328e5ef,7chamt4gwj,Trevor-ex1,1,103,2020-07-17T09:52:45-07:00,2.8460159301758,3,versionC_stim.csv,JOL_SIZE_VersionC.csv,"Large vs small C","Large vs small",ROUND,CIRCLE,Study1,S,65,18,Test,User,-,,Recall,Recall1,2354,Circle,100,1398,2135,1,1,,,1
5ead5e32f32e3b3dd328e5ef,7chamt4gwj,Trevor-ex1,1,104,2020-07-17T09:52:48-07:00,3.3682010173798,3,versionC_stim.csv,JOL_SIZE_VersionC.csv,"Large vs small C","Large vs small",DESIGN,ARCHITECTURE,Study1,S,51,56,Test,User,-,,Recall,Recall1,2867,Art,40,1855,2339,0,0,,,1
5ead5e32f32e3b3dd328e5ef,7chamt4gwj,Trevor-ex1,1,105,2020-07-17T09:52:52-07:00,3.2866089344025,3,versionC_stim.csv,JOL_SIZE_VersionC.csv,"Large vs small C","Large vs small",FLOWER,ORCHID,Study1,B,24,68,Test,User,-,,Recall,Recall1,1815,,0,-1,-1,0,0,,,1
5ead5e32f32e3b3dd328e5ef,7chamt4gwj,Trevor-ex1,1,106,2020-07-17T09:52:55-07:00,3.067479133606,3,versionC_stim.csv,JOL_SIZE_VersionC.csv,"Large vs small C","Large vs small",FOOT,SHOE,Study1,S,60,27,Test,User,-,,Recall,Recall1,2504,Leg,28.571428571429,1982,2334,0,0,,,1
5ead5e32f32e3b3dd328e5ef,7chamt4gwj,Trevor-ex1,1,107,2020-07-17T09:52:57-07:00,2.421205997467,3,versionC_stim.csv,JOL_SIZE_VersionC.csv,"Large vs small C","Large vs small",LIVER,KIDNEY,Study1,S,53,53,Test,User,-,,Recall,Recall1,1924,,0,-1,-1,0,0,,,1
5ead5e32f32e3b3dd328e5ef,7chamt4gwj,Trevor-ex1,1,108,2020-07-17T09:53:00-07:00,3.2270028591156,3,versionC_stim.csv,JOL_SIZE_VersionC.csv,"Large vs small C","Large vs small",COW,HERD,Study1,B,22,38,Test,User,-,,Recall,Recall1,2679,Meat,25,1738,2164,0,0,,,1
5ead5e32f32e3b3dd328e5ef,7chamt4gwj,Trevor-ex1,1,109,2020-07-17T09:53:03-07:00,2.8978390693665,3,versionC_stim.csv,JOL_SIZE_VersionC.csv,"Large vs small C","Large vs small",COLD,BITTER,Study1,B,12,64,Test,User,-,,Recall,Recall1,2411,Sick,20,1394,1834,0,0,,,1
5ead5e32f32e3b3dd328e5ef,7chamt4gwj,Trevor-ex1,1,110,2020-07-17T09:53:09-07:00,5.4808580875397,3,versionC_stim.csv,JOL_SIZE_VersionC.csv,"Large vs small C","Large vs small",END,BEGIN,Study1,S,54,19,Test,User,-,,Recall,Recall1,4985,Beginning,71.428571428571,2200,4367,0,0,,,1
5ead5e32f32e3b3dd328e5ef,7chamt4gwj,Trevor-ex1,1,111,2020-07-17T09:53:13-07:00,3.8838770389557,3,versionC_stim.csv,JOL_SIZE_VersionC.csv,"Large vs small C","Large vs small",LION,ART,Study1,U,79,48,Test,User,-,,Recall,Recall1,3386,Art,100,2589,2870,1,1,,,1
5ead5e32f32e3b3dd328e5ef,7chamt4gwj,Trevor-ex1,1,112,2020-07-17T09:53:14-07:00,1.7778949737549,3,versionC_stim.csv,JOL_SIZE_VersionC.csv,"Large vs small C","Large vs small",SACKING,DIETARY,Study1,U,67,49,Test,User,-,,Recall,Recall1,1234,,0,-1,-1,0,0,,,1
5ead5e32f32e3b3dd328e5ef,7chamt4gwj,Trevor-ex1,1,113,2020-07-17T09:53:17-07:00,2.6391508579254,3,versionC_stim.csv,JOL_SIZE_VersionC.csv,"Large vs small C","Large vs small",HAMMER,CHISEL,Study1,B,9,80,Test,User,-,,Recall,Recall1,2133,,0,-1,-1,0,0,,,1
5ead5e32f32e3b3dd328e5ef,7chamt4gwj,Trevor-ex1,1,114,2020-07-17T09:53:21-07:00,3.9702410697937,3,versionC_stim.csv,JOL_SIZE_VersionC.csv,"Large vs small C","Large vs small",SALAD,LETTUCE,Study1,S,59,82,Test,User,-,,Recall,Recall1,3474,lettuce,100,1855,2898,1,1,,,1
5ead5e32f32e3b3dd328e5ef,7chamt4gwj,Trevor-ex1,1,115,2020-07-17T09:53:24-07:00,3.1896820068359,3,versionC_stim.csv,JOL_SIZE_VersionC.csv,"Large vs small C","Large vs small",ENOUGH,FULL,Study1,F,26,76,Test,User,-,,Recall,Recall1,2598,stop,0,1661,2341,0,0,,,1
5ead5e32f32e3b3dd328e5ef,7chamt4gwj,Trevor-ex1,1,116,2020-07-17T09:53:28-07:00,4.2617430686951,3,versionC_stim.csv,JOL_SIZE_VersionC.csv,"Large vs small C","Large vs small",SODA,POP,Study1,S,56,35,Test,User,-,,Recall,Recall1,3767,pop,100,1387,3337,1,1,,,1
5ead5e32f32e3b3dd328e5ef,7chamt4gwj,Trevor-ex1,1,117,2020-07-17T09:53:31-07:00,2.6163909435272,3,versionC_stim.csv,JOL_SIZE_VersionC.csv,"Large vs small C","Large vs small",DOG,PAW,Study1,B,15,15,Test,User,-,,Recall,Recall1,2121,cat,33.333333333333,1233,1587,0,0,,,1
5ead5e32f32e3b3dd328e5ef,7chamt4gwj,Trevor-ex1,1,118,2020-07-17T09:53:34-07:00,2.7288010120392,3,versionC_stim.csv,JOL_SIZE_VersionC.csv,"Large vs small C","Large vs small",TOILET,BATHROOM,Study1,S,58,47,Test,User,-,,Recall,Recall1,2216,rol,36.363636363636,1580,1923,0,0,,,1
5ead5e32f32e3b3dd328e5ef,7chamt4gwj,Trevor-ex1,1,119,2020-07-17T09:53:36-07:00,1.8274409770966,3,versionC_stim.csv,JOL_SIZE_VersionC.csv,"Large vs small C","Large vs small",RIDDLE,SUGAR,Study1,U,81,42,Test,User,-,,Recall,Recall1,1314,,0,-1,-1,0,0,,,1
5ead5e32f32e3b3dd328e5ef,7chamt4gwj,Trevor-ex1,1,120,2020-07-17T09:53:38-07:00,2.2263689041138,3,versionC_stim.csv,JOL_SIZE_VersionC.csv,"Large vs small C","Large vs small",BAD,DELINQUENT,Study1,B,6,36,Test,User,-,,Recall,Recall1,1695,good,14.285714285714,1158,1537,0,0,,,1
5ead5e32f32e3b3dd328e5ef,7chamt4gwj,Trevor-ex1,1,121,2020-07-17T09:53:41-07:00,2.673709154129,3,versionC_stim.csv,JOL_SIZE_VersionC.csv,"Large vs small C","Large vs small",BEE,HONEY,Study1,S,63,44,Test,User,-,,Recall,Recall1,2098,honey,100,1180,1793,1,1,,,1
5ead5e32f32e3b3dd328e5ef,7chamt4gwj,Trevor-ex1,1,122,2020-07-17T09:53:44-07:00,3.1066839694977,3,versionC_stim.csv,JOL_SIZE_VersionC.csv,"Large vs small C","Large vs small",ACCIDENT,STRONG,Study1,U,80,50,Test,User,-,,Recall,Recall1,2617,,0,1415,1416,0,0,,,1
5ead5e32f32e3b3dd328e5ef,7chamt4gwj,Trevor-ex1,1,123,2020-07-17T09:53:45-07:00,1.3583750724792,3,versionC_stim.csv,JOL_SIZE_VersionC.csv,"Large vs small C","Large vs small",ATTIRE,CLOTHES,Study1,F,43,32,Test,User,-,,Recall,Recall1,859,,0,-1,-1,0,0,,,1
5ead5e32f32e3b3dd328e5ef,7chamt4gwj,Trevor-ex1,1,124,2020-07-17T09:53:48-07:00,2.5072848796844,3,versionC_stim.csv,JOL_SIZE_VersionC.csv,"Large vs small C","Large vs small",CAR,HAPPY,Study1,U,77,22,Test,User,-,,Recall,Recall1,2027,,0,-1,-1,0,0,,,1
5ead5e32f32e3b3dd328e5ef,7chamt4gwj,Trevor-ex1,1,125,2020-07-17T09:53:50-07:00,2.4717469215393,3,versionC_stim.csv,JOL_SIZE_VersionC.csv,"Large vs small C","Large vs small",WORD,SENTENCE,Study1,F,31,74,Test,User,-,,Recall,Recall1,1948,,0,-1,-1,0,0,,,1
5ead5e32f32e3b3dd328e5ef,7chamt4gwj,Trevor-ex1,1,126,2020-07-17T09:53:55-07:00,5.4715220928192,3,versionC_stim.csv,JOL_SIZE_VersionC.csv,"Large vs small C","Large vs small",ADD,VALLEY,Study1,U,82,7,Test,User,-,,Recall,Recall1,4975,addition,14.285714285714,3243,4345,0,0,,,1
5ead5e32f32e3b3dd328e5ef,7chamt4gwj,Trevor-ex1,1,127,2020-07-17T09:53:58-07:00,2.6304700374603,3,versionC_stim.csv,JOL_SIZE_VersionC.csv,"Large vs small C","Large vs small",CAVE,DARK,Study1,F,28,71,Test,User,-,,Recall,Recall1,2113,dark,100,1306,1876,1,1,,,1
5ead5e32f32e3b3dd328e5ef,7chamt4gwj,Trevor-ex1,1,128,2020-07-17T09:54:01-07:00,2.6941809654236,3,versionC_stim.csv,JOL_SIZE_VersionC.csv,"Large vs small C","Large vs small",CHILI,HOT,Study1,F,37,40,Test,User,-,,Recall,Recall1,2178,hot,100,1146,1555,1,1,,,1
5ead5e32f32e3b3dd328e5ef,7chamt4gwj,Trevor-ex1,1,129,2020-07-17T09:54:02-07:00,1.6763110160828,3,versionC_stim.csv,JOL_SIZE_VersionC.csv,"Large vs small C","Large vs small",FAMINE,HUNGER,Study1,F,40,34,Test,User,-,,Recall,Recall1,1152,,0,-1,-1,0,0,,,1
5ead5e32f32e3b3dd328e5ef,7chamt4gwj,Trevor-ex1,1,130,2020-07-17T09:54:04-07:00,1.1479430198669,3,versionC_stim.csv,JOL_SIZE_VersionC.csv,"Large vs small C","Large vs small",LATCH,KEY,Study1,F,36,45,Test,User,-,,Recall,Recall1,642,,0,-1,-1,0,0,,,1
5ead5e32f32e3b3dd328e5ef,7chamt4gwj,Trevor-ex1,1,131,2020-07-17T09:54:05-07:00,1.1621909141541,3,versionC_stim.csv,JOL_SIZE_VersionC.csv,"Large vs small C","Large vs small",DROWSY,SLEEP,Study1,F,41,25,Test,User,-,,Recall,Recall1,665,,0,-1,-1,0,0,,,1
5ead5e32f32e3b3dd328e5ef,7chamt4gwj,Trevor-ex1,1,132,2020-07-17T09:54:10-07:00,4.9147579669952,3,versionC_stim.csv,JOL_SIZE_VersionC.csv,"Large vs small C","Large vs small",WOMAN,LIFT,Study1,U,69,13,Test,User,-,,Recall,Recall1,4390,lady,25,2195,4132,0,0,,,1
5ead5e32f32e3b3dd328e5ef,7chamt4gwj,Trevor-ex1,1,133,2020-07-17T09:54:13-07:00,3.6364030838013,3,versionC_stim.csv,JOL_SIZE_VersionC.csv,"Large vs small C","Large vs small",AMOUNT,NUMBER,Study1,S,47,66,Test,User,-,,Recall,Recall1,3142,money,36.363636363636,1750,2849,0,0,,,1
5ead5e32f32e3b3dd328e5ef,7chamt4gwj,Trevor-ex1,1,134,2020-07-17T09:54:15-07:00,1.3001561164856,3,versionC_stim.csv,JOL_SIZE_VersionC.csv,"Large vs small C","Large vs small",BUSINESS,DEATH,Study1,U,72,23,Test,User,-,,Recall,Recall1,788,,0,-1,-1,0,0,,,1
5ead5e32f32e3b3dd328e5ef,7chamt4gwj,Trevor-ex1,1,135,2020-07-17T09:54:17-07:00,2.4189989566803,3,versionC_stim.csv,JOL_SIZE_VersionC.csv,"Large vs small C","Large vs small",FANTASTIC,GREAT,Study1,F,35,9,Test,User,-,,Recall,Recall1,1903,good,22.222222222222,1278,1798,0,0,,,1
5ead5e32f32e3b3dd328e5ef,7chamt4gwj,Trevor-ex1,1,136,2020-07-17T09:54:20-07:00,2.9785628318787,3,versionC_stim.csv,JOL_SIZE_VersionC.csv,"Large vs small C","Large vs small",DEFINITION,MEANING,Study1,S,62,11,Test,User,-,,Recall,Recall1,2455,,0,-1,-1,0,0,,,1
5ead5e32f32e3b3dd328e5ef,7chamt4gwj,Trevor-ex1,1,137,2020-07-17T09:54:21-07:00,1.4158091545105,3,versionC_stim.csv,JOL_SIZE_VersionC.csv,"Large vs small C","Large vs small",RACKET,BALL,Study1,F,38,26,Test,User,-,,Recall,Recall1,691,,0,-1,-1,0,0,,,1
5ead5e32f32e3b3dd328e5ef,7chamt4gwj,Trevor-ex1,1,138,2020-07-17T09:54:24-07:00,2.6730449199677,3,versionC_stim.csv,JOL_SIZE_VersionC.csv,"Large vs small C","Large vs small",STOMACH,DIGESTION,Study1,B,7,16,Test,User,-,,Recall,Recall1,1951,,0,-1,-1,0,0,,,1
5ead5e32f32e3b3dd328e5ef,7chamt4gwj,Trevor-ex1,1,139,2020-07-17T09:54:27-07:00,2.9120490550995,3,versionC_stim.csv,JOL_SIZE_VersionC.csv,"Large vs small C","Large vs small",WASTE,DUMP,Study1,S,49,69,Test,User,-,,Recall,Recall1,2311,,0,-1,-1,0,0,,,1
5ead5e32f32e3b3dd328e5ef,7chamt4gwj,Trevor-ex1,1,140,2020-07-17T09:54:28-07:00,1.4378888607025,3,versionC_stim.csv,JOL_SIZE_VersionC.csv,"Large vs small C","Large vs small",NEWS,EDITOR,Study1,B,10,86,Test,User,-,,Recall,Recall1,923,,0,-1,-1,0,0,,,1
5ead5e32f32e3b3dd328e5ef,7chamt4gwj,Trevor-ex1,1,141,2020-07-17T09:54:30-07:00,1.102765083313,3,versionC_stim.csv,JOL_SIZE_VersionC.csv,"Large vs small C","Large vs small",JURY,TRIAL,Study1,S,50,72,Test,User,-,,Recall,Recall1,623,,0,-1,-1,0,0,,,1
5ead5e32f32e3b3dd328e5ef,7chamt4gwj,Trevor-ex1,1,142,2020-07-17T09:54:36-07:00,6.2064731121063,3,versionC_stim.csv,JOL_SIZE_VersionC.csv,"Large vs small C","Large vs small",MONEY,WAGE,Study1,B,8,62,Test,User,-,,Recall,Recall1,4513,bank,25,3409,3962,0,0,,,1
5ead5e32f32e3b3dd328e5ef,7chamt4gwj,Trevor-ex1,1,143,2020-07-17T09:54:41-07:00,5.2653357982635,3,versionC_stim.csv,JOL_SIZE_VersionC.csv,"Large vs small C","Large vs small",CLEAN,HYGIENE,Study1,B,17,17,Test,User,-,,Recall,Recall1,3907,dirty,16.666666666667,1348,2148,0,0,,,1
5ead5e32f32e3b3dd328e5ef,7chamt4gwj,Trevor-ex1,1,144,2020-07-17T09:54:43-07:00,1.6481080055237,3,versionC_stim.csv,JOL_SIZE_VersionC.csv,"Large vs small C","Large vs small",FUTURE,PAST,Study1,S,61,37,Test,User,-,,Recall,Recall1,1096,,0,-1,-1,0,0,,,1
5ead5e32f32e3b3dd328e5ef,7chamt4gwj,Trevor-ex1,1,145,2020-07-17T09:54:46-07:00,3.5697410106659,3,versionC_stim.csv,JOL_SIZE_VersionC.csv,"Large vs small C","Large vs small",PILOT,PLANE,Study1,F,44,58,Test,User,-,,Recall,Recall1,3062,planr,80,2265,2868,0,1,,,1
5ead5e32f32e3b3dd328e5ef,7chamt4gwj,Trevor-ex1,1,146,2020-07-17T09:54:48-07:00,1.7493631839752,3,versionC_stim.csv,JOL_SIZE_VersionC.csv,"Large vs small C","Large vs small",TALK,DISCUSSION,Study1,B,21,67,Test,User,-,,Recall,Recall1,1245,,0,-1,-1,0,0,,,1
5ead5e32f32e3b3dd328e5ef,7chamt4gwj,Trevor-ex1,1,147,2020-07-17T09:54:50-07:00,2.0522799491882,3,versionC_stim.csv,JOL_SIZE_VersionC.csv,"Large vs small C","Large vs small",HUNGRY,PARK,Study1,U,68,39,Test,User,-,,Recall,Recall1,1521,,0,-1,-1,0,0,,,1
5ead5e32f32e3b3dd328e5ef,7chamt4gwj,Trevor-ex1,1,148,2020-07-17T09:54:54-07:00,4.1500570774078,3,versionC_stim.csv,JOL_SIZE_VersionC.csv,"Large vs small C","Large vs small",WIND,BLOW,Study1,S,55,81,Test,User,-,,Recall,Recall1,3631,breeze,20,1692,3446,0,0,,,1
5ead5e32f32e3b3dd328e5ef,7chamt4gwj,Trevor-ex1,1,149,2020-07-17T09:54:57-07:00,3.219584941864,3,versionC_stim.csv,JOL_SIZE_VersionC.csv,"Large vs small C","Large vs small",OUT,WAY,Study1,B,16,54,Test,User,-,,Recall,Recall1,2713,way,100,1877,2143,1,1,,,1
5ead5e32f32e3b3dd328e5ef,7chamt4gwj,Trevor-ex1,1,150,2020-07-17T09:54:59-07:00,1.3950810432434,3,versionC_stim.csv,JOL_SIZE_VersionC.csv,"Large vs small C","Large vs small",STENCH,SMELL,Study1,F,42,46,Test,User,-,,Recall,Recall1,869,,0,-1,-1,0,0,,,1
5ead5e32f32e3b3dd328e5ef,7chamt4gwj,Trevor-ex1,1,151,2020-07-17T09:55:00-07:00,0.97096490859985,3,versionC_stim.csv,JOL_SIZE_VersionC.csv,"Large vs small C","Large vs small",ATTORNEY,LAW,Study1,F,34,75,Test,User,-,,Recall,Recall1,473,,0,-1,-1,0,0,,,1
5ead5e32f32e3b3dd328e5ef,7chamt4gwj,Trevor-ex1,1,152,2020-07-17T09:55:03-07:00,3.5030989646912,3,versionC_stim.csv,JOL_SIZE_VersionC.csv,"Large vs small C","Large vs small",BELT,SOON,Study1,U,70,20,Test,User,-,,Recall,Recall1,2998,soon,100,2349,2774,1,1,,,1
5ead5e32f32e3b3dd328e5ef,7chamt4gwj,Trevor-ex1,1,153,2020-07-17T09:55:07-07:00,3.2410590648651,3,versionC_stim.csv,JOL_SIZE_VersionC.csv,"Large vs small C","Large vs small",BRONZE,ARTERY,Study1,U,74,33,Test,User,-,,Recall,Recall1,2702,gold,0,2100,2524,0,0,,,1
5ead5e32f32e3b3dd328e5ef,7chamt4gwj,Trevor-ex1,1,154,2020-07-17T09:55:08-07:00,1.3874349594116,3,versionC_stim.csv,JOL_SIZE_VersionC.csv,"Large vs small C","Large vs small",SIP,DRINK,Study1,F,27,43,Test,User,-,,Recall,Recall1,883,,0,-1,-1,0,0,,,1
5ead5e32f32e3b3dd328e5ef,7chamt4gwj,Trevor-ex1,1,155,2020-07-17T09:55:09-07:00,1.1774768829346,3,versionC_stim.csv,JOL_SIZE_VersionC.csv,"Large vs small C","Large vs small",STING,HORNET,Study1,B,11,59,Test,User,-,,Recall,Recall1,632,,0,-1,-1,0,0,,,1
5ead5e32f32e3b3dd328e5ef,7chamt4gwj,Trevor-ex1,1,156,2020-07-17T09:55:10-07:00,1.2187221050262,3,versionC_stim.csv,JOL_SIZE_VersionC.csv,"Large vs small C","Large vs small",TUCK,ALLOW,Study1,U,78,41,Test,User,-,,Recall,Recall1,727,,0,-1,-1,0,0,,,1
5ead5e32f32e3b3dd328e5ef,7chamt4gwj,Trevor-ex1,1,157,2020-07-17T09:55:15-07:00,4.8920791149139,3,versionC_stim.csv,JOL_SIZE_VersionC.csv,"Large vs small C","Large vs small",ROCK,GEOLOGY,Study1,B,19,8,Test,User,-,,Recall,Recall1,4409,hard,0,2525,4218,0,0,,,1
5ead5e32f32e3b3dd328e5ef,7chamt4gwj,Trevor-ex1,1,158,2020-07-17T09:55:17-07:00,2.1261398792267,3,versionC_stim.csv,JOL_SIZE_VersionC.csv,"Large vs small C","Large vs small",ASSIGNMENT,DUE,Study1,S,46,52,Test,User,-,,Recall,Recall1,1621,,0,-1,-1,0,0,,,1
5ead5e32f32e3b3dd328e5ef,7chamt4gwj,Trevor-ex1,1,159,2020-07-17T09:55:19-07:00,1.4738450050354,3,versionC_stim.csv,JOL_SIZE_VersionC.csv,"Large vs small C","Large vs small",BIRD,SWAN,Study1,B,14,61,Test,User,-,,Recall,Recall1,1001,,0,-1,-1,0,0,,,1
5ead5e32f32e3b3dd328e5ef,7chamt4gwj,Trevor-ex1,1,160,2020-07-17T09:55:20-07:00,1.5853691101074,3,versionC_stim.csv,JOL_SIZE_VersionC.csv,"Large vs small C","Large vs small",POSITION,MACHINE,Study1,U,76,85,Test,User,-,,Recall,Recall1,1108,,0,-1,-1,0,0,,,1
5ead5e32f32e3b3dd328e5ef,7chamt4gwj,Trevor-ex1,1,161,2020-07-17T09:55:23-07:00,2.8177378177643,3,versionC_stim.csv,JOL_SIZE_VersionC.csv,"Large vs small C","Large vs small",CHILD,BABY,Study1,S,64,65,Test,User,-,,Recall,Recall1,2310,baby,100,1253,1585,1,1,,,1
5ead5e32f32e3b3dd328e5ef,7chamt4gwj,Trevor-ex1,1,162,2020-07-17T09:55:27-07:00,3.6495599746704,3,versionC_stim.csv,JOL_SIZE_VersionC.csv,"Large vs small C","Large vs small",SICK,HIDE,Study1,U,84,30,Test,User,-,,Recall,Recall1,3148,cold,25,2558,2975,0,0,,,1
5ead5e32f32e3b3dd328e5ef,7chamt4gwj,Trevor-ex1,1,163,2020-07-17T09:55:31-07:00,4.3101460933685,3,versionC_stim.csv,JOL_SIZE_VersionC.csv,"Large vs small C","Large vs small",WAR,REVOLUTION,Study1,B,20,77,Test,User,-,,Recall,Recall1,3797,revolution,100,2066,3553,1,1,,,1
5ead5e32f32e3b3dd328e5ef,7chamt4gwj,Trevor-ex1,1,164,2020-07-17T09:55:33-07:00,1.5440549850464,3,versionC_stim.csv,JOL_SIZE_VersionC.csv,"Large vs small C","Large vs small",CHEESE,WINE,Study1,S,57,60,Test,User,-,,Recall,Recall1,1052,,0,-1,-1,0,0,,,1
5ead5e32f32e3b3dd328e5ef,7chamt4gwj,Trevor-ex1,1,165,2020-07-17T09:55:36-07:00,3.1550660133362,3,versionC_stim.csv,JOL_SIZE_VersionC.csv,"Large vs small C","Large vs small",BAR,GRILL,Study1,S,52,79,Test,User,-,,Recall,Recall1,2633,drink,40,1570,2287,0,0,,,1
5ead5e32f32e3b3dd328e5ef,7chamt4gwj,Trevor-ex1,1,166,2020-07-17T09:55:39-07:00,3.0582399368286,3,versionC_stim.csv,JOL_SIZE_VersionC.csv,"Large vs small C","Large vs small",GROWTH,HEIGHT,Study1,F,30,51,Test,User,-,,Recall,Recall1,2552,height,100,1389,2096,1,1,,,1
5ead5e32f32e3b3dd328e5ef,7chamt4gwj,Trevor-ex1,1,167,2020-07-17T09:55:40-07:00,1.1338851451874,3,versionC_stim.csv,JOL_SIZE_VersionC.csv,"Large vs small C","Large vs small",WASP,BUG,Study1,F,32,14,Test,User,-,,Recall,Recall1,638,,0,-1,-1,0,0,,,1
5ead5e32f32e3b3dd328e5ef,7chamt4gwj,Trevor-ex1,1,168,2020-07-17T09:55:41-07:00,0.92567205429077,3,versionC_stim.csv,JOL_SIZE_VersionC.csv,"Large vs small C","Large vs small",BLAZE,FIRE,Study1,F,45,21,Test,User,-,,Recall,Recall1,410,,0,-1,-1,0,0,,,1
5ead5e32f32e3b3dd328e5ef,7chamt4gwj,Trevor-ex1,1,169,2020-07-17T09:55:43-07:00,2.2216928005219,3,versionC_stim.csv,JOL_SIZE_VersionC.csv,"Large vs small C","Large vs small",CARD,CREDIT,Study1,B,23,57,Test,User,-,,Recall,Recall1,1646,,0,-1,-1,0,0,,,1
5ead5e32f32e3b3dd328e5ef,7chamt4gwj,Trevor-ex1,1,170,2020-07-17T09:55:44-07:00,1.2147381305695,3,versionC_stim.csv,JOL_SIZE_VersionC.csv,"Large vs small C","Large vs small",WOULD,CASH,Study1,U,83,70,Test,User,-,,Recall,Recall1,696,,0,-1,-1,0,0,,,1
5ead5e32f32e3b3dd328e5ef,7chamt4gwj,Trevor-ex1,1,171,2020-07-17T09:55:47-07:00,2.6449069976807,3,versionC_stim.csv,JOL_SIZE_VersionC.csv,"Large vs small C","Large vs small",SIGHT,DEBATE,Study1,U,73,24,Test,User,-,,Recall,Recall1,2129,see,44.444444444444,1447,1721,0,0,,,1
5ead5e32f32e3b3dd328e5ef,7chamt4gwj,Trevor-ex1,1,172,2020-07-17T09:55:52-07:00,5.1830270290375,3,versionC_stim.csv,JOL_SIZE_VersionC.csv,"Large vs small C","Large vs small",WATER,BRIDGE,Study1,B,18,12,Test,User,-,,Recall,Recall1,4676,juice,36.363636363636,3212,4480,0,0,,,1
5ead5e32f32e3b3dd328e5ef,7chamt4gwj,Trevor-ex1,1,173,2020-07-17T09:55:54-07:00,2.241917848587,3,versionC_stim.csv,JOL_SIZE_VersionC.csv,"Large vs small C","Large vs small",VASE,KING,Study1,U,85,28,Test,User,-,,Recall,Recall1,1680,,0,-1,-1,0,0,,,1
5ead5e32f32e3b3dd328e5ef,7chamt4gwj,Trevor-ex1,1,174,2020-07-17T09:55:58-07:00,3.3224160671234,3,versionC_stim.csv,JOL_SIZE_VersionC.csv,"Large vs small C","Large vs small",HAND,FIX,Study1,U,75,83,Test,User,-,,Recall,Recall1,2648,fingers,40,1654,2485,0,0,,,1
5ead5e32f32e3b3dd328e5ef,7chamt4gwj,Trevor-ex1,1,175,2020-07-17T09:56:06-07:00,7.9480080604553,3,versionC_stim.csv,JOL_SIZE_VersionC.csv,"Large vs small C","Large vs small",DIVISION,MATH,Study1,F,33,10,Test,User,-,,Recall,Recall1,7427,sub-division,0,4196,6614,0,0,,,1
5ead5e32f32e3b3dd328e5ef,7chamt4gwj,Trevor-ex1,1,176,2020-07-17T09:56:07-07:00,1.2155909538269,3,versionC_stim.csv,JOL_SIZE_VersionC.csv,"Large vs small C","Large vs small",CLUTTER,PUSHER,Study1,U,66,29,Test,User,-,,Recall,Recall1,694,,0,-1,-1,0,0,,,1
5ead5e32f32e3b3dd328e5ef,7chamt4gwj,Trevor-ex1,1,177,2020-07-17T09:56:08-07:00,1.4393119812012,3,versionC_stim.csv,JOL_SIZE_VersionC.csv,"Large vs small C","Large vs small",CHORE,WORK,Study1,F,39,73,Test,User,-,,Recall,Recall1,918,,0,-1,-1,0,0,,,1
5ead5e32f32e3b3dd328e5ef,7chamt4gwj,Trevor-ex1,1,178,2020-07-17T09:56:20-07:00,11.571854114532,3,versionC_stim.csv,JOL_SIZE_VersionC.csv,"Large vs small C","Large vs small",FISH,TUNA,Study1,B,25,78,Test,User,-,,Recall,Recall1,11067,frog,0,10306,10813,0,0,,,1
5ead5e32f32e3b3dd328e5ef,7chamt4gwj,Trevor-ex1,1,179,2020-07-17T09:56:37-07:00,17.057287931442,3,versionC_stim.csv,JOL_SIZE_VersionC.csv,"Large vs small C","Large vs small",,,,,,0,Instruct,-,10,"You will now be presented with a new set of word pairs. Please study each pair. Remember that your memory will be tested! When finished, press Enter to move to the next pair.",Initial_Instruct,Instruct4,14734,,,-1,-1,,,,,0.938
5ead5e32f32e3b3dd328e5ef,7chamt4gwj,Trevor-ex1,1,180,2020-07-17T09:56:50-07:00,12.514019012451,3,versionC_stim.csv,JOL_SIZE_VersionC.csv,"Large vs small C","Large vs small",,,,,,0,Instruct,,10,"You will again be asked to rate your ability to remember these items using a 0 to 100 scale. Remember to use the full range of the scale!",,Instruct10,12000,,,-1,-1,,,,,1
5ead5e32f32e3b3dd328e5ef,7chamt4gwj,Trevor-ex1,1,181,2020-07-17T09:56:51-07:00,1.533903837204,3,versionC_stim.csv,JOL_SIZE_VersionC.csv,"Large vs small C","Large vs small",,,,,,0,Instruct,User,-,"Press Enter when you are readty to begin",,Instruct11,1023,,,-1,-1,,,,,1
5ead5e32f32e3b3dd328e5ef,7chamt4gwj,Trevor-ex1,1,182,2020-07-17T10:18:34-07:00,1302.5736031532,3,versionC_stim.csv,JOL_SIZE_VersionC.csv,"Large vs small C","Large vs small",STRING,NOODLE,BUFFER3,Buffer,92,95,JOL_Large,User,-,"How likely are you to correctly recall the second item in the pair?|Type your response on a scale from 0-100 and then press Enter.",Study/JOL,BUFFER3,1300823,,,1299447,1299704,,,,100,0.026
5ead5e32f32e3b3dd328e5ef,7chamt4gwj,Trevor-ex1,1,183,2020-07-17T10:18:38-07:00,3.8476569652557,3,versionC_stim.csv,JOL_SIZE_VersionC.csv,"Large vs small C","Large vs small",ADVENTURE,CAMP,BUFFER3,Buffer,95,92,JOL_Small,User,-,"How likely are you to correctly recall the second item in the pair?|Type your response on a scale from 0-100 and then press Enter.",Study/JOL,BUFFER3,2648,,,2272,2457,,,,50,1
5ead5e32f32e3b3dd328e5ef,7chamt4gwj,Trevor-ex1,1,184,2020-07-17T10:18:39-07:00,1.8753139972687,3,versionC_stim.csv,JOL_SIZE_VersionC.csv,"Large vs small C","Large vs small",FISH,SHRIMP,BUFFER3,Buffer,93,94,JOL_Small,User,-,"How likely are you to correctly recall the second item in the pair?|Type your response on a scale from 0-100 and then press Enter.",Study/JOL,BUFFER3,1010,,,416,572,,,,85,1
5ead5e32f32e3b3dd328e5ef,7chamt4gwj,Trevor-ex1,1,185,2020-07-17T10:18:41-07:00,1.6164920330048,3,versionC_stim.csv,JOL_SIZE_VersionC.csv,"Large vs small C","Large vs small",FROZEN,ICE,BUFFER3,Buffer,94,93,JOL_Small,User,-,"How likely are you to correctly recall the second item in the pair?|Type your response on a scale from 0-100 and then press Enter.",Study/JOL,BUFFER3,861,,,534,653,,,,65,1
5ead5e32f32e3b3dd328e5ef,7chamt4gwj,Trevor-ex1,1,186,2020-07-17T10:18:42-07:00,1.464350938797,3,versionC_stim.csv,JOL_SIZE_VersionC.csv,"Large vs small C","Large vs small",POTATO,CARROT,BUFFER3,Buffer,91,96,JOL_Large,User,-,"How likely are you to correctly recall the second item in the pair?|Type your response on a scale from 0-100 and then press Enter.",Study/JOL,BUFFER3,922,,,532,652,,,,32,1
5ead5e32f32e3b3dd328e5ef,7chamt4gwj,Trevor-ex1,1,187,2020-07-17T10:18:44-07:00,1.2262809276581,3,versionC_stim.csv,JOL_SIZE_VersionC.csv,"Large vs small C","Large vs small",CLOTH,STRETCH,Study2,U,157,161,JOL_Small,User,-,"How likely are you to correctly recall the second item in the pair?|Type your response on a scale from 0-100 and then press Enter.",Study/JOL,"Study Phase2",719,,,431,492,,,,12,1
5ead5e32f32e3b3dd328e5ef,7chamt4gwj,Trevor-ex1,1,188,2020-07-17T10:18:45-07:00,1.1296970844269,3,versionC_stim.csv,JOL_SIZE_VersionC.csv,"Large vs small C","Large vs small",JOKE,KEYS,Study2,U,165,173,JOL_Small,User,-,"How likely are you to correctly recall the second item in the pair?|Type your response on a scale from 0-100 and then press Enter.",Study/JOL,"Study Phase2",581,,,346,483,,,,50,1
5ead5e32f32e3b3dd328e5ef,7chamt4gwj,Trevor-ex1,1,189,2020-07-17T10:18:46-07:00,1.5300340652466,3,versionC_stim.csv,JOL_SIZE_VersionC.csv,"Large vs small C","Large vs small",LONG,EXTENSION,Study2,B,96,102,JOL_Large,User,-,"How likely are you to correctly recall the second item in the pair?|Type your response on a scale from 0-100 and then press Enter.",Study/JOL,"Study Phase2",674,,,292,553,,,,100,1
5ead5e32f32e3b3dd328e5ef,7chamt4gwj,Trevor-ex1,1,190,2020-07-17T10:18:48-07:00,1.5284609794617,3,versionC_stim.csv,JOL_SIZE_VersionC.csv,"Large vs small C","Large vs small",THIMBLE,THREAD,Study2,F,121,112,JOL_Large,User,-,"How likely are you to correctly recall the second item in the pair?|Type your response on a scale from 0-100 and then press Enter.",Study/JOL,"Study Phase2",941,,,421,547,,,,85,1
5ead5e32f32e3b3dd328e5ef,7chamt4gwj,Trevor-ex1,1,191,2020-07-17T10:18:51-07:00,2.6304960250854,3,versionC_stim.csv,JOL_SIZE_VersionC.csv,"Large vs small C","Large vs small",SHAKE,SHELL,Study2,U,163,176,JOL_Small,User,-,"How likely are you to correctly recall the second item in the pair?|Type your response on a scale from 0-100 and then press Enter.",Study/JOL,"Study Phase2",2077,,,1781,1910,,,,65,1
5ead5e32f32e3b3dd328e5ef,7chamt4gwj,Trevor-ex1,1,192,2020-07-17T10:18:52-07:00,1.8588118553162,3,versionC_stim.csv,JOL_SIZE_VersionC.csv,"Large vs small C","Large vs small",SEATBELT,SAFETY,Study2,S,147,155,JOL_Small,User,-,"How likely are you to correctly recall the second item in the pair?|Type your response on a scale from 0-100 and then press Enter.",Study/JOL,"Study Phase2",1344,,,1068,1198,,,,32,1
5ead5e32f32e3b3dd328e5ef,7chamt4gwj,Trevor-ex1,1,193,2020-07-17T10:18:54-07:00,1.5602450370789,3,versionC_stim.csv,JOL_SIZE_VersionC.csv,"Large vs small C","Large vs small",WAX,CANDLE,Study2,S,139,111,JOL_Large,User,-,"How likely are you to correctly recall the second item in the pair?|Type your response on a scale from 0-100 and then press Enter.",Study/JOL,"Study Phase2",1057,,,788,912,,,,32,1
5ead5e32f32e3b3dd328e5ef,7chamt4gwj,Trevor-ex1,1,194,2020-07-17T10:18:55-07:00,1.3805651664734,3,versionC_stim.csv,JOL_SIZE_VersionC.csv,"Large vs small C","Large vs small",FLIP,TURN,Study2,F,116,120,JOL_Large,User,-,"How likely are you to correctly recall the second item in the pair?|Type your response on a scale from 0-100 and then press Enter.",Study/JOL,"Study Phase2",867,,,530,697,,,,12,1
5ead5e32f32e3b3dd328e5ef,7chamt4gwj,Trevor-ex1,1,195,2020-07-17T10:18:57-07:00,1.37007188797,3,versionC_stim.csv,JOL_SIZE_VersionC.csv,"Large vs small C","Large vs small",MYSTERY,DETECTIVE,Study2,B,100,162,JOL_Small,User,-,"How likely are you to correctly recall the second item in the pair?|Type your response on a scale from 0-100 and then press Enter.",Study/JOL,"Study Phase2",778,,,377,633,,,,100,1
5ead5e32f32e3b3dd328e5ef,7chamt4gwj,Trevor-ex1,1,196,2020-07-17T10:18:58-07:00,1.2175869941711,3,versionC_stim.csv,JOL_SIZE_VersionC.csv,"Large vs small C","Large vs small",FAVORITE,BEST,Study2,F,125,140,JOL_Small,User,-,"How likely are you to correctly recall the second item in the pair?|Type your response on a scale from 0-100 and then press Enter.",Study/JOL,"Study Phase2",683,,,406,543,,,,52,1
5ead5e32f32e3b3dd328e5ef,7chamt4gwj,Trevor-ex1,1,197,2020-07-17T10:18:59-07:00,1.1736791133881,3,versionC_stim.csv,JOL_SIZE_VersionC.csv,"Large vs small C","Large vs small",PANTHER,CAT,Study2,F,126,163,JOL_Small,User,-,"How likely are you to correctly recall the second item in the pair?|Type your response on a scale from 0-100 and then press Enter.",Study/JOL,"Study Phase2",625,,,326,428,,,,58,1
5ead5e32f32e3b3dd328e5ef,7chamt4gwj,Trevor-ex1,1,198,2020-07-17T10:19:00-07:00,1.2726039886475,3,versionC_stim.csv,JOL_SIZE_VersionC.csv,"Large vs small C","Large vs small",TRUTHFUL,HONEST,Study2,F,133,115,JOL_Large,User,-,"How likely are you to correctly recall the second item in the pair?|Type your response on a scale from 0-100 and then press Enter.",Study/JOL,"Study Phase2",647,,,276,512,,,,100,1
5ead5e32f32e3b3dd328e5ef,7chamt4gwj,Trevor-ex1,1,199,2020-07-17T10:19:01-07:00,0.51768589019775,3,versionC_stim.csv,JOL_SIZE_VersionC.csv,"Large vs small C","Large vs small",STEAK,GIVE,Study2,U,158,156,JOL_Small,User,-,"How likely are you to correctly recall the second item in the pair?|Type your response on a scale from 0-100 and then press Enter.",Study/JOL,"Study Phase2",27,,,-1,-1,,,,,1
5ead5e32f32e3b3dd328e5ef,7chamt4gwj,Trevor-ex1,1,200,2020-07-17T10:19:03-07:00,1.7716670036316,3,versionC_stim.csv,JOL_SIZE_VersionC.csv,"Large vs small C","Large vs small",DRINK,WATER,Study2,S,143,171,JOL_Small,User,-,"How likely are you to correctly recall the second item in the pair?|Type your response on a scale from 0-100 and then press Enter.",Study/JOL,"Study Phase2",1216,,,942,1061,,,,65,1
5ead5e32f32e3b3dd328e5ef,7chamt4gwj,Trevor-ex1,1,201,2020-07-17T10:19:04-07:00,1.7969250679016,3,versionC_stim.csv,JOL_SIZE_VersionC.csv,"Large vs small C","Large vs small",HEAD,SCALP,Study2,B,105,145,JOL_Small,User,-,"How likely are you to correctly recall the second item in the pair?|Type your response on a scale from 0-100 and then press Enter.",Study/JOL,"Study Phase2",1274,,,993,1107,,,,65,1
5ead5e32f32e3b3dd328e5ef,7chamt4gwj,Trevor-ex1,1,202,2020-07-17T10:19:06-07:00,1.1591420173645,3,versionC_stim.csv,JOL_SIZE_VersionC.csv,"Large vs small C","Large vs small",BREAKABLE,GLASS,Study2,F,127,175,JOL_Small,User,-,"How likely are you to correctly recall the second item in the pair?|Type your response on a scale from 0-100 and then press Enter.",Study/JOL,"Study Phase2",658,,,397,516,,,,32,1
5ead5e32f32e3b3dd328e5ef,7chamt4gwj,Trevor-ex1,1,203,2020-07-17T10:19:07-07:00,1.1308670043945,3,versionC_stim.csv,JOL_SIZE_VersionC.csv,"Large vs small C","Large vs small",BRAWL,FIGHT,Study2,F,135,100,JOL_Large,User,-,"How likely are you to correctly recall the second item in the pair?|Type your response on a scale from 0-100 and then press Enter.",Study/JOL,"Study Phase2",625,,,327,447,,,,85,1
5ead5e32f32e3b3dd328e5ef,7chamt4gwj,Trevor-ex1,1,204,2020-07-17T10:19:08-07:00,1.4870150089264,3,versionC_stim.csv,JOL_SIZE_VersionC.csv,"Large vs small C","Large vs small",HATE,NAME,Study2,U,167,165,JOL_Small,User,-,"How likely are you to correctly recall the second item in the pair?|Type your response on a scale from 0-100 and then press Enter.",Study/JOL,"Study Phase2",935,,,271,548,,,,100,1
5ead5e32f32e3b3dd328e5ef,7chamt4gwj,Trevor-ex1,1,205,2020-07-17T10:19:09-07:00,1.1641688346863,3,versionC_stim.csv,JOL_SIZE_VersionC.csv,"Large vs small C","Large vs small",BRACELET,WRIST,Study2,S,140,150,JOL_Small,User,-,"How likely are you to correctly recall the second item in the pair?|Type your response on a scale from 0-100 and then press Enter.",Study/JOL,"Study Phase2",662,,,365,486,,,,65,1
5ead5e32f32e3b3dd328e5ef,7chamt4gwj,Trevor-ex1,1,206,2020-07-17T10:19:11-07:00,1.168004989624,3,versionC_stim.csv,JOL_SIZE_VersionC.csv,"Large vs small C","Large vs small",END,ADJOURN,Study2,B,101,152,JOL_Small,User,-,"How likely are you to correctly recall the second item in the pair?|Type your response on a scale from 0-100 and then press Enter.",Study/JOL,"Study Phase2",666,,,317,446,,,,98,1
5ead5e32f32e3b3dd328e5ef,7chamt4gwj,Trevor-ex1,1,207,2020-07-17T10:19:12-07:00,1.2413861751556,3,versionC_stim.csv,JOL_SIZE_VersionC.csv,"Large vs small C","Large vs small",CAR,DRIVER,Study2,B,106,110,JOL_Large,User,-,"How likely are you to correctly recall the second item in the pair?|Type your response on a scale from 0-100 and then press Enter.",Study/JOL,"Study Phase2",743,,,355,511,,,,99,1
5ead5e32f32e3b3dd328e5ef,7chamt4gwj,Trevor-ex1,1,208,2020-07-17T10:19:13-07:00,1.2113559246063,3,versionC_stim.csv,JOL_SIZE_VersionC.csv,"Large vs small C","Large vs small",CUT,CHOP,Study2,B,107,113,JOL_Large,User,-,"How likely are you to correctly recall the second item in the pair?|Type your response on a scale from 0-100 and then press Enter.",Study/JOL,"Study Phase2",701,,,415,676,,,,100,1
5ead5e32f32e3b3dd328e5ef,7chamt4gwj,Trevor-ex1,1,209,2020-07-17T10:19:14-07:00,1.1847701072693,3,versionC_stim.csv,JOL_SIZE_VersionC.csv,"Large vs small C","Large vs small",REEL,ROD,Study2,S,150,136,JOL_Large,User,-,"How likely are you to correctly recall the second item in the pair?|Type your response on a scale from 0-100 and then press Enter.",Study/JOL,"Study Phase2",650,,,347,404,,,,23,1
5ead5e32f32e3b3dd328e5ef,7chamt4gwj,Trevor-ex1,1,210,2020-07-17T10:19:16-07:00,2.2551620006561,3,versionC_stim.csv,JOL_SIZE_VersionC.csv,"Large vs small C","Large vs small",OBTAIN,MEAT,Study2,U,161,127,JOL_Large,User,-,"How likely are you to correctly recall the second item in the pair?|Type your response on a scale from 0-100 and then press Enter.",Study/JOL,"Study Phase2",1617,,,1302,1416,,,,65,1
5ead5e32f32e3b3dd328e5ef,7chamt4gwj,Trevor-ex1,1,211,2020-07-17T10:19:50-07:00,33.375498771667,3,versionC_stim.csv,JOL_SIZE_VersionC.csv,"Large vs small C","Large vs small",SARDINE,FISH,Study2,F,130,107,JOL_Large,User,-,"How likely are you to correctly recall the second item in the pair?|Type your response on a scale from 0-100 and then press Enter.",Study/JOL,"Study Phase2",11147,,,10499,10672,,,,20,1
5ead5e32f32e3b3dd328e5ef,7chamt4gwj,Trevor-ex1,1,212,2020-07-17T10:19:56-07:00,5.8944640159607,3,versionC_stim.csv,JOL_SIZE_VersionC.csv,"Large vs small C","Large vs small",PENGUIN,BIRD,Study2,F,119,105,JOL_Large,User,-,"How likely are you to correctly recall the second item in the pair?|Type your response on a scale from 0-100 and then press Enter.",Study/JOL,"Study Phase2",5107,,,4467,4602,,,,45,0.692
5ead5e32f32e3b3dd328e5ef,7chamt4gwj,Trevor-ex1,1,213,2020-07-17T10:19:58-07:00,1.8836531639099,3,versionC_stim.csv,JOL_SIZE_VersionC.csv,"Large vs small C","Large vs small",EAT,DINE,Study2,B,111,114,JOL_Large,User,-,"How likely are you to correctly recall the second item in the pair?|Type your response on a scale from 0-100 and then press Enter.",Study/JOL,"Study Phase2",1312,,,981,1062,,,,20,1
5ead5e32f32e3b3dd328e5ef,7chamt4gwj,Trevor-ex1,1,214,2020-07-17T10:19:59-07:00,1.1758818626404,3,versionC_stim.csv,JOL_SIZE_VersionC.csv,"Large vs small C","Large vs small",TEMPER,TANTRUM,Study2,S,154,154,JOL_Small,User,-,"How likely are you to correctly recall the second item in the pair?|Type your response on a scale from 0-100 and then press Enter.",Study/JOL,"Study Phase2",615,,,346,427,,,,32,1
5ead5e32f32e3b3dd328e5ef,7chamt4gwj,Trevor-ex1,1,215,2020-07-17T10:20:00-07:00,1.1461839675903,3,versionC_stim.csv,JOL_SIZE_VersionC.csv,"Large vs small C","Large vs small",SCAR,MAIN,Study2,U,175,108,JOL_Large,User,-,"How likely are you to correctly recall the second item in the pair?|Type your response on a scale from 0-100 and then press Enter.",Study/JOL,"Study Phase2",599,,,249,397,,,,65,1
5ead5e32f32e3b3dd328e5ef,7chamt4gwj,Trevor-ex1,1,216,2020-07-17T10:20:01-07:00,1.276269197464,3,versionC_stim.csv,JOL_SIZE_VersionC.csv,"Large vs small C","Large vs small",NOISE,LOUD,Study2,S,152,97,JOL_Large,User,-,"How likely are you to correctly recall the second item in the pair?|Type your response on a scale from 0-100 and then press Enter.",Study/JOL,"Study Phase2",744,,,275,280,,,,85,1
5ead5e32f32e3b3dd328e5ef,7chamt4gwj,Trevor-ex1,1,217,2020-07-17T10:20:03-07:00,1.3842899799347,3,versionC_stim.csv,JOL_SIZE_VersionC.csv,"Large vs small C","Large vs small",GROUND,EARTH,Study2,S,144,160,JOL_Small,User,-,"How likely are you to correctly recall the second item in the pair?|Type your response on a scale from 0-100 and then press Enter.",Study/JOL,"Study Phase2",747,,,336,470,,,,58,1
5ead5e32f32e3b3dd328e5ef,7chamt4gwj,Trevor-ex1,1,218,2020-07-17T10:20:04-07:00,1.2767720222473,3,versionC_stim.csv,JOL_SIZE_VersionC.csv,"Large vs small C","Large vs small",REVENGE,EVEN,Study2,F,122,123,JOL_Large,User,-,"How likely are you to correctly recall the second item in the pair?|Type your response on a scale from 0-100 and then press Enter.",Study/JOL,"Study Phase2",640,,,272,335,,,,20,1
5ead5e32f32e3b3dd328e5ef,7chamt4gwj,Trevor-ex1,1,219,2020-07-17T10:20:05-07:00,1.1246838569641,3,versionC_stim.csv,JOL_SIZE_VersionC.csv,"Large vs small C","Large vs small",ACTRESS,STAR,Study2,F,120,128,JOL_Large,User,-,"How likely are you to correctly recall the second item in the pair?|Type your response on a scale from 0-100 and then press Enter.",Study/JOL,"Study Phase2",544,,,200,290,,,,12,1
5ead5e32f32e3b3dd328e5ef,7chamt4gwj,Trevor-ex1,1,220,2020-07-17T10:20:06-07:00,1.2555949687958,3,versionC_stim.csv,JOL_SIZE_VersionC.csv,"Large vs small C","Large vs small",OUNCE,BOTH,Study2,U,172,119,JOL_Large,User,-,"How likely are you to correctly recall the second item in the pair?|Type your response on a scale from 0-100 and then press Enter.",Study/JOL,"Study Phase2",623,,,229,370,,,,32,1
5ead5e32f32e3b3dd328e5ef,7chamt4gwj,Trevor-ex1,1,221,2020-07-17T10:20:08-07:00,1.3935451507568,3,versionC_stim.csv,JOL_SIZE_VersionC.csv,"Large vs small C","Large vs small",SHAVE,RAZOR,Study2,S,136,99,JOL_Large,User,-,"How likely are you to correctly recall the second item in the pair?|Type your response on a scale from 0-100 and then press Enter.",Study/JOL,"Study Phase2",828,,,411,597,,,,45,1
5ead5e32f32e3b3dd328e5ef,7chamt4gwj,Trevor-ex1,1,222,2020-07-17T10:20:09-07:00,1.2103610038757,3,versionC_stim.csv,JOL_SIZE_VersionC.csv,"Large vs small C","Large vs small",JAR,MASON,Study2,S,138,146,JOL_Small,User,-,"How likely are you to correctly recall the second item in the pair?|Type your response on a scale from 0-100 and then press Enter.",Study/JOL,"Study Phase2",610,,,274,430,,,,65,1
5ead5e32f32e3b3dd328e5ef,7chamt4gwj,Trevor-ex1,1,223,2020-07-17T10:20:10-07:00,1.122211933136,3,versionC_stim.csv,JOL_SIZE_VersionC.csv,"Large vs small C","Large vs small",DOG,FURRY,Study2,B,102,98,JOL_Large,User,-,"How likely are you to correctly recall the second item in the pair?|Type your response on a scale from 0-100 and then press Enter.",Study/JOL,"Study Phase2",556,,,232,370,,,,85,1
5ead5e32f32e3b3dd328e5ef,7chamt4gwj,Trevor-ex1,1,224,2020-07-17T10:20:11-07:00,1.1821050643921,3,versionC_stim.csv,JOL_SIZE_VersionC.csv,"Large vs small C","Large vs small",BANKER,MONEY,Study2,F,132,167,JOL_Small,User,-,"How likely are you to correctly recall the second item in the pair?|Type your response on a scale from 0-100 and then press Enter.",Study/JOL,"Study Phase2",639,,,310,459,,,,96,1
5ead5e32f32e3b3dd328e5ef,7chamt4gwj,Trevor-ex1,1,225,2020-07-17T10:20:16-07:00,5.2041509151459,3,versionC_stim.csv,JOL_SIZE_VersionC.csv,"Large vs small C","Large vs small",TIE,SHOELACE,Study2,B,99,172,JOL_Small,User,-,"How likely are you to correctly recall the second item in the pair?|Type your response on a scale from 0-100 and then press Enter.",Study/JOL,"Study Phase2",4412,,,3763,3891,,,,54,1
5ead5e32f32e3b3dd328e5ef,7chamt4gwj,Trevor-ex1,1,226,2020-07-17T10:20:18-07:00,1.307296037674,3,versionC_stim.csv,JOL_SIZE_VersionC.csv,"Large vs small C","Large vs small",FIGHT,FEUD,Study2,B,113,141,JOL_Small,User,-,"How likely are you to correctly recall the second item in the pair?|Type your response on a scale from 0-100 and then press Enter.",Study/JOL,"Study Phase2",714,,,282,368,,,,85,1
5ead5e32f32e3b3dd328e5ef,7chamt4gwj,Trevor-ex1,1,227,2020-07-17T10:20:20-07:00,2.0655019283295,3,versionC_stim.csv,JOL_SIZE_VersionC.csv,"Large vs small C","Large vs small",TRASH,LITTER,Study2,B,103,144,JOL_Small,User,-,"How likely are you to correctly recall the second item in the pair?|Type your response on a scale from 0-100 and then press Enter.",Study/JOL,"Study Phase2",492,,,220,272,,,,25,1
5ead5e32f32e3b3dd328e5ef,7chamt4gwj,Trevor-ex1,1,228,2020-07-17T10:20:26-07:00,5.8077480792999,3,versionC_stim.csv,JOL_SIZE_VersionC.csv,"Large vs small C","Large vs small",CHILDREN,MIRROR,Study2,U,174,122,JOL_Large,User,-,"How likely are you to correctly recall the second item in the pair?|Type your response on a scale from 0-100 and then press Enter.",Study/JOL,"Study Phase2",5229,,,4142,4812,,,,32,1
5ead5e32f32e3b3dd328e5ef,7chamt4gwj,Trevor-ex1,1,229,2020-07-17T10:20:30-07:00,4.191074848175,3,versionC_stim.csv,JOL_SIZE_VersionC.csv,"Large vs small C","Large vs small",ELECTION,MAZE,Study2,U,159,138,JOL_Small,User,-,"How likely are you to correctly recall the second item in the pair?|Type your response on a scale from 0-100 and then press Enter.",Study/JOL,"Study Phase2",3642,,,3315,3448,,,,20,1
5ead5e32f32e3b3dd328e5ef,7chamt4gwj,Trevor-ex1,1,230,2020-07-17T10:20:31-07:00,1.2698111534119,3,versionC_stim.csv,JOL_SIZE_VersionC.csv,"Large vs small C","Large vs small",GAME,CLUE,Study2,B,97,137,JOL_Small,User,-,"How likely are you to correctly recall the second item in the pair?|Type your response on a scale from 0-100 and then press Enter.",Study/JOL,"Study Phase2",738,,,405,554,,,,85,1
5ead5e32f32e3b3dd328e5ef,7chamt4gwj,Trevor-ex1,1,231,2020-07-17T10:20:32-07:00,1.485631942749,3,versionC_stim.csv,JOL_SIZE_VersionC.csv,"Large vs small C","Large vs small",TAN,SUN,Study2,S,155,132,JOL_Large,User,-,"How likely are you to correctly recall the second item in the pair?|Type your response on a scale from 0-100 and then press Enter.",Study/JOL,"Study Phase2",973,,,459,622,,,,74,1
5ead5e32f32e3b3dd328e5ef,7chamt4gwj,Trevor-ex1,1,232,2020-07-17T10:20:35-07:00,2.3593080043793,3,versionC_stim.csv,JOL_SIZE_VersionC.csv,"Large vs small C","Large vs small",EQUAL,RIGHTS,Study2,S,137,148,JOL_Small,User,-,"How likely are you to correctly recall the second item in the pair?|Type your response on a scale from 0-100 and then press Enter.",Study/JOL,"Study Phase2",1860,,,1363,1548,,,,10,1
5ead5e32f32e3b3dd328e5ef,7chamt4gwj,Trevor-ex1,1,233,2020-07-17T10:20:38-07:00,3.1215970516205,3,versionC_stim.csv,JOL_SIZE_VersionC.csv,"Large vs small C","Large vs small",LONELY,ALONE,Study2,S,145,168,JOL_Small,User,-,"How likely are you to correctly recall the second item in the pair?|Type your response on a scale from 0-100 and then press Enter.",Study/JOL,"Study Phase2",2612,,,1294,1646,,,,100,1
5ead5e32f32e3b3dd328e5ef,7chamt4gwj,Trevor-ex1,1,234,2020-07-17T10:20:42-07:00,3.7844228744507,3,versionC_stim.csv,JOL_SIZE_VersionC.csv,"Large vs small C","Large vs small",COMMUNICATION,PHONE,Study2,S,149,142,JOL_Small,User,-,"How likely are you to correctly recall the second item in the pair?|Type your response on a scale from 0-100 and then press Enter.",Study/JOL,"Study Phase2",3261,,,2884,3043,,,,12,1
5ead5e32f32e3b3dd328e5ef,7chamt4gwj,Trevor-ex1,1,235,2020-07-17T10:20:43-07:00,1.2297101020813,3,versionC_stim.csv,JOL_SIZE_VersionC.csv,"Large vs small C","Large vs small",TOIL,LEASE,Study2,U,170,125,JOL_Large,User,-,"How likely are you to correctly recall the second item in the pair?|Type your response on a scale from 0-100 and then press Enter.",Study/JOL,"Study Phase2",696,,,340,501,,,,32,1
5ead5e32f32e3b3dd328e5ef,7chamt4gwj,Trevor-ex1,1,236,2020-07-17T10:20:47-07:00,3.6930239200592,3,versionC_stim.csv,JOL_SIZE_VersionC.csv,"Large vs small C","Large vs small",COLD,CHILL,Study2,B,114,158,JOL_Small,User,-,"How likely are you to correctly recall the second item in the pair?|Type your response on a scale from 0-100 and then press Enter.",Study/JOL,"Study Phase2",3173,,,441,2973,,,,50,1
5ead5e32f32e3b3dd328e5ef,7chamt4gwj,Trevor-ex1,1,237,2020-07-17T10:20:49-07:00,2.0375599861145,3,versionC_stim.csv,JOL_SIZE_VersionC.csv,"Large vs small C","Large vs small",CLEAR,MOAT,Study2,U,169,130,JOL_Large,User,-,"How likely are you to correctly recall the second item in the pair?|Type your response on a scale from 0-100 and then press Enter.",Study/JOL,"Study Phase2",1476,,,1203,1271,,,,52,1
5ead5e32f32e3b3dd328e5ef,7chamt4gwj,Trevor-ex1,1,238,2020-07-17T10:20:50-07:00,1.6517381668091,3,versionC_stim.csv,JOL_SIZE_VersionC.csv,"Large vs small C","Large vs small",AWAY,GONE,Study2,S,142,129,JOL_Large,User,-,"How likely are you to correctly recall the second item in the pair?|Type your response on a scale from 0-100 and then press Enter.",Study/JOL,"Study Phase2",1126,,,877,947,,,,52,1
5ead5e32f32e3b3dd328e5ef,7chamt4gwj,Trevor-ex1,1,239,2020-07-17T10:20:52-07:00,2.0651879310608,3,versionC_stim.csv,JOL_SIZE_VersionC.csv,"Large vs small C","Large vs small",WINDSHIELD,CAR,Study2,F,117,133,JOL_Large,User,-,"How likely are you to correctly recall the second item in the pair?|Type your response on a scale from 0-100 and then press Enter.",Study/JOL,"Study Phase2",1509,,,1256,1304,,,,20,1
5ead5e32f32e3b3dd328e5ef,7chamt4gwj,Trevor-ex1,1,240,2020-07-17T10:21:01-07:00,8.5108959674835,3,versionC_stim.csv,JOL_SIZE_VersionC.csv,"Large vs small C","Large vs small",CLOTHES,CAKE,Study2,U,166,164,JOL_Small,User,-,"How likely are you to correctly recall the second item in the pair?|Type your response on a scale from 0-100 and then press Enter.",Study/JOL,"Study Phase2",7852,,,7551,7680,,,,10,1
5ead5e32f32e3b3dd328e5ef,7chamt4gwj,Trevor-ex1,1,241,2020-07-17T10:21:04-07:00,2.9716289043427,3,versionC_stim.csv,JOL_SIZE_VersionC.csv,"Large vs small C","Large vs small",STRAWBERRY,FRUIT,Study2,F,124,103,JOL_Large,User,-,"How likely are you to correctly recall the second item in the pair?|Type your response on a scale from 0-100 and then press Enter.",Study/JOL,"Study Phase2",1881,,,1574,1686,,,,32,1
5ead5e32f32e3b3dd328e5ef,7chamt4gwj,Trevor-ex1,1,242,2020-07-17T10:21:06-07:00,2.2200591564178,3,versionC_stim.csv,JOL_SIZE_VersionC.csv,"Large vs small C","Large vs small",RED,CHERRY,Study2,B,104,118,JOL_Large,User,-,"How likely are you to correctly recall the second item in the pair?|Type your response on a scale from 0-100 and then press Enter.",Study/JOL,"Study Phase2",1649,,,1392,1495,,,,32,1
5ead5e32f32e3b3dd328e5ef,7chamt4gwj,Trevor-ex1,1,243,2020-07-17T10:21:08-07:00,1.9105608463287,3,versionC_stim.csv,JOL_SIZE_VersionC.csv,"Large vs small C","Large vs small",WET,DRY,Study2,S,146,121,JOL_Large,User,-,"How likely are you to correctly recall the second item in the pair?|Type your response on a scale from 0-100 and then press Enter.",Study/JOL,"Study Phase2",1396,,,911,1223,,,,100,1
5ead5e32f32e3b3dd328e5ef,7chamt4gwj,Trevor-ex1,1,244,2020-07-17T10:21:10-07:00,2.3316121101379,3,versionC_stim.csv,JOL_SIZE_VersionC.csv,"Large vs small C","Large vs small",AIRCRAFT,PLANE,Study2,F,129,169,JOL_Small,User,-,"How likely are you to correctly recall the second item in the pair?|Type your response on a scale from 0-100 and then press Enter.",Study/JOL,"Study Phase2",1759,,,1316,1563,,,,100,1
5ead5e32f32e3b3dd328e5ef,7chamt4gwj,Trevor-ex1,1,245,2020-07-17T10:21:17-07:00,6.3621459007263,3,versionC_stim.csv,JOL_SIZE_VersionC.csv,"Large vs small C","Large vs small",LEAGUE,BASEBALL,Study2,F,131,139,JOL_Small,User,-,"How likely are you to correctly recall the second item in the pair?|Type your response on a scale from 0-100 and then press Enter.",Study/JOL,"Study Phase2",4868,,,1549,4312,,,,100,1
5ead5e32f32e3b3dd328e5ef,7chamt4gwj,Trevor-ex1,1,246,2020-07-17T10:21:20-07:00,3.2812311649323,3,versionC_stim.csv,JOL_SIZE_VersionC.csv,"Large vs small C","Large vs small",MAROON,JUSTICE,Study2,U,156,126,JOL_Large,User,-,"How likely are you to correctly recall the second item in the pair?|Type your response on a scale from 0-100 and then press Enter.",Study/JOL,"Study Phase2",2515,,,2149,2279,,,,52,1
5ead5e32f32e3b3dd328e5ef,7chamt4gwj,Trevor-ex1,1,247,2020-07-17T10:21:23-07:00,3.0310349464417,3,versionC_stim.csv,JOL_SIZE_VersionC.csv,"Large vs small C","Large vs small",NAP,SLEEP,Study2,F,134,147,JOL_Small,User,-,"How likely are you to correctly recall the second item in the pair?|Type your response on a scale from 0-100 and then press Enter.",Study/JOL,"Study Phase2",2499,,,1790,1939,,,,32,1
5ead5e32f32e3b3dd328e5ef,7chamt4gwj,Trevor-ex1,1,248,2020-07-17T10:21:24-07:00,1.2012069225311,3,versionC_stim.csv,JOL_SIZE_VersionC.csv,"Large vs small C","Large vs small",VILLAIN,BAD,Study2,F,118,170,JOL_Small,User,-,"How likely are you to correctly recall the second item in the pair?|Type your response on a scale from 0-100 and then press Enter.",Study/JOL,"Study Phase2",660,,,324,456,,,,65,1
5ead5e32f32e3b3dd328e5ef,7chamt4gwj,Trevor-ex1,1,249,2020-07-17T10:21:26-07:00,1.2887980937958,3,versionC_stim.csv,JOL_SIZE_VersionC.csv,"Large vs small C","Large vs small",PLANT,CACTUS,Study2,B,98,166,JOL_Small,User,-,"How likely are you to correctly recall the second item in the pair?|Type your response on a scale from 0-100 and then press Enter.",Study/JOL,"Study Phase2",738,,,383,531,,,,85,1
5ead5e32f32e3b3dd328e5ef,7chamt4gwj,Trevor-ex1,1,250,2020-07-17T10:21:27-07:00,1.3852798938751,3,versionC_stim.csv,JOL_SIZE_VersionC.csv,"Large vs small C","Large vs small",FICTION,LISTEN,Study2,U,164,116,JOL_Large,User,-,"How likely are you to correctly recall the second item in the pair?|Type your response on a scale from 0-100 and then press Enter.",Study/JOL,"Study Phase2",835,,,400,549,,,,98,1
5ead5e32f32e3b3dd328e5ef,7chamt4gwj,Trevor-ex1,1,251,2020-07-17T10:21:29-07:00,2.0559630393982,3,versionC_stim.csv,JOL_SIZE_VersionC.csv,"Large vs small C","Large vs small",CARBON,ELEMENT,Study2,S,141,157,JOL_Small,User,-,"How likely are you to correctly recall the second item in the pair?|Type your response on a scale from 0-100 and then press Enter.",Study/JOL,"Study Phase2",1151,,,463,633,,,,74,1
5ead5e32f32e3b3dd328e5ef,7chamt4gwj,Trevor-ex1,1,252,2020-07-17T10:21:30-07:00,1.1397480964661,3,versionC_stim.csv,JOL_SIZE_VersionC.csv,"Large vs small C","Large vs small",SIGN,LOAN,Study2,U,171,151,JOL_Small,User,-,"How likely are you to correctly recall the second item in the pair?|Type your response on a scale from 0-100 and then press Enter.",Study/JOL,"Study Phase2",621,,,269,437,,,,53,1
5ead5e32f32e3b3dd328e5ef,7chamt4gwj,Trevor-ex1,1,253,2020-07-17T10:21:31-07:00,1.1634719371796,3,versionC_stim.csv,JOL_SIZE_VersionC.csv,"Large vs small C","Large vs small",COFFIN,DEAD,Study2,F,128,131,JOL_Large,User,-,"How likely are you to correctly recall the second item in the pair?|Type your response on a scale from 0-100 and then press Enter.",Study/JOL,"Study Phase2",670,,,265,447,,,,65,1
5ead5e32f32e3b3dd328e5ef,7chamt4gwj,Trevor-ex1,1,254,2020-07-17T10:21:33-07:00,2.0974230766296,3,versionC_stim.csv,JOL_SIZE_VersionC.csv,"Large vs small C","Large vs small",TICK,FLEA,Study2,S,151,135,JOL_Large,User,-,"How likely are you to correctly recall the second item in the pair?|Type your response on a scale from 0-100 and then press Enter.",Study/JOL,"Study Phase2",1592,,,692,1090,,,,85,1
5ead5e32f32e3b3dd328e5ef,7chamt4gwj,Trevor-ex1,1,255,2020-07-17T10:21:35-07:00,1.2318029403687,3,versionC_stim.csv,JOL_SIZE_VersionC.csv,"Large vs small C","Large vs small",BALLOON,POP,Study2,F,123,143,JOL_Small,User,-,"How likely are you to correctly recall the second item in the pair?|Type your response on a scale from 0-100 and then press Enter.",Study/JOL,"Study Phase2",680,,,305,494,,,,42,1
5ead5e32f32e3b3dd328e5ef,7chamt4gwj,Trevor-ex1,1,256,2020-07-17T10:21:36-07:00,1.1315429210663,3,versionC_stim.csv,JOL_SIZE_VersionC.csv,"Large vs small C","Large vs small",LIE,TRUTH,Study2,S,148,153,JOL_Small,User,-,"How likely are you to correctly recall the second item in the pair?|Type your response on a scale from 0-100 and then press Enter.",Study/JOL,"Study Phase2",625,,,267,620,,,,133,1
5ead5e32f32e3b3dd328e5ef,7chamt4gwj,Trevor-ex1,1,257,2020-07-17T10:21:37-07:00,1.1379930973053,3,versionC_stim.csv,JOL_SIZE_VersionC.csv,"Large vs small C","Large vs small",SMELL,INCENSE,Study2,B,110,134,JOL_Large,User,-,"How likely are you to correctly recall the second item in the pair?|Type your response on a scale from 0-100 and then press Enter.",Study/JOL,"Study Phase2",636,,,308,451,,,,32,1
5ead5e32f32e3b3dd328e5ef,7chamt4gwj,Trevor-ex1,1,258,2020-07-17T10:21:38-07:00,1.5037178993225,3,versionC_stim.csv,JOL_SIZE_VersionC.csv,"Large vs small C","Large vs small",HAVE,OWN,Study2,S,153,124,JOL_Large,User,-,"How likely are you to correctly recall the second item in the pair?|Type your response on a scale from 0-100 and then press Enter.",Study/JOL,"Study Phase2",981,,,556,719,,,,656,1
5ead5e32f32e3b3dd328e5ef,7chamt4gwj,Trevor-ex1,1,259,2020-07-17T10:21:40-07:00,1.7430460453033,3,versionC_stim.csv,JOL_SIZE_VersionC.csv,"Large vs small C","Large vs small",CHARM,VEHICLE,Study2,U,160,104,JOL_Large,User,-,"How likely are you to correctly recall the second item in the pair?|Type your response on a scale from 0-100 and then press Enter.",Study/JOL,"Study Phase2",1250,,,792,1066,,,,100,1
5ead5e32f32e3b3dd328e5ef,7chamt4gwj,Trevor-ex1,1,260,2020-07-17T10:21:44-07:00,4.199844121933,3,versionC_stim.csv,JOL_SIZE_VersionC.csv,"Large vs small C","Large vs small",SCISSORS,SHEARS,Study2,B,112,159,JOL_Small,User,-,"How likely are you to correctly recall the second item in the pair?|Type your response on a scale from 0-100 and then press Enter.",Study/JOL,"Study Phase2",3681,,,1528,1853,,,,50,1
5ead5e32f32e3b3dd328e5ef,7chamt4gwj,Trevor-ex1,1,261,2020-07-17T10:21:48-07:00,3.7587850093842,3,versionC_stim.csv,JOL_SIZE_VersionC.csv,"Large vs small C","Large vs small",DONKEY,MULE,Study2,B,108,101,JOL_Large,User,-,"How likely are you to correctly recall the second item in the pair?|Type your response on a scale from 0-100 and then press Enter.",Study/JOL,"Study Phase2",3261,,,2543,2734,,,,45,1
5ead5e32f32e3b3dd328e5ef,7chamt4gwj,Trevor-ex1,1,262,2020-07-17T10:21:51-07:00,3.1253378391266,3,versionC_stim.csv,JOL_SIZE_VersionC.csv,"Large vs small C","Large vs small",LOVE,AFFECTION,Study2,B,115,117,JOL_Large,User,-,"How likely are you to correctly recall the second item in the pair?|Type your response on a scale from 0-100 and then press Enter.",Study/JOL,"Study Phase2",2617,,,1780,1978,,,,42,1
5ead5e32f32e3b3dd328e5ef,7chamt4gwj,Trevor-ex1,1,263,2020-07-17T10:21:54-07:00,2.448254108429,3,versionC_stim.csv,JOL_SIZE_VersionC.csv,"Large vs small C","Large vs small",ABLE,CRACKLE,Study2,U,162,106,JOL_Large,User,-,"How likely are you to correctly recall the second item in the pair?|Type your response on a scale from 0-100 and then press Enter.",Study/JOL,"Study Phase2",1929,,,1489,1638,,,,12,1
5ead5e32f32e3b3dd328e5ef,7chamt4gwj,Trevor-ex1,1,264,2020-07-17T10:21:56-07:00,2.1332998275757,3,versionC_stim.csv,JOL_SIZE_VersionC.csv,"Large vs small C","Large vs small",MORNING,TEMPERATURE,Study2,U,173,149,JOL_Small,User,-,"How likely are you to correctly recall the second item in the pair?|Type your response on a scale from 0-100 and then press Enter.",Study/JOL,"Study Phase2",1629,,,1329,1419,,,,85,1
5ead5e32f32e3b3dd328e5ef,7chamt4gwj,Trevor-ex1,1,265,2020-07-17T10:21:58-07:00,2.0154452323914,3,versionC_stim.csv,JOL_SIZE_VersionC.csv,"Large vs small C","Large vs small",BANG,FUZZY,Study2,U,168,174,JOL_Small,User,-,"How likely are you to correctly recall the second item in the pair?|Type your response on a scale from 0-100 and then press Enter.",Study/JOL,"Study Phase2",1502,,,1177,1310,,,,85,1
5ead5e32f32e3b3dd328e5ef,7chamt4gwj,Trevor-ex1,1,266,2020-07-17T10:22:00-07:00,2.0392479896545,3,versionC_stim.csv,JOL_SIZE_VersionC.csv,"Large vs small C","Large vs small",PAPER,DOCUMENT,Study2,B,109,109,JOL_Large,User,-,"How likely are you to correctly recall the second item in the pair?|Type your response on a scale from 0-100 and then press Enter.",Study/JOL,"Study Phase2",1479,,,1153,1288,,,,12,1
5ead5e32f32e3b3dd328e5ef,7chamt4gwj,Trevor-ex1,1,267,2020-07-17T10:22:02-07:00,2.2839570045471,3,versionC_stim.csv,JOL_SIZE_VersionC.csv,"Large vs small C","Large vs small",MARCH,SPRING,BUFFER4,Buffer,179,179,JOL_Small,User,-,"How likely are you to correctly recall the second item in the pair?|Type your response on a scale from 0-100 and then press Enter.",Study/JOL,BUFFER4,1791,,,1426,1573,,,,12,1
5ead5e32f32e3b3dd328e5ef,7chamt4gwj,Trevor-ex1,1,268,2020-07-17T10:22:04-07:00,2.282164812088,3,versionC_stim.csv,JOL_SIZE_VersionC.csv,"Large vs small C","Large vs small",SPOOKY,OCTOBER,BUFFER4,Buffer,180,180,JOL_Small,User,-,"How likely are you to correctly recall the second item in the pair?|Type your response on a scale from 0-100 and then press Enter.",Study/JOL,BUFFER4,1770,,,1436,1581,,,,32,1
5ead5e32f32e3b3dd328e5ef,7chamt4gwj,Trevor-ex1,1,269,2020-07-17T10:22:06-07:00,1.9204421043396,3,versionC_stim.csv,JOL_SIZE_VersionC.csv,"Large vs small C","Large vs small",WEEKS,DAYS,BUFFER4,Buffer,176,177,JOL_Large,User,-,"How likely are you to correctly recall the second item in the pair?|Type your response on a scale from 0-100 and then press Enter.",Study/JOL,BUFFER4,1385,,,1061,1208,,,,45,1
5ead5e32f32e3b3dd328e5ef,7chamt4gwj,Trevor-ex1,1,270,2020-07-17T10:22:08-07:00,1.7988040447235,3,versionC_stim.csv,JOL_SIZE_VersionC.csv,"Large vs small C","Large vs small",SHED,TOOL,BUFFER4,Buffer,178,181,JOL_Large,User,-,"How likely are you to correctly recall the second item in the pair?|Type your response on a scale from 0-100 and then press Enter.",Study/JOL,BUFFER4,1296,,,988,1124,,,,45,1
5ead5e32f32e3b3dd328e5ef,7chamt4gwj,Trevor-ex1,1,271,2020-07-17T10:22:10-07:00,1.7427158355713,3,versionC_stim.csv,JOL_SIZE_VersionC.csv,"Large vs small C","Large vs small",YEAR,MONTH,BUFFER4,Buffer,177,178,JOL_Large,User,-,"How likely are you to correctly recall the second item in the pair?|Type your response on a scale from 0-100 and then press Enter.",Study/JOL,BUFFER4,1250,,,915,1071,,,,45,1
5ead5e32f32e3b3dd328e5ef,7chamt4gwj,Trevor-ex1,1,272,2020-07-17T10:22:24-07:00,14.406485080719,3,versionC_stim.csv,JOL_SIZE_VersionC.csv,"Large vs small C","Large vs small",,,,,,0,Instruct,User,-,"You have completed this section. Please press Enter.",Filler_Instruction,Instruct5,13714,,,-1,-1,,,,,1
5ead5e32f32e3b3dd328e5ef,7chamt4gwj,Trevor-ex1,1,273,2020-07-17T10:24:25-07:00,120.64843392372,3,versionC_stim.csv,JOL_SIZE_VersionC.csv,"Large vs small C","Large vs small",,,,,,0,FreeRecall,120,120,"Please list the 50 US states in reverse alphabetical order (z - a). The task will automatically advance to the next screen after two minutes.",,Filler2,120003,"Wyoming washington pennsylvania Ohio New York New Mexico New Jersey Nevada",0,52182,119436,0,0,,,1
5ead5e32f32e3b3dd328e5ef,7chamt4gwj,Trevor-ex1,1,274,2020-07-17T10:24:40-07:00,14.808142185211,3,versionC_stim.csv,JOL_SIZE_VersionC.csv,"Large vs small C","Large vs small",,,,,,0,Instruct,-,10,"You will now be presented with the first word from each of the previously studied item pairs. Please type the missing word. If you do not know the word, you may guess or press Enter to skip forward to the next pair.",,Instruct6,14251,,,-1,-1,,,,,1
5ead5e32f32e3b3dd328e5ef,7chamt4gwj,Trevor-ex1,1,275,2020-07-17T10:24:43-07:00,3.5484218597412,3,versionC_stim.csv,JOL_SIZE_VersionC.csv,"Large vs small C","Large vs small",BRACELET,WRIST,Study2,S,140,150,Test,User,-,,Recall,Recall2,2986,,0,-1,-1,0,0,,,1
5ead5e32f32e3b3dd328e5ef,7chamt4gwj,Trevor-ex1,1,276,2020-07-17T10:24:48-07:00,5.0337800979614,3,versionC_stim.csv,JOL_SIZE_VersionC.csv,"Large vs small C","Large vs small",GROUND,EARTH,Study2,S,144,160,Test,User,-,,Recall,Recall2,4502,Flat,44.444444444444,2923,4088,0,0,,,1
5ead5e32f32e3b3dd328e5ef,7chamt4gwj,Trevor-ex1,1,277,2020-07-17T10:24:51-07:00,2.9794578552246,3,versionC_stim.csv,JOL_SIZE_VersionC.csv,"Large vs small C","Large vs small",PLANT,CACTUS,Study2,B,98,166,Test,User,-,,Recall,Recall2,2469,Root,20,1433,2093,0,0,,,1
5ead5e32f32e3b3dd328e5ef,7chamt4gwj,Trevor-ex1,1,278,2020-07-17T10:25:33-07:00,41.234017133713,3,versionC_stim.csv,JOL_SIZE_VersionC.csv,"Large vs small C","Large vs small",PAPER,DOCUMENT,Study2,B,109,109,Test,User,-,,Recall,Recall2,6590,white,15.384615384615,4990,6196,0,0,,,0.885
5ead5e32f32e3b3dd328e5ef,7chamt4gwj,Trevor-ex1,1,279,2020-07-17T10:25:37-07:00,4.0682790279388,3,versionC_stim.csv,JOL_SIZE_VersionC.csv,"Large vs small C","Large vs small",EAT,DINE,Study2,B,111,114,Test,User,-,,Recall,Recall2,3406,Ate,28.571428571429,2314,2728,0,0,,,1
