Username,ID,ExperimentName,Session,Trial,Date,TimeDif,"Condition Number","Stimuli File","Order File","Condition Description","Condition Notes",Stimuli*Cue,Stimuli*Answer,Stimuli*Shuffle,"Stimuli*Stimuli Notes",Stimuli*Value,Procedure*Item,"Procedure*Trial Type","Procedure*Max Time","Procedure*Min Time",Procedure*Text,"Procedure*Procedure Notes",Procedure*Shuffle,Response*RT,Response*Response,Response*Accuracy,Response*RTfirst,Response*RTlast,Response*strictAcc,Response*lenientAcc,Response*focus,Response*JOL,Response*Focus
w968356_cj,cs13n18mn1,Nick_Dissertation_EX1,1,1,2020-06-28T20:06:46-07:00,7.0852952003479,5,versionA_stim.csv,JOL_H_VersionA.csv,"Highlight vs normal A","Highlight vs normal",,,,,,0,Instruct,-,5,"In this section, you will be presented with a series of word pairs.",Initial_Instruct,Instruct1,6307,,,-1,-1,,,,,1
w968356_cj,cs13n18mn1,Nick_Dissertation_EX1,1,2,2020-06-28T20:06:57-07:00,11.558129787445,5,versionA_stim.csv,JOL_H_VersionA.csv,"Highlight vs normal A","Highlight vs normal",,,,,,0,Instruct,-,10,"As you study, you will be asked to rate your ability to remember the second item in the pair if you were only shown the first at test. You will make these ratings using a 0 to 100 Scale.",,Instruct13,10659,,,-1,-1,,,,,1
w968356_cj,cs13n18mn1,Nick_Dissertation_EX1,1,3,2020-06-28T20:07:09-07:00,11.381035089493,5,versionA_stim.csv,JOL_H_VersionA.csv,"Highlight vs normal A","Highlight vs normal",,,,,,0,Instruct,-,10,"For example, if you are given the pair CAT - DOG, a rating of 0 indicates that you would not remember DOG at test, while a rating of 100 indicates full certainty that you would remember the word DOG at test.",,Instruct14,11093,,,-1,-1,,,,,1
w968356_cj,cs13n18mn1,Nick_Dissertation_EX1,1,4,2020-06-28T20:07:28-07:00,19.206922054291,5,versionA_stim.csv,JOL_H_VersionA.csv,"Highlight vs normal A","Highlight vs normal",,,,,,0,Instruct,-,10,"When making your ratings, it is criticial that you use the full range of the scale. You will be disqualified for only giving ratings of 0 or 100! After making your rating, press Enter to advance to the next pair.",,Instruct15,18922,,,-1,-1,,,,,1
w968356_cj,cs13n18mn1,Nick_Dissertation_EX1,1,5,2020-06-28T20:07:29-07:00,1.5972368717194,5,versionA_stim.csv,JOL_H_VersionA.csv,"Highlight vs normal A","Highlight vs normal",,,,,,0,Instruct,User,-,"You will now begin the study. Press Enter when you are ready to begin.",,Instruct16,1318,,,-1,-1,,,,,1
w968356_cj,cs13n18mn1,Nick_Dissertation_EX1,1,6,2020-06-28T20:07:34-07:00,4.5097761154175,5,versionA_stim.csv,JOL_H_VersionA.csv,"Highlight vs normal A","Highlight vs normal",PEANUT,BUTTER,BUFFER1,Buffer,3,4,JOL_H,User,-,"How likely are you to correctly recall the second item in the pair?|Type your response on a scale from 0-100 and then press Enter.",Study/JOL,BUFFER,4139,,,4019,4019,,,,5,1
w968356_cj,cs13n18mn1,Nick_Dissertation_EX1,1,7,2020-06-28T20:07:37-07:00,3.5110430717468,5,versionA_stim.csv,JOL_H_VersionA.csv,"Highlight vs normal A","Highlight vs normal",TREES,GREEN,BUFFER1,Buffer,1,6,JOL_H,User,-,"How likely are you to correctly recall the second item in the pair?|Type your response on a scale from 0-100 and then press Enter.",Study/JOL,BUFFER,3226,,,2669,2802,,,,59,1
w968356_cj,cs13n18mn1,Nick_Dissertation_EX1,1,8,2020-06-28T20:07:40-07:00,2.5043489933014,5,versionA_stim.csv,JOL_H_VersionA.csv,"Highlight vs normal A","Highlight vs normal",SCARE,HIDE,BUFFER1,Buffer,4,2,JOL,User,-,"How likely are you to correctly recall the second item in the pair?|Type your response on a scale from 0-100 and then press Enter.",Study/JOL,BUFFER,2196,,,1878,1878,,,,8,1
w968356_cj,cs13n18mn1,Nick_Dissertation_EX1,1,9,2020-06-28T20:07:43-07:00,2.7316799163818,5,versionA_stim.csv,JOL_H_VersionA.csv,"Highlight vs normal A","Highlight vs normal",BASEBALL,CATCHER,BUFFER1,Buffer,2,3,JOL,User,-,"How likely are you to correctly recall the second item in the pair?|Type your response on a scale from 0-100 and then press Enter.",Study/JOL,BUFFER,2240,,,1629,1629,,,,3,1
w968356_cj,cs13n18mn1,Nick_Dissertation_EX1,1,10,2020-06-28T20:07:45-07:00,2.3106439113617,5,versionA_stim.csv,JOL_H_VersionA.csv,"Highlight vs normal A","Highlight vs normal",SPACE,JAM,BUFFER1,Buffer,5,5,JOL_H,User,-,"How likely are you to correctly recall the second item in the pair?|Type your response on a scale from 0-100 and then press Enter.",Study/JOL,BUFFER,1998,,,1711,1712,,,,6,1
w968356_cj,cs13n18mn1,Nick_Dissertation_EX1,1,11,2020-06-28T20:07:47-07:00,2.4164960384369,5,versionA_stim.csv,JOL_H_VersionA.csv,"Highlight vs normal A","Highlight vs normal",GRILL,BAR,Study1,S,52,74,JOL,User,-,"How likely are you to correctly recall the second item in the pair?|Type your response on a scale from 0-100 and then press Enter.",Study/JOL,"Study Phase",2069,,,1703,1704,,,,7,1
w968356_cj,cs13n18mn1,Nick_Dissertation_EX1,1,12,2020-06-28T20:07:50-07:00,2.1551029682159,5,versionA_stim.csv,JOL_H_VersionA.csv,"Highlight vs normal A","Highlight vs normal",TRIAL,JURY,Study1,S,50,38,JOL_H,User,-,"How likely are you to correctly recall the second item in the pair?|Type your response on a scale from 0-100 and then press Enter.",Study/JOL,"Study Phase",1691,,,1205,1360,,,,98,1
w968356_cj,cs13n18mn1,Nick_Dissertation_EX1,1,13,2020-06-28T20:07:52-07:00,2.3257579803467,5,versionA_stim.csv,JOL_H_VersionA.csv,"Highlight vs normal A","Highlight vs normal",CASH,WOULD,Study1,U,83,32,JOL_H,User,-,"How likely are you to correctly recall the second item in the pair?|Type your response on a scale from 0-100 and then press Enter.",Study/JOL,"Study Phase",1949,,,1431,1568,,,,98,1
w968356_cj,cs13n18mn1,Nick_Dissertation_EX1,1,14,2020-06-28T20:07:54-07:00,1.7320051193237,5,versionA_stim.csv,JOL_H_VersionA.csv,"Highlight vs normal A","Highlight vs normal",TUNA,FISH,Study1,F,25,42,JOL_H,User,-,"How likely are you to correctly recall the second item in the pair?|Type your response on a scale from 0-100 and then press Enter.",Study/JOL,"Study Phase",1358,,,1132,1132,,,,0,1
w968356_cj,cs13n18mn1,Nick_Dissertation_EX1,1,15,2020-06-28T20:07:56-07:00,2.0789580345154,5,versionA_stim.csv,JOL_H_VersionA.csv,"Highlight vs normal A","Highlight vs normal",SMELL,STENCH,Study1,B,42,78,JOL,User,-,"How likely are you to correctly recall the second item in the pair?|Type your response on a scale from 0-100 and then press Enter.",Study/JOL,"Study Phase",1672,,,1185,1185,,,,4,1
w968356_cj,cs13n18mn1,Nick_Dissertation_EX1,1,16,2020-06-28T20:07:58-07:00,2.0249719619751,5,versionA_stim.csv,JOL_H_VersionA.csv,"Highlight vs normal A","Highlight vs normal",DISCOVER,FLOOR,Study1,U,71,54,JOL,User,-,"How likely are you to correctly recall the second item in the pair?|Type your response on a scale from 0-100 and then press Enter.",Study/JOL,"Study Phase",1616,,,1181,1181,,,,6,1
w968356_cj,cs13n18mn1,Nick_Dissertation_EX1,1,17,2020-06-28T20:07:59-07:00,1.7317159175873,5,versionA_stim.csv,JOL_H_VersionA.csv,"Highlight vs normal A","Highlight vs normal",BEGIN,END,Study1,S,54,56,JOL,User,-,"How likely are you to correctly recall the second item in the pair?|Type your response on a scale from 0-100 and then press Enter.",Study/JOL,"Study Phase",1450,,,1119,1119,,,,7,1
w968356_cj,cs13n18mn1,Nick_Dissertation_EX1,1,18,2020-06-28T20:08:01-07:00,1.8768470287323,5,versionA_stim.csv,JOL_H_VersionA.csv,"Highlight vs normal A","Highlight vs normal",ARCHITECTURE,DESIGN,Study1,S,51,57,JOL,User,-,"How likely are you to correctly recall the second item in the pair?|Type your response on a scale from 0-100 and then press Enter.",Study/JOL,"Study Phase",1544,,,1174,1174,,,,4,1
w968356_cj,cs13n18mn1,Nick_Dissertation_EX1,1,19,2020-06-28T20:08:04-07:00,2.2608411312103,5,versionA_stim.csv,JOL_H_VersionA.csv,"Highlight vs normal A","Highlight vs normal",REVOLUTION,WAR,Study1,F,20,86,JOL,User,-,"How likely are you to correctly recall the second item in the pair?|Type your response on a scale from 0-100 and then press Enter.",Study/JOL,"Study Phase",1922,,,887,887,,,,7,1
w968356_cj,cs13n18mn1,Nick_Dissertation_EX1,1,20,2020-06-28T20:08:06-07:00,2.5598478317261,5,versionA_stim.csv,JOL_H_VersionA.csv,"Highlight vs normal A","Highlight vs normal",BATHROOM,TOILET,Study1,S,58,75,JOL,User,-,"How likely are you to correctly recall the second item in the pair?|Type your response on a scale from 0-100 and then press Enter.",Study/JOL,"Study Phase",2259,,,1717,1717,,,,7,1
w968356_cj,cs13n18mn1,Nick_Dissertation_EX1,1,21,2020-06-28T20:08:08-07:00,2.0130369663239,5,versionA_stim.csv,JOL_H_VersionA.csv,"Highlight vs normal A","Highlight vs normal",EDITOR,NEWS,Study1,F,10,19,JOL_H,User,-,"How likely are you to correctly recall the second item in the pair?|Type your response on a scale from 0-100 and then press Enter.",Study/JOL,"Study Phase",1737,,,1383,1383,,,,6,1
w968356_cj,cs13n18mn1,Nick_Dissertation_EX1,1,22,2020-06-28T20:08:11-07:00,3.2203290462494,5,versionA_stim.csv,JOL_H_VersionA.csv,"Highlight vs normal A","Highlight vs normal",GREAT,FANTASTIC,Study1,B,35,23,JOL_H,User,-,"How likely are you to correctly recall the second item in the pair?|Type your response on a scale from 0-100 and then press Enter.",Study/JOL,"Study Phase",2944,,,1718,2087,,,,45,1
w968356_cj,cs13n18mn1,Nick_Dissertation_EX1,1,23,2020-06-28T20:08:13-07:00,1.8774499893188,5,versionA_stim.csv,JOL_H_VersionA.csv,"Highlight vs normal A","Highlight vs normal",DELINQUENT,BAD,Study1,F,6,37,JOL_H,User,-,"How likely are you to correctly recall the second item in the pair?|Type your response on a scale from 0-100 and then press Enter.",Study/JOL,"Study Phase",1570,,,737,1184,,,,98,1
w968356_cj,cs13n18mn1,Nick_Dissertation_EX1,1,24,2020-06-28T20:08:15-07:00,2.0554890632629,5,versionA_stim.csv,JOL_H_VersionA.csv,"Highlight vs normal A","Highlight vs normal",HONEY,BEE,Study1,S,63,14,JOL_H,User,-,"How likely are you to correctly recall the second item in the pair?|Type your response on a scale from 0-100 and then press Enter.",Study/JOL,"Study Phase",1760,,,1109,1254,,,,43,1
w968356_cj,cs13n18mn1,Nick_Dissertation_EX1,1,25,2020-06-28T20:08:17-07:00,1.7007369995117,5,versionA_stim.csv,JOL_H_VersionA.csv,"Highlight vs normal A","Highlight vs normal",PUSHER,CLUTTER,Study1,U,66,8,JOL_H,User,-,"How likely are you to correctly recall the second item in the pair?|Type your response on a scale from 0-100 and then press Enter.",Study/JOL,"Study Phase",1412,,,1023,1133,,,,87,1
w968356_cj,cs13n18mn1,Nick_Dissertation_EX1,1,26,2020-06-28T20:08:20-07:00,3.1774699687958,5,versionA_stim.csv,JOL_H_VersionA.csv,"Highlight vs normal A","Highlight vs normal",DIETARY,SACKING,Study1,U,67,59,JOL,User,-,"How likely are you to correctly recall the second item in the pair?|Type your response on a scale from 0-100 and then press Enter.",Study/JOL,"Study Phase",2889,,,1281,1412,,,,98,1
w968356_cj,cs13n18mn1,Nick_Dissertation_EX1,1,27,2020-06-28T20:08:23-07:00,3.1170430183411,5,versionA_stim.csv,JOL_H_VersionA.csv,"Highlight vs normal A","Highlight vs normal",DEBATE,SIGHT,Study1,U,73,24,JOL_H,User,-,"How likely are you to correctly recall the second item in the pair?|Type your response on a scale from 0-100 and then press Enter.",Study/JOL,"Study Phase",2836,,,1546,1634,,,,65,1
w968356_cj,cs13n18mn1,Nick_Dissertation_EX1,1,28,2020-06-28T20:08:26-07:00,2.3390409946442,5,versionA_stim.csv,JOL_H_VersionA.csv,"Highlight vs normal A","Highlight vs normal",HAPPY,CAR,Study1,U,77,77,JOL,User,-,"How likely are you to correctly recall the second item in the pair?|Type your response on a scale from 0-100 and then press Enter.",Study/JOL,"Study Phase",2068,,,1530,1642,,,,88,1
w968356_cj,cs13n18mn1,Nick_Dissertation_EX1,1,29,2020-06-28T20:08:28-07:00,2.3857359886169,5,versionA_stim.csv,JOL_H_VersionA.csv,"Highlight vs normal A","Highlight vs normal",DARK,CAVE,Study1,B,28,67,JOL,User,-,"How likely are you to correctly recall the second item in the pair?|Type your response on a scale from 0-100 and then press Enter.",Study/JOL,"Study Phase",2111,,,1636,1813,,,,87,1
w968356_cj,cs13n18mn1,Nick_Dissertation_EX1,1,30,2020-06-28T20:08:30-07:00,2.3277559280396,5,versionA_stim.csv,JOL_H_VersionA.csv,"Highlight vs normal A","Highlight vs normal",SWAN,BIRD,Study1,F,14,22,JOL_H,User,-,"How likely are you to correctly recall the second item in the pair?|Type your response on a scale from 0-100 and then press Enter.",Study/JOL,"Study Phase",2039,,,1764,1875,,,,34,1
w968356_cj,cs13n18mn1,Nick_Dissertation_EX1,1,31,2020-06-28T20:08:32-07:00,1.7182440757751,5,versionA_stim.csv,JOL_H_VersionA.csv,"Highlight vs normal A","Highlight vs normal",LETTUCE,SALAD,Study1,S,59,45,JOL_H,User,-,"How likely are you to correctly recall the second item in the pair?|Type your response on a scale from 0-100 and then press Enter.",Study/JOL,"Study Phase",1433,,,1093,1233,,,,23,1
w968356_cj,cs13n18mn1,Nick_Dissertation_EX1,1,32,2020-06-28T20:08:33-07:00,1.4129660129547,5,versionA_stim.csv,JOL_H_VersionA.csv,"Highlight vs normal A","Highlight vs normal",VALLEY,ADD,Study1,U,82,27,JOL_H,User,-,"How likely are you to correctly recall the second item in the pair?|Type your response on a scale from 0-100 and then press Enter.",Study/JOL,"Study Phase",1133,,,813,993,,,,55,1
w968356_cj,cs13n18mn1,Nick_Dissertation_EX1,1,33,2020-06-28T20:08:35-07:00,1.3793671131134,5,versionA_stim.csv,JOL_H_VersionA.csv,"Highlight vs normal A","Highlight vs normal",BRIDGE,WATER,Study1,F,18,68,JOL,User,-,"How likely are you to correctly recall the second item in the pair?|Type your response on a scale from 0-100 and then press Enter.",Study/JOL,"Study Phase",1090,,,678,808,,,,30,1
w968356_cj,cs13n18mn1,Nick_Dissertation_EX1,1,34,2020-06-28T20:08:37-07:00,2.3827228546143,5,versionA_stim.csv,JOL_H_VersionA.csv,"Highlight vs normal A","Highlight vs normal",SENTENCE,WORD,Study1,B,31,13,JOL_H,User,-,"How likely are you to correctly recall the second item in the pair?|Type your response on a scale from 0-100 and then press Enter.",Study/JOL,"Study Phase",2055,,,722,1669,,,,10,1
w968356_cj,cs13n18mn1,Nick_Dissertation_EX1,1,35,2020-06-28T20:08:39-07:00,1.5240750312805,5,versionA_stim.csv,JOL_H_VersionA.csv,"Highlight vs normal A","Highlight vs normal",DUE,ASSIGNMENT,Study1,S,46,34,JOL_H,User,-,"How likely are you to correctly recall the second item in the pair?|Type your response on a scale from 0-100 and then press Enter.",Study/JOL,"Study Phase",1221,,,795,795,,,,8,1
w968356_cj,cs13n18mn1,Nick_Dissertation_EX1,1,36,2020-06-28T20:08:41-07:00,2.037269115448,5,versionA_stim.csv,JOL_H_VersionA.csv,"Highlight vs normal A","Highlight vs normal",GEOLOGY,ROCK,Study1,F,19,25,JOL_H,User,-,"How likely are you to correctly recall the second item in the pair?|Type your response on a scale from 0-100 and then press Enter.",Study/JOL,"Study Phase",1737,,,1186,1501,,,,66,1
w968356_cj,cs13n18mn1,Nick_Dissertation_EX1,1,37,2020-06-28T20:08:43-07:00,2.1376838684082,5,versionA_stim.csv,JOL_H_VersionA.csv,"Highlight vs normal A","Highlight vs normal",PARK,HUNGRY,Study1,U,68,30,JOL_H,User,-,"How likely are you to correctly recall the second item in the pair?|Type your response on a scale from 0-100 and then press Enter.",Study/JOL,"Study Phase",1832,,,1252,1663,,,,44,1
w968356_cj,cs13n18mn1,Nick_Dissertation_EX1,1,38,2020-06-28T20:08:45-07:00,1.6151349544525,5,versionA_stim.csv,JOL_H_VersionA.csv,"Highlight vs normal A","Highlight vs normal",FIX,HAND,Study1,U,75,11,JOL_H,User,-,"How likely are you to correctly recall the second item in the pair?|Type your response on a scale from 0-100 and then press Enter.",Study/JOL,"Study Phase",1323,,,776,951,,,,23,1
w968356_cj,cs13n18mn1,Nick_Dissertation_EX1,1,39,2020-06-28T20:08:47-07:00,1.967707157135,5,versionA_stim.csv,JOL_H_VersionA.csv,"Highlight vs normal A","Highlight vs normal",BLOW,WIND,Study1,S,55,35,JOL_H,User,-,"How likely are you to correctly recall the second item in the pair?|Type your response on a scale from 0-100 and then press Enter.",Study/JOL,"Study Phase",1660,,,732,1162,,,,65,1
w968356_cj,cs13n18mn1,Nick_Dissertation_EX1,1,40,2020-06-28T20:08:48-07:00,1.7778539657593,5,versionA_stim.csv,JOL_H_VersionA.csv,"Highlight vs normal A","Highlight vs normal",HYGIENE,CLEAN,Study1,F,17,47,JOL,User,-,"How likely are you to correctly recall the second item in the pair?|Type your response on a scale from 0-100 and then press Enter.",Study/JOL,"Study Phase",1490,,,1153,1249,,,,86,1
w968356_cj,cs13n18mn1,Nick_Dissertation_EX1,1,41,2020-06-28T20:08:52-07:00,3.7308750152588,5,versionA_stim.csv,JOL_H_VersionA.csv,"Highlight vs normal A","Highlight vs normal",BUG,WASP,Study1,B,32,76,JOL,User,-,"How likely are you to correctly recall the second item in the pair?|Type your response on a scale from 0-100 and then press Enter.",Study/JOL,"Study Phase",3407,,,1642,3132,,,,87,1
w968356_cj,cs13n18mn1,Nick_Dissertation_EX1,1,42,2020-06-28T20:08:53-07:00,1.3694658279419,5,versionA_stim.csv,JOL_H_VersionA.csv,"Highlight vs normal A","Highlight vs normal",WAY,OUT,Study1,F,16,70,JOL,User,-,"How likely are you to correctly recall the second item in the pair?|Type your response on a scale from 0-100 and then press Enter.",Study/JOL,"Study Phase",1029,,,604,748,,,,34,1
w968356_cj,cs13n18mn1,Nick_Dissertation_EX1,1,43,2020-06-28T20:08:55-07:00,1.313303232193,5,versionA_stim.csv,JOL_H_VersionA.csv,"Highlight vs normal A","Highlight vs normal",SOON,BELT,Study1,U,70,15,JOL_H,User,-,"How likely are you to correctly recall the second item in the pair?|Type your response on a scale from 0-100 and then press Enter.",Study/JOL,"Study Phase",1021,,,597,775,,,,54,1
w968356_cj,cs13n18mn1,Nick_Dissertation_EX1,1,44,2020-06-28T20:08:57-07:00,1.8815097808838,5,versionA_stim.csv,JOL_H_VersionA.csv,"Highlight vs normal A","Highlight vs normal",ROOT,PLANT,Study1,F,13,66,JOL,User,-,"How likely are you to correctly recall the second item in the pair?|Type your response on a scale from 0-100 and then press Enter.",Study/JOL,"Study Phase",1591,,,526,769,,,,22,1
w968356_cj,cs13n18mn1,Nick_Dissertation_EX1,1,45,2020-06-28T20:08:58-07:00,1.7865471839905,5,versionA_stim.csv,JOL_H_VersionA.csv,"Highlight vs normal A","Highlight vs normal",PAST,FUTURE,Study1,S,61,12,JOL_H,User,-,"How likely are you to correctly recall the second item in the pair?|Type your response on a scale from 0-100 and then press Enter.",Study/JOL,"Study Phase",1492,,,1073,1212,,,,99,1
w968356_cj,cs13n18mn1,Nick_Dissertation_EX1,1,46,2020-06-28T20:09:00-07:00,1.8864498138428,5,versionA_stim.csv,JOL_H_VersionA.csv,"Highlight vs normal A","Highlight vs normal",DISCUSSION,TALK,Study1,F,21,52,JOL,User,-,"How likely are you to correctly recall the second item in the pair?|Type your response on a scale from 0-100 and then press Enter.",Study/JOL,"Study Phase",1601,,,517,1418,,,,100,1
w968356_cj,cs13n18mn1,Nick_Dissertation_EX1,1,47,2020-06-28T20:09:02-07:00,1.5957460403442,5,versionA_stim.csv,JOL_H_VersionA.csv,"Highlight vs normal A","Highlight vs normal",SLEEP,DROWSY,Study1,B,41,69,JOL,User,-,"How likely are you to correctly recall the second item in the pair?|Type your response on a scale from 0-100 and then press Enter.",Study/JOL,"Study Phase",1296,,,760,760,,,,9,1
w968356_cj,cs13n18mn1,Nick_Dissertation_EX1,1,48,2020-06-28T20:09:03-07:00,1.1760251522064,5,versionA_stim.csv,JOL_H_VersionA.csv,"Highlight vs normal A","Highlight vs normal",DRINK,SIP,Study1,B,27,85,JOL,User,-,"How likely are you to correctly recall the second item in the pair?|Type your response on a scale from 0-100 and then press Enter.",Study/JOL,"Study Phase",932,,,477,620,,,,34,1
w968356_cj,cs13n18mn1,Nick_Dissertation_EX1,1,49,2020-06-28T20:09:04-07:00,1.2881989479065,5,versionA_stim.csv,JOL_H_VersionA.csv,"Highlight vs normal A","Highlight vs normal",BITTER,COLD,Study1,F,12,60,JOL,User,-,"How likely are you to correctly recall the second item in the pair?|Type your response on a scale from 0-100 and then press Enter.",Study/JOL,"Study Phase",995,,,595,759,,,,23,1
w968356_cj,cs13n18mn1,Nick_Dissertation_EX1,1,50,2020-06-28T20:09:07-07:00,3.0512509346008,5,versionA_stim.csv,JOL_H_VersionA.csv,"Highlight vs normal A","Highlight vs normal",WAGE,MONEY,Study1,F,8,36,JOL_H,User,-,"How likely are you to correctly recall the second item in the pair?|Type your response on a scale from 0-100 and then press Enter.",Study/JOL,"Study Phase",2756,,,902,2275,,,,98,1
w968356_cj,cs13n18mn1,Nick_Dissertation_EX1,1,51,2020-06-28T20:09:09-07:00,1.5778739452362,5,versionA_stim.csv,JOL_H_VersionA.csv,"Highlight vs normal A","Highlight vs normal",PAW,DOG,Study1,F,15,58,JOL,User,-,"How likely are you to correctly recall the second item in the pair?|Type your response on a scale from 0-100 and then press Enter.",Study/JOL,"Study Phase",1287,,,1039,1039,,,,7,1
w968356_cj,cs13n18mn1,Nick_Dissertation_EX1,1,52,2020-06-28T20:09:11-07:00,1.6533641815186,5,versionA_stim.csv,JOL_H_VersionA.csv,"Highlight vs normal A","Highlight vs normal",FULL,ENOUGH,Study1,B,26,33,JOL_H,User,-,"How likely are you to correctly recall the second item in the pair?|Type your response on a scale from 0-100 and then press Enter.",Study/JOL,"Study Phase",1380,,,950,1096,,,,98,1
w968356_cj,cs13n18mn1,Nick_Dissertation_EX1,1,53,2020-06-28T20:09:18-07:00,7.1691389083862,5,versionA_stim.csv,JOL_H_VersionA.csv,"Highlight vs normal A","Highlight vs normal",FIRE,BLAZE,Study1,B,45,64,JOL,User,-,"How likely are you to correctly recall the second item in the pair?|Type your response on a scale from 0-100 and then press Enter.",Study/JOL,"Study Phase",6877,,,6345,6345,,,,7,1
w968356_cj,cs13n18mn1,Nick_Dissertation_EX1,1,54,2020-06-28T20:09:20-07:00,1.83061003685,5,versionA_stim.csv,JOL_H_VersionA.csv,"Highlight vs normal A","Highlight vs normal",BABY,CHILD,Study1,S,64,39,JOL_H,User,-,"How likely are you to correctly recall the second item in the pair?|Type your response on a scale from 0-100 and then press Enter.",Study/JOL,"Study Phase",1530,,,1071,1248,,,,87,1
w968356_cj,cs13n18mn1,Nick_Dissertation_EX1,1,55,2020-06-28T20:09:21-07:00,1.6494929790497,5,versionA_stim.csv,JOL_H_VersionA.csv,"Highlight vs normal A","Highlight vs normal",HOT,CHILI,Study1,B,37,28,JOL_H,User,-,"How likely are you to correctly recall the second item in the pair?|Type your response on a scale from 0-100 and then press Enter.",Study/JOL,"Study Phase",1352,,,925,1096,,,,98,1
w968356_cj,cs13n18mn1,Nick_Dissertation_EX1,1,56,2020-06-28T20:09:23-07:00,2.1270408630371,5,versionA_stim.csv,JOL_H_VersionA.csv,"Highlight vs normal A","Highlight vs normal",HIDE,SICK,Study1,U,84,10,JOL_H,User,-,"How likely are you to correctly recall the second item in the pair?|Type your response on a scale from 0-100 and then press Enter.",Study/JOL,"Study Phase",1848,,,1389,1521,,,,76,1
w968356_cj,cs13n18mn1,Nick_Dissertation_EX1,1,57,2020-06-28T20:09:25-07:00,1.7413702011108,5,versionA_stim.csv,JOL_H_VersionA.csv,"Highlight vs normal A","Highlight vs normal",ORCHID,FLOWER,Study1,F,24,55,JOL,User,-,"How likely are you to correctly recall the second item in the pair?|Type your response on a scale from 0-100 and then press Enter.",Study/JOL,"Study Phase",1458,,,985,1127,,,,78,1
w968356_cj,cs13n18mn1,Nick_Dissertation_EX1,1,58,2020-06-28T20:09:27-07:00,1.6730949878693,5,versionA_stim.csv,JOL_H_VersionA.csv,"Highlight vs normal A","Highlight vs normal",KEY,LATCH,Study1,B,36,79,JOL,User,-,"How likely are you to correctly recall the second item in the pair?|Type your response on a scale from 0-100 and then press Enter.",Study/JOL,"Study Phase",1390,,,987,1126,,,,98,1
w968356_cj,cs13n18mn1,Nick_Dissertation_EX1,1,59,2020-06-28T20:09:29-07:00,1.7379820346832,5,versionA_stim.csv,JOL_H_VersionA.csv,"Highlight vs normal A","Highlight vs normal",PLANE,PILOT,Study1,B,44,53,JOL,User,-,"How likely are you to correctly recall the second item in the pair?|Type your response on a scale from 0-100 and then press Enter.",Study/JOL,"Study Phase",1434,,,1074,1206,,,,88,1
w968356_cj,cs13n18mn1,Nick_Dissertation_EX1,1,60,2020-06-28T20:09:31-07:00,2.1619608402252,5,versionA_stim.csv,JOL_H_VersionA.csv,"Highlight vs normal A","Highlight vs normal",ARTERY,BRONZE,Study1,U,74,31,JOL_H,User,-,"How likely are you to correctly recall the second item in the pair?|Type your response on a scale from 0-100 and then press Enter.",Study/JOL,"Study Phase",1853,,,1398,1570,,,,98,1
w968356_cj,cs13n18mn1,Nick_Dissertation_EX1,1,61,2020-06-28T20:09:33-07:00,1.8600311279297,5,versionA_stim.csv,JOL_H_VersionA.csv,"Highlight vs normal A","Highlight vs normal",NUMBER,AMOUNT,Study1,S,47,41,JOL_H,User,-,"How likely are you to correctly recall the second item in the pair?|Type your response on a scale from 0-100 and then press Enter.",Study/JOL,"Study Phase",1564,,,837,1033,,,,76,1
w968356_cj,cs13n18mn1,Nick_Dissertation_EX1,1,62,2020-06-28T20:09:34-07:00,1.3775238990784,5,versionA_stim.csv,JOL_H_VersionA.csv,"Highlight vs normal A","Highlight vs normal",MACHINE,POSITION,Study1,U,76,49,JOL,User,-,"How likely are you to correctly recall the second item in the pair?|Type your response on a scale from 0-100 and then press Enter.",Study/JOL,"Study Phase",1085,,,660,788,,,,98,1
w968356_cj,cs13n18mn1,Nick_Dissertation_EX1,1,63,2020-06-28T20:09:35-07:00,1.480504989624,5,versionA_stim.csv,JOL_H_VersionA.csv,"Highlight vs normal A","Highlight vs normal",DEATH,BUSINESS,Study1,U,72,84,JOL,User,-,"How likely are you to correctly recall the second item in the pair?|Type your response on a scale from 0-100 and then press Enter.",Study/JOL,"Study Phase",1194,,,611,830,,,,67,1
w968356_cj,cs13n18mn1,Nick_Dissertation_EX1,1,64,2020-06-28T20:09:37-07:00,1.2973821163177,5,versionA_stim.csv,JOL_H_VersionA.csv,"Highlight vs normal A","Highlight vs normal",CHISEL,HAMMER,Study1,F,9,61,JOL,User,-,"How likely are you to correctly recall the second item in the pair?|Type your response on a scale from 0-100 and then press Enter.",Study/JOL,"Study Phase",996,,,546,685,,,,88,1
w968356_cj,cs13n18mn1,Nick_Dissertation_EX1,1,65,2020-06-28T20:09:38-07:00,1.3485078811646,5,versionA_stim.csv,JOL_H_VersionA.csv,"Highlight vs normal A","Highlight vs normal",LOCATION,SITE,Study1,S,48,29,JOL_H,User,-,"How likely are you to correctly recall the second item in the pair?|Type your response on a scale from 0-100 and then press Enter.",Study/JOL,"Study Phase",1069,,,551,785,,,,98,1
w968356_cj,cs13n18mn1,Nick_Dissertation_EX1,1,66,2020-06-28T20:09:39-07:00,1.4295740127563,5,versionA_stim.csv,JOL_H_VersionA.csv,"Highlight vs normal A","Highlight vs normal",WINE,CHEESE,Study1,S,57,7,JOL_H,User,-,"How likely are you to correctly recall the second item in the pair?|Type your response on a scale from 0-100 and then press Enter.",Study/JOL,"Study Phase",1148,,,608,609,,,,9,1
w968356_cj,cs13n18mn1,Nick_Dissertation_EX1,1,67,2020-06-28T20:09:41-07:00,1.3157501220703,5,versionA_stim.csv,JOL_H_VersionA.csv,"Highlight vs normal A","Highlight vs normal",TAKE,SEIZE,Study1,B,29,65,JOL,User,-,"How likely are you to correctly recall the second item in the pair?|Type your response on a scale from 0-100 and then press Enter.",Study/JOL,"Study Phase",1039,,,621,757,,,,67,1
w968356_cj,cs13n18mn1,Nick_Dissertation_EX1,1,68,2020-06-28T20:09:42-07:00,1.399749994278,5,versionA_stim.csv,JOL_H_VersionA.csv,"Highlight vs normal A","Highlight vs normal",CREDIT,CARD,Study1,F,23,63,JOL,User,-,"How likely are you to correctly recall the second item in the pair?|Type your response on a scale from 0-100 and then press Enter.",Study/JOL,"Study Phase",1103,,,690,825,,,,77,1
w968356_cj,cs13n18mn1,Nick_Dissertation_EX1,1,69,2020-06-28T20:09:44-07:00,2.0626590251923,5,versionA_stim.csv,JOL_H_VersionA.csv,"Highlight vs normal A","Highlight vs normal",WORK,CHORE,Study1,B,39,48,JOL,User,-,"How likely are you to correctly recall the second item in the pair?|Type your response on a scale from 0-100 and then press Enter.",Study/JOL,"Study Phase",1776,,,1261,1433,,,,98,1
w968356_cj,cs13n18mn1,Nick_Dissertation_EX1,1,70,2020-06-28T20:09:55-07:00,11.040035963058,5,versionA_stim.csv,JOL_H_VersionA.csv,"Highlight vs normal A","Highlight vs normal",ART,LION,Study1,U,79,43,JOL_H,User,-,"How likely are you to correctly recall the second item in the pair?|Type your response on a scale from 0-100 and then press Enter.",Study/JOL,"Study Phase",10750,,,9475,10366,,,,35,1
w968356_cj,cs13n18mn1,Nick_Dissertation_EX1,1,71,2020-06-28T20:10:08-07:00,12.907738924026,5,versionA_stim.csv,JOL_H_VersionA.csv,"Highlight vs normal A","Highlight vs normal",DIGESTION,STOMACH,Study1,F,7,44,JOL_H,User,-,"How likely are you to correctly recall the second item in the pair?|Type your response on a scale from 0-100 and then press Enter.",Study/JOL,"Study Phase",12602,,,11848,12142,,,,67,1
w968356_cj,cs13n18mn1,Nick_Dissertation_EX1,1,72,2020-06-28T20:10:21-07:00,12.796962022781,5,versionA_stim.csv,JOL_H_VersionA.csv,"Highlight vs normal A","Highlight vs normal",POP,SODA,Study1,S,56,71,JOL,User,-,"How likely are you to correctly recall the second item in the pair?|Type your response on a scale from 0-100 and then press Enter.",Study/JOL,"Study Phase",12519,,,11870,12151,,,,78,1
w968356_cj,cs13n18mn1,Nick_Dissertation_EX1,1,73,2020-06-28T20:10:27-07:00,5.9349238872528,5,versionA_stim.csv,JOL_H_VersionA.csv,"Highlight vs normal A","Highlight vs normal",LIFT,WOMAN,Study1,U,69,21,JOL_H,User,-,"How likely are you to correctly recall the second item in the pair?|Type your response on a scale from 0-100 and then press Enter.",Study/JOL,"Study Phase",5618,,,5138,5285,,,,87,1
w968356_cj,cs13n18mn1,Nick_Dissertation_EX1,1,74,2020-06-28T20:10:32-07:00,5.3808531761169,5,versionA_stim.csv,JOL_H_VersionA.csv,"Highlight vs normal A","Highlight vs normal",MEANING,DEFINITION,Study1,S,62,18,JOL_H,User,-,"How likely are you to correctly recall the second item in the pair?|Type your response on a scale from 0-100 and then press Enter.",Study/JOL,"Study Phase",5074,,,4572,4712,,,,87,1
w968356_cj,cs13n18mn1,Nick_Dissertation_EX1,1,75,2020-06-28T20:10:54-07:00,21.418737888336,5,versionA_stim.csv,JOL_H_VersionA.csv,"Highlight vs normal A","Highlight vs normal",LAW,ATTORNEY,Study1,B,34,9,JOL_H,User,-,"How likely are you to correctly recall the second item in the pair?|Type your response on a scale from 0-100 and then press Enter.",Study/JOL,"Study Phase",21126,,,20561,20706,,,,67,1
w968356_cj,cs13n18mn1,Nick_Dissertation_EX1,1,76,2020-06-28T20:10:58-07:00,3.944109916687,5,versionA_stim.csv,JOL_H_VersionA.csv,"Highlight vs normal A","Highlight vs normal",HERD,COW,Study1,F,22,82,JOL,User,-,"How likely are you to correctly recall the second item in the pair?|Type your response on a scale from 0-100 and then press Enter.",Study/JOL,"Study Phase",3674,,,3144,3300,,,,87,1
w968356_cj,cs13n18mn1,Nick_Dissertation_EX1,1,77,2020-06-28T20:11:01-07:00,3.5449481010437,5,versionA_stim.csv,JOL_H_VersionA.csv,"Highlight vs normal A","Highlight vs normal",MATH,DIVISION,Study1,B,33,40,JOL_H,User,-,"How likely are you to correctly recall the second item in the pair?|Type your response on a scale from 0-100 and then press Enter.",Study/JOL,"Study Phase",3244,,,2447,2847,,,,97,1
w968356_cj,cs13n18mn1,Nick_Dissertation_EX1,1,78,2020-06-28T20:11:05-07:00,3.8491230010986,5,versionA_stim.csv,JOL_H_VersionA.csv,"Highlight vs normal A","Highlight vs normal",SUGAR,RIDDLE,Study1,U,81,51,JOL,User,-,"How likely are you to correctly recall the second item in the pair?|Type your response on a scale from 0-100 and then press Enter.",Study/JOL,"Study Phase",3559,,,2976,3100,,,,65,1
w968356_cj,cs13n18mn1,Nick_Dissertation_EX1,1,79,2020-06-28T20:11:14-07:00,8.9631640911102,5,versionA_stim.csv,JOL_H_VersionA.csv,"Highlight vs normal A","Highlight vs normal",KIDNEY,LIVER,Study1,S,53,20,JOL_H,User,-,"How likely are you to correctly recall the second item in the pair?|Type your response on a scale from 0-100 and then press Enter.",Study/JOL,"Study Phase",8657,,,8037,8227,,,,67,1
w968356_cj,cs13n18mn1,Nick_Dissertation_EX1,1,80,2020-06-28T20:11:17-07:00,2.7762408256531,5,versionA_stim.csv,JOL_H_VersionA.csv,"Highlight vs normal A","Highlight vs normal",HEIGHT,GROWTH,Study1,B,30,73,JOL,User,-,"How likely are you to correctly recall the second item in the pair?|Type your response on a scale from 0-100 and then press Enter.",Study/JOL,"Study Phase",2479,,,2053,2215,,,,78,1
w968356_cj,cs13n18mn1,Nick_Dissertation_EX1,1,81,2020-06-28T20:11:29-07:00,12.302484035492,5,versionA_stim.csv,JOL_H_VersionA.csv,"Highlight vs normal A","Highlight vs normal",ALLOW,TUCK,Study1,U,78,81,JOL,User,-,"How likely are you to correctly recall the second item in the pair?|Type your response on a scale from 0-100 and then press Enter.",Study/JOL,"Study Phase",12014,,,11205,11374,,,,67,1
w968356_cj,cs13n18mn1,Nick_Dissertation_EX1,1,82,2020-06-28T20:11:36-07:00,7.3409669399261,5,versionA_stim.csv,JOL_H_VersionA.csv,"Highlight vs normal A","Highlight vs normal",CLOTHES,ATTIRE,Study1,B,43,80,JOL,User,-,"How likely are you to correctly recall the second item in the pair?|Type your response on a scale from 0-100 and then press Enter.",Study/JOL,"Study Phase",7041,,,4626,5139,,,,98,1
w968356_cj,cs13n18mn1,Nick_Dissertation_EX1,1,83,2020-06-28T20:11:41-07:00,5.0268352031708,5,versionA_stim.csv,JOL_H_VersionA.csv,"Highlight vs normal A","Highlight vs normal",STRONG,ACCIDENT,Study1,U,80,83,JOL,User,-,"How likely are you to correctly recall the second item in the pair?|Type your response on a scale from 0-100 and then press Enter.",Study/JOL,"Study Phase",4742,,,4085,4249,,,,45,1
w968356_cj,cs13n18mn1,Nick_Dissertation_EX1,1,84,2020-06-28T20:11:44-07:00,2.5087349414825,5,versionA_stim.csv,JOL_H_VersionA.csv,"Highlight vs normal A","Highlight vs normal",CIRCLE,ROUND,Study1,S,65,72,JOL,User,-,"How likely are you to correctly recall the second item in the pair?|Type your response on a scale from 0-100 and then press Enter.",Study/JOL,"Study Phase",2222,,,1605,1764,,,,98,1
w968356_cj,cs13n18mn1,Nick_Dissertation_EX1,1,85,2020-06-28T20:11:47-07:00,3.1954860687256,5,versionA_stim.csv,JOL_H_VersionA.csv,"Highlight vs normal A","Highlight vs normal",HORNET,STING,Study1,F,11,62,JOL,User,-,"How likely are you to correctly recall the second item in the pair?|Type your response on a scale from 0-100 and then press Enter.",Study/JOL,"Study Phase",2901,,,2344,2451,,,,76,1
w968356_cj,cs13n18mn1,Nick_Dissertation_EX1,1,86,2020-06-28T20:11:50-07:00,3.1982939243317,5,versionA_stim.csv,JOL_H_VersionA.csv,"Highlight vs normal A","Highlight vs normal",BALL,RACKET,Study1,B,38,26,JOL_H,User,-,"How likely are you to correctly recall the second item in the pair?|Type your response on a scale from 0-100 and then press Enter.",Study/JOL,"Study Phase",2883,,,2135,2307,,,,56,1
w968356_cj,cs13n18mn1,Nick_Dissertation_EX1,1,87,2020-06-28T20:11:56-07:00,5.8030090332031,5,versionA_stim.csv,JOL_H_VersionA.csv,"Highlight vs normal A","Highlight vs normal",SHOE,FOOT,Study1,S,60,17,JOL_H,User,-,"How likely are you to correctly recall the second item in the pair?|Type your response on a scale from 0-100 and then press Enter.",Study/JOL,"Study Phase",5502,,,4914,5092,,,,67,1
w968356_cj,cs13n18mn1,Nick_Dissertation_EX1,1,88,2020-06-28T20:12:00-07:00,4.1992499828339,5,versionA_stim.csv,JOL_H_VersionA.csv,"Highlight vs normal A","Highlight vs normal",KING,VASE,Study1,U,85,46,JOL_H,User,-,"How likely are you to correctly recall the second item in the pair?|Type your response on a scale from 0-100 and then press Enter.",Study/JOL,"Study Phase",3906,,,1392,3540,,,,95,1
w968356_cj,cs13n18mn1,Nick_Dissertation_EX1,1,89,2020-06-28T20:12:27-07:00,26.107461929321,5,versionA_stim.csv,JOL_H_VersionA.csv,"Highlight vs normal A","Highlight vs normal",HUNGER,FAMINE,Study1,B,40,50,JOL,User,-,"How likely are you to correctly recall the second item in the pair?|Type your response on a scale from 0-100 and then press Enter.",Study/JOL,"Study Phase",25813,,,24875,25078,,,,45,1
w968356_cj,cs13n18mn1,Nick_Dissertation_EX1,1,90,2020-06-28T20:12:27-07:00,0.30445098876953,5,versionA_stim.csv,JOL_H_VersionA.csv,"Highlight vs normal A","Highlight vs normal",DUMP,WASTE,Study1,S,49,16,JOL_H,User,-,"How likely are you to correctly recall the second item in the pair?|Type your response on a scale from 0-100 and then press Enter.",Study/JOL,"Study Phase",71,,,-1,-1,,,,,1
w968356_cj,cs13n18mn1,Nick_Dissertation_EX1,1,91,2020-06-28T20:12:29-07:00,2.5520360469818,5,versionA_stim.csv,JOL_H_VersionA.csv,"Highlight vs normal A","Highlight vs normal",SHERRIF,POLICE,BUFFER2,Buffer,87,88,JOL_H,User,-,"How likely are you to correctly recall the second item in the pair?|Type your response on a scale from 0-100 and then press Enter.",Study/JOL,BUFFER2,2268,,,1771,1956,,,,67,1
w968356_cj,cs13n18mn1,Nick_Dissertation_EX1,1,92,2020-06-28T20:16:31-07:00,241.32986903191,5,versionA_stim.csv,JOL_H_VersionA.csv,"Highlight vs normal A","Highlight vs normal",MOON,SPACE,BUFFER2,Buffer,89,90,JOL,User,-,"How likely are you to correctly recall the second item in the pair?|Type your response on a scale from 0-100 and then press Enter.",Study/JOL,BUFFER2,241004,,,240552,240665,,,,88,1
w968356_cj,cs13n18mn1,Nick_Dissertation_EX1,1,93,2020-06-28T20:16:34-07:00,3.7187650203705,5,versionA_stim.csv,JOL_H_VersionA.csv,"Highlight vs normal A","Highlight vs normal",MALT,CHOCOLATE,BUFFER2,Buffer,88,89,JOL_H,User,-,"How likely are you to correctly recall the second item in the pair?|Type your response on a scale from 0-100 and then press Enter.",Study/JOL,BUFFER2,3436,,,2952,3107,,,,67,1
w968356_cj,cs13n18mn1,Nick_Dissertation_EX1,1,94,2020-06-28T20:16:37-07:00,2.8043658733368,5,versionA_stim.csv,JOL_H_VersionA.csv,"Highlight vs normal A","Highlight vs normal",GEESE,GOOSE,BUFFER2,Buffer,86,91,JOL,User,-,"How likely are you to correctly recall the second item in the pair?|Type your response on a scale from 0-100 and then press Enter.",Study/JOL,BUFFER2,2519,,,2055,2222,,,,78,1
w968356_cj,cs13n18mn1,Nick_Dissertation_EX1,1,95,2020-06-28T20:16:39-07:00,2.2239520549774,5,versionA_stim.csv,JOL_H_VersionA.csv,"Highlight vs normal A","Highlight vs normal",THING,STUFF,BUFFER2,Buffer,90,87,JOL_H,User,-,"How likely are you to correctly recall the second item in the pair?|Type your response on a scale from 0-100 and then press Enter.",Study/JOL,BUFFER2,1919,,,1399,1568,,,,56,1
w968356_cj,cs13n18mn1,Nick_Dissertation_EX1,1,96,2020-06-28T20:16:47-07:00,7.4567360877991,5,versionA_stim.csv,JOL_H_VersionA.csv,"Highlight vs normal A","Highlight vs normal",,,,,,0,Instruct,User,-,"You have completed this section. Please press Enter.",Filler_Instruction,Instruct2,7164,,,-1,-1,,,,,1
w968356_cj,cs13n18mn1,Nick_Dissertation_EX1,1,97,2020-06-28T20:18:47-07:00,120.31558585167,5,versionA_stim.csv,JOL_H_VersionA.csv,"Highlight vs normal A","Highlight vs normal",,,,,,0,FreeRecall,120,120,"Please list the 50 US states in alphabetical order. The task will automatically advance to the next screen after two minutes.",,Filler1,120002,"alabama Alaska Arkansas california colorado Connecticut deleware florida Georgia hawaii Idaho Illinois indiana Iowa kansas kentucky Louisiana maine maryland massachussets Michigan Minnesota Mississippi Missouri montana Nebraska Nevada New Hampshire New Jersey me",0,21442,119211,0,0,,,1
w968356_cj,cs13n18mn1,Nick_Dissertation_EX1,1,98,2020-06-28T20:18:58-07:00,10.858798980713,5,versionA_stim.csv,JOL_H_VersionA.csv,"Highlight vs normal A","Highlight vs normal",,,,,,0,Instruct,-,10,"You will now be presented with the first word from each of the previously studied item pairs. Please type the missing word. If you do not know the word, you may guess or press Enter to skip forward to the next pair.",,Instruct3,10579,,,73,73,,,,,1
w968356_cj,cs13n18mn1,Nick_Dissertation_EX1,1,99,2020-06-28T20:19:02-07:00,3.9992380142212,5,versionA_stim.csv,JOL_H_VersionA.csv,"Highlight vs normal A","Highlight vs normal",DUE,ASSIGNMENT,Study1,S,46,34,Test,User,-,,Recall,Recall1,3675,assignment,100,2113,3506,1,1,,,1
w968356_cj,cs13n18mn1,Nick_Dissertation_EX1,1,100,2020-06-28T20:19:05-07:00,2.5135951042175,5,versionA_stim.csv,JOL_H_VersionA.csv,"Highlight vs normal A","Highlight vs normal",PARK,HUNGRY,Study1,U,68,30,Test,User,-,,Recall,Recall1,2039,"hungry ",100,1239,1920,1,1,,,1
w968356_cj,cs13n18mn1,Nick_Dissertation_EX1,1,101,2020-06-28T20:19:07-07:00,2.4503269195557,5,versionA_stim.csv,JOL_H_VersionA.csv,"Highlight vs normal A","Highlight vs normal",ALLOW,TUCK,Study1,U,78,81,Test,User,-,,Recall,Recall1,2108,continue,16.666666666667,1367,1984,0,0,,,1
w968356_cj,cs13n18mn1,Nick_Dissertation_EX1,1,102,2020-06-28T20:19:09-07:00,2.3821730613708,5,versionA_stim.csv,JOL_H_VersionA.csv,"Highlight vs normal A","Highlight vs normal",FIRE,BLAZE,Study1,B,45,64,Test,User,-,,Recall,Recall1,2090,house,20,1442,1941,0,0,,,1
w968356_cj,cs13n18mn1,Nick_Dissertation_EX1,1,103,2020-06-28T20:19:13-07:00,3.197772026062,5,versionA_stim.csv,JOL_H_VersionA.csv,"Highlight vs normal A","Highlight vs normal",SENTENCE,WORD,Study1,B,31,13,Test,User,-,,Recall,Recall1,2902,"phrase ",20,1508,2287,0,0,,,1
w968356_cj,cs13n18mn1,Nick_Dissertation_EX1,1,104,2020-06-28T20:19:37-07:00,24.78710103035,5,versionA_stim.csv,JOL_H_VersionA.csv,"Highlight vs normal A","Highlight vs normal",BITTER,COLD,Study1,F,12,60,Test,User,-,,Recall,Recall1,24503,sweet,0,22217,24367,0,0,,,1
w968356_cj,cs13n18mn1,Nick_Dissertation_EX1,1,105,2020-06-28T20:19:41-07:00,3.3485488891602,5,versionA_stim.csv,JOL_H_VersionA.csv,"Highlight vs normal A","Highlight vs normal",DELINQUENT,BAD,Study1,F,6,37,Test,User,-,,Recall,Recall1,3044,"juvenile ",0,1171,2878,0,0,,,1
w968356_cj,cs13n18mn1,Nick_Dissertation_EX1,1,106,2020-06-28T20:19:43-07:00,2.4642820358276,5,versionA_stim.csv,JOL_H_VersionA.csv,"Highlight vs normal A","Highlight vs normal",DARK,CAVE,Study1,B,28,67,Test,User,-,,Recall,Recall1,2176,bright,0,1682,2083,0,0,,,1
w968356_cj,cs13n18mn1,Nick_Dissertation_EX1,1,107,2020-06-28T20:19:46-07:00,2.446986913681,5,versionA_stim.csv,JOL_H_VersionA.csv,"Highlight vs normal A","Highlight vs normal",PLANE,PILOT,Study1,B,44,53,Test,User,-,,Recall,Recall1,2150,pilot,100,1271,2007,1,1,,,1
w968356_cj,cs13n18mn1,Nick_Dissertation_EX1,1,108,2020-06-28T20:19:48-07:00,1.8871331214905,5,versionA_stim.csv,JOL_H_VersionA.csv,"Highlight vs normal A","Highlight vs normal",BRIDGE,WATER,Study1,F,18,68,Test,User,-,,Recall,Recall1,1568,water,100,941,1419,1,1,,,1
w968356_cj,cs13n18mn1,Nick_Dissertation_EX1,1,109,2020-06-28T20:19:51-07:00,3.7271449565887,5,versionA_stim.csv,JOL_H_VersionA.csv,"Highlight vs normal A","Highlight vs normal",CLOTHES,ATTIRE,Study1,B,43,80,Test,User,-,,Recall,Recall1,3421,laundry,30.769230769231,1715,3228,0,0,,,1
w968356_cj,cs13n18mn1,Nick_Dissertation_EX1,1,110,2020-06-28T20:19:56-07:00,4.4094619750977,5,versionA_stim.csv,JOL_H_VersionA.csv,"Highlight vs normal A","Highlight vs normal",DRINK,SIP,Study1,B,27,85,Test,User,-,,Recall,Recall1,4111,beverage,0,2913,3977,0,0,,,1
w968356_cj,cs13n18mn1,Nick_Dissertation_EX1,1,111,2020-06-28T20:20:00-07:00,4.4482309818268,5,versionA_stim.csv,JOL_H_VersionA.csv,"Highlight vs normal A","Highlight vs normal",DISCUSSION,TALK,Study1,F,21,52,Test,User,-,,Recall,Recall1,4128,board,22.222222222222,3592,4026,0,0,,,1
w968356_cj,cs13n18mn1,Nick_Dissertation_EX1,1,112,2020-06-28T20:20:03-07:00,3.1553471088409,5,versionA_stim.csv,JOL_H_VersionA.csv,"Highlight vs normal A","Highlight vs normal",HYGIENE,CLEAN,Study1,F,17,47,Test,User,-,,Recall,Recall1,2859,bath,22.222222222222,2064,2400,0,0,,,1
w968356_cj,cs13n18mn1,Nick_Dissertation_EX1,1,113,2020-06-28T20:20:05-07:00,2.0763778686523,5,versionA_stim.csv,JOL_H_VersionA.csv,"Highlight vs normal A","Highlight vs normal",FIX,HAND,Study1,U,75,11,Test,User,-,,Recall,Recall1,1765,broke,0,1218,1560,0,0,,,1
w968356_cj,cs13n18mn1,Nick_Dissertation_EX1,1,114,2020-06-28T20:20:11-07:00,5.4056060314178,5,versionA_stim.csv,JOL_H_VersionA.csv,"Highlight vs normal A","Highlight vs normal",MATH,DIVISION,Study1,B,33,40,Test,User,-,,Recall,Recall1,5061,science,40,1199,4888,0,0,,,1
w968356_cj,cs13n18mn1,Nick_Dissertation_EX1,1,115,2020-06-28T20:20:14-07:00,3.2275240421295,5,versionA_stim.csv,JOL_H_VersionA.csv,"Highlight vs normal A","Highlight vs normal",KIDNEY,LIVER,Study1,S,53,20,Test,User,-,,Recall,Recall1,2923,stone,20,997,2856,0,0,,,1
w968356_cj,cs13n18mn1,Nick_Dissertation_EX1,1,116,2020-06-28T20:20:16-07:00,1.7384870052338,5,versionA_stim.csv,JOL_H_VersionA.csv,"Highlight vs normal A","Highlight vs normal",HERD,COW,Study1,F,22,82,Test,User,-,,Recall,Recall1,1430,cow,100,1102,1322,1,1,,,1
w968356_cj,cs13n18mn1,Nick_Dissertation_EX1,1,117,2020-06-28T20:20:18-07:00,1.9444000720978,5,versionA_stim.csv,JOL_H_VersionA.csv,"Highlight vs normal A","Highlight vs normal",DISCOVER,FLOOR,Study1,U,71,54,Test,User,-,,Recall,Recall1,1646,find,22.222222222222,1338,1579,0,0,,,1
w968356_cj,cs13n18mn1,Nick_Dissertation_EX1,1,118,2020-06-28T20:20:20-07:00,2.3906278610229,5,versionA_stim.csv,JOL_H_VersionA.csv,"Highlight vs normal A","Highlight vs normal",BUG,WASP,Study1,B,32,76,Test,User,-,,Recall,Recall1,2079,removal,18.181818181818,1146,1906,0,0,,,1
w968356_cj,cs13n18mn1,Nick_Dissertation_EX1,1,119,2020-06-28T20:20:22-07:00,2.2524700164795,5,versionA_stim.csv,JOL_H_VersionA.csv,"Highlight vs normal A","Highlight vs normal",BEGIN,END,Study1,S,54,56,Test,User,-,,Recall,Recall1,1960,end,100,1302,1491,1,1,,,1
w968356_cj,cs13n18mn1,Nick_Dissertation_EX1,1,120,2020-06-28T20:20:25-07:00,3.0538280010223,5,versionA_stim.csv,JOL_H_VersionA.csv,"Highlight vs normal A","Highlight vs normal",STRONG,ACCIDENT,Study1,U,80,83,Test,User,-,,Recall,Recall1,2758,weak,16.666666666667,1701,2643,0,0,,,1
w968356_cj,cs13n18mn1,Nick_Dissertation_EX1,1,121,2020-06-28T20:20:28-07:00,2.1527900695801,5,versionA_stim.csv,JOL_H_VersionA.csv,"Highlight vs normal A","Highlight vs normal",LETTUCE,SALAD,Study1,S,59,45,Test,User,-,,Recall,Recall1,1848,salad,100,1183,1717,1,1,,,1
w968356_cj,cs13n18mn1,Nick_Dissertation_EX1,1,122,2020-06-28T20:20:30-07:00,2.811243057251,5,versionA_stim.csv,JOL_H_VersionA.csv,"Highlight vs normal A","Highlight vs normal",DIGESTION,STOMACH,Study1,F,7,44,Test,User,-,,Recall,Recall1,2501,poop,18.181818181818,1893,2353,0,0,,,1
w968356_cj,cs13n18mn1,Nick_Dissertation_EX1,1,123,2020-06-28T20:20:33-07:00,2.6096258163452,5,versionA_stim.csv,JOL_H_VersionA.csv,"Highlight vs normal A","Highlight vs normal",VALLEY,ADD,Study1,U,82,27,Test,User,-,,Recall,Recall1,2320,mountain,18.181818181818,1457,2219,0,0,,,1
w968356_cj,cs13n18mn1,Nick_Dissertation_EX1,1,124,2020-06-28T20:20:35-07:00,2.4829080104828,5,versionA_stim.csv,JOL_H_VersionA.csv,"Highlight vs normal A","Highlight vs normal",DEATH,BUSINESS,Study1,U,72,84,Test,User,-,,Recall,Recall1,2185,alive,30.769230769231,1454,2023,0,0,,,1
w968356_cj,cs13n18mn1,Nick_Dissertation_EX1,1,125,2020-06-28T20:20:38-07:00,2.6808271408081,5,versionA_stim.csv,JOL_H_VersionA.csv,"Highlight vs normal A","Highlight vs normal",SUGAR,RIDDLE,Study1,U,81,51,Test,User,-,,Recall,Recall1,2339,sour,20,1530,2223,0,0,,,1
w968356_cj,cs13n18mn1,Nick_Dissertation_EX1,1,126,2020-06-28T20:20:40-07:00,1.9376149177551,5,versionA_stim.csv,JOL_H_VersionA.csv,"Highlight vs normal A","Highlight vs normal",ROOT,PLANT,Study1,F,13,66,Test,User,-,,Recall,Recall1,1646,plant,100,1082,1567,1,1,,,1
w968356_cj,cs13n18mn1,Nick_Dissertation_EX1,1,127,2020-06-28T20:20:42-07:00,1.7733659744263,5,versionA_stim.csv,JOL_H_VersionA.csv,"Highlight vs normal A","Highlight vs normal",TAKE,SEIZE,Study1,B,29,65,Test,User,-,,Recall,Recall1,1461,gie,50,1132,1390,0,0,,,1
w968356_cj,cs13n18mn1,Nick_Dissertation_EX1,1,128,2020-06-28T20:20:44-07:00,2.6541311740875,5,versionA_stim.csv,JOL_H_VersionA.csv,"Highlight vs normal A","Highlight vs normal",ORCHID,FLOWER,Study1,F,24,55,Test,User,-,,Recall,Recall1,2358,flower,100,1526,2234,1,1,,,1
w968356_cj,cs13n18mn1,Nick_Dissertation_EX1,1,129,2020-06-28T20:20:48-07:00,3.5565838813782,5,versionA_stim.csv,JOL_H_VersionA.csv,"Highlight vs normal A","Highlight vs normal",KEY,LATCH,Study1,B,36,79,Test,User,-,,Recall,Recall1,3270,lock,44.444444444444,2479,2865,0,0,,,1
w968356_cj,cs13n18mn1,Nick_Dissertation_EX1,1,130,2020-06-28T20:20:51-07:00,3.1756269931793,5,versionA_stim.csv,JOL_H_VersionA.csv,"Highlight vs normal A","Highlight vs normal",LOCATION,SITE,Study1,S,48,29,Test,User,-,,Recall,Recall1,2896,direction,30.769230769231,1783,2756,0,0,,,1
w968356_cj,cs13n18mn1,Nick_Dissertation_EX1,1,131,2020-06-28T20:20:54-07:00,2.537565946579,5,versionA_stim.csv,JOL_H_VersionA.csv,"Highlight vs normal A","Highlight vs normal",NUMBER,AMOUNT,Study1,S,47,41,Test,User,-,,Recall,Recall1,2249,time,20,1831,2115,0,0,,,1
w968356_cj,cs13n18mn1,Nick_Dissertation_EX1,1,132,2020-06-28T20:20:56-07:00,2.0320711135864,5,versionA_stim.csv,JOL_H_VersionA.csv,"Highlight vs normal A","Highlight vs normal",LIFT,WOMAN,Study1,U,69,21,Test,User,-,,Recall,Recall1,1732,ride,0,1355,1629,0,0,,,1
w968356_cj,cs13n18mn1,Nick_Dissertation_EX1,1,133,2020-06-28T20:20:57-07:00,1.7162730693817,5,versionA_stim.csv,JOL_H_VersionA.csv,"Highlight vs normal A","Highlight vs normal",WORK,CHORE,Study1,B,39,48,Test,User,-,,Recall,Recall1,1415,place,40,934,1369,0,0,,,1
w968356_cj,cs13n18mn1,Nick_Dissertation_EX1,1,134,2020-06-28T20:21:00-07:00,2.7914929389954,5,versionA_stim.csv,JOL_H_VersionA.csv,"Highlight vs normal A","Highlight vs normal",TRIAL,JURY,Study1,S,50,38,Test,User,-,,Recall,Recall1,2496,court,44.444444444444,1552,2095,0,0,,,1
w968356_cj,cs13n18mn1,Nick_Dissertation_EX1,1,135,2020-06-28T20:21:02-07:00,1.9595260620117,5,versionA_stim.csv,JOL_H_VersionA.csv,"Highlight vs normal A","Highlight vs normal",HIDE,SICK,Study1,U,84,10,Test,User,-,,Recall,Recall1,1678,seek,50,1160,1547,0,0,,,1
w968356_cj,cs13n18mn1,Nick_Dissertation_EX1,1,136,2020-06-28T20:21:06-07:00,3.2660357952118,5,versionA_stim.csv,JOL_H_VersionA.csv,"Highlight vs normal A","Highlight vs normal",ARCHITECTURE,DESIGN,Study1,S,51,57,Test,User,-,,Recall,Recall1,2963,land,20,2273,2782,0,0,,,1
w968356_cj,cs13n18mn1,Nick_Dissertation_EX1,1,137,2020-06-28T20:21:09-07:00,3.653834104538,5,versionA_stim.csv,JOL_H_VersionA.csv,"Highlight vs normal A","Highlight vs normal",REVOLUTION,WAR,Study1,F,20,86,Test,User,-,,Recall,Recall1,3365,war,100,2972,3232,1,1,,,1
w968356_cj,cs13n18mn1,Nick_Dissertation_EX1,1,138,2020-06-28T20:21:12-07:00,2.8143429756165,5,versionA_stim.csv,JOL_H_VersionA.csv,"Highlight vs normal A","Highlight vs normal",ART,LION,Study1,U,79,43,Test,User,-,,Recall,Recall1,2527,piece,22.222222222222,1114,2377,0,0,,,1
w968356_cj,cs13n18mn1,Nick_Dissertation_EX1,1,139,2020-06-28T20:21:15-07:00,3.444983959198,5,versionA_stim.csv,JOL_H_VersionA.csv,"Highlight vs normal A","Highlight vs normal",MEANING,DEFINITION,Study1,S,62,18,Test,User,-,,Recall,Recall1,3155,beautiful,31.578947368421,1357,3012,0,0,,,1
w968356_cj,cs13n18mn1,Nick_Dissertation_EX1,1,140,2020-06-28T20:21:17-07:00,1.9596271514893,5,versionA_stim.csv,JOL_H_VersionA.csv,"Highlight vs normal A","Highlight vs normal",SHOE,FOOT,Study1,S,60,17,Test,User,-,,Recall,Recall1,1665,game,0,1080,1536,0,0,,,1
w968356_cj,cs13n18mn1,Nick_Dissertation_EX1,1,141,2020-06-28T20:21:23-07:00,5.4298357963562,5,versionA_stim.csv,JOL_H_VersionA.csv,"Highlight vs normal A","Highlight vs normal",PAW,DOG,Study1,F,15,58,Test,User,-,,Recall,Recall1,5118,pup,0,4625,4921,0,0,,,1
w968356_cj,cs13n18mn1,Nick_Dissertation_EX1,1,142,2020-06-28T20:21:27-07:00,4.2875950336456,5,versionA_stim.csv,JOL_H_VersionA.csv,"Highlight vs normal A","Highlight vs normal",ARTERY,BRONZE,Study1,U,74,31,Test,User,-,,Recall,Recall1,3991,clog,20,2042,3548,0,0,,,1
w968356_cj,cs13n18mn1,Nick_Dissertation_EX1,1,143,2020-06-28T20:21:29-07:00,2.2683160305023,5,versionA_stim.csv,JOL_H_VersionA.csv,"Highlight vs normal A","Highlight vs normal",WINE,CHEESE,Study1,S,57,7,Test,User,-,,Recall,Recall1,1972,drink,0,1271,1772,0,0,,,1
w968356_cj,cs13n18mn1,Nick_Dissertation_EX1,1,144,2020-06-28T20:21:32-07:00,2.6966769695282,5,versionA_stim.csv,JOL_H_VersionA.csv,"Highlight vs normal A","Highlight vs normal",BATHROOM,TOILET,Study1,S,58,75,Test,User,-,,Recall,Recall1,2406,sink,20,1116,2270,0,0,,,1
w968356_cj,cs13n18mn1,Nick_Dissertation_EX1,1,145,2020-06-28T20:21:34-07:00,2.1958651542664,5,versionA_stim.csv,JOL_H_VersionA.csv,"Highlight vs normal A","Highlight vs normal",WAY,OUT,Study1,F,16,70,Test,User,-,,Recall,Recall1,1898,find,0,1528,1772,0,0,,,1
w968356_cj,cs13n18mn1,Nick_Dissertation_EX1,1,146,2020-06-28T20:21:36-07:00,2.0999150276184,5,versionA_stim.csv,JOL_H_VersionA.csv,"Highlight vs normal A","Highlight vs normal",MACHINE,POSITION,Study1,U,76,49,Test,User,-,,Recall,Recall1,1798,water,15.384615384615,1105,1660,0,0,,,1
w968356_cj,cs13n18mn1,Nick_Dissertation_EX1,1,147,2020-06-28T20:21:39-07:00,2.3258399963379,5,versionA_stim.csv,JOL_H_VersionA.csv,"Highlight vs normal A","Highlight vs normal",CIRCLE,ROUND,Study1,S,65,72,Test,User,-,,Recall,Recall1,2027,step,0,1525,1855,0,0,,,1
w968356_cj,cs13n18mn1,Nick_Dissertation_EX1,1,148,2020-06-28T20:21:41-07:00,1.8386340141296,5,versionA_stim.csv,JOL_H_VersionA.csv,"Highlight vs normal A","Highlight vs normal",KING,VASE,Study1,U,85,46,Test,User,-,,Recall,Recall1,1540,wueen,22.222222222222,889,1385,0,0,,,1
w968356_cj,cs13n18mn1,Nick_Dissertation_EX1,1,149,2020-06-28T20:21:44-07:00,3.3051719665527,5,versionA_stim.csv,JOL_H_VersionA.csv,"Highlight vs normal A","Highlight vs normal",PUSHER,CLUTTER,Study1,U,66,8,Test,User,-,,Recall,Recall1,3004,,0,2020,2020,0,0,,,1
w968356_cj,cs13n18mn1,Nick_Dissertation_EX1,1,150,2020-06-28T20:21:46-07:00,2.1885209083557,5,versionA_stim.csv,JOL_H_VersionA.csv,"Highlight vs normal A","Highlight vs normal",PAST,FUTURE,Study1,S,61,12,Test,User,-,,Recall,Recall1,1888,present,30.769230769231,1170,1779,0,0,,,1
w968356_cj,cs13n18mn1,Nick_Dissertation_EX1,1,151,2020-06-28T20:21:48-07:00,1.6810660362244,5,versionA_stim.csv,JOL_H_VersionA.csv,"Highlight vs normal A","Highlight vs normal",TUNA,FISH,Study1,F,25,42,Test,User,-,,Recall,Recall1,1363,fisah,88.888888888889,888,1173,0,1,,,1
w968356_cj,cs13n18mn1,Nick_Dissertation_EX1,1,152,2020-06-28T20:21:50-07:00,2.3099548816681,5,versionA_stim.csv,JOL_H_VersionA.csv,"Highlight vs normal A","Highlight vs normal",CREDIT,CARD,Study1,F,23,63,Test,User,-,,Recall,Recall1,2024,score,44.444444444444,1020,1953,0,0,,,1
w968356_cj,cs13n18mn1,Nick_Dissertation_EX1,1,153,2020-06-28T20:21:54-07:00,3.5118479728699,5,versionA_stim.csv,JOL_H_VersionA.csv,"Highlight vs normal A","Highlight vs normal",LAW,ATTORNEY,Study1,B,34,9,Test,User,-,,Recall,Recall1,3182,school,14.285714285714,1809,3045,0,0,,,1
w968356_cj,cs13n18mn1,Nick_Dissertation_EX1,1,154,2020-06-28T20:21:57-07:00,3.9449892044067,5,versionA_stim.csv,JOL_H_VersionA.csv,"Highlight vs normal A","Highlight vs normal",WAGE,MONEY,Study1,F,8,36,Test,User,-,,Recall,Recall1,3663,salary,18.181818181818,1325,3462,0,0,,,1
w968356_cj,cs13n18mn1,Nick_Dissertation_EX1,1,155,2020-06-28T20:22:02-07:00,4.6867167949677,5,versionA_stim.csv,JOL_H_VersionA.csv,"Highlight vs normal A","Highlight vs normal",CHISEL,HAMMER,Study1,F,9,61,Test,User,-,,Recall,Recall1,4381,make,40,4029,4264,0,0,,,1
w968356_cj,cs13n18mn1,Nick_Dissertation_EX1,1,156,2020-06-28T20:22:05-07:00,3.1216180324554,5,versionA_stim.csv,JOL_H_VersionA.csv,"Highlight vs normal A","Highlight vs normal",SLEEP,DROWSY,Study1,B,41,69,Test,User,-,,Recall,Recall1,2459,wake,20,1914,2332,0,0,,,1
w968356_cj,cs13n18mn1,Nick_Dissertation_EX1,1,157,2020-06-28T20:22:08-07:00,2.7204630374908,5,versionA_stim.csv,JOL_H_VersionA.csv,"Highlight vs normal A","Highlight vs normal",HUNGER,FAMINE,Study1,B,40,50,Test,User,-,,Recall,Recall1,2418,eat,22.222222222222,2008,2256,0,0,,,1
w968356_cj,cs13n18mn1,Nick_Dissertation_EX1,1,158,2020-06-28T20:22:11-07:00,2.6688439846039,5,versionA_stim.csv,JOL_H_VersionA.csv,"Highlight vs normal A","Highlight vs normal",SOON,BELT,Study1,U,70,15,Test,User,-,,Recall,Recall1,2383,enough,20,1739,2213,0,0,,,1
w968356_cj,cs13n18mn1,Nick_Dissertation_EX1,1,159,2020-06-28T20:22:13-07:00,2.6038041114807,5,versionA_stim.csv,JOL_H_VersionA.csv,"Highlight vs normal A","Highlight vs normal",SWAN,BIRD,Study1,F,14,22,Test,User,-,,Recall,Recall1,2305,bird,100,1773,2157,1,1,,,1
w968356_cj,cs13n18mn1,Nick_Dissertation_EX1,1,160,2020-06-28T20:22:16-07:00,2.4499049186707,5,versionA_stim.csv,JOL_H_VersionA.csv,"Highlight vs normal A","Highlight vs normal",HONEY,BEE,Study1,S,63,14,Test,User,-,,Recall,Recall1,2127,badger,44.444444444444,1350,1977,0,0,,,1
w968356_cj,cs13n18mn1,Nick_Dissertation_EX1,1,161,2020-06-28T20:22:18-07:00,1.8404591083527,5,versionA_stim.csv,JOL_H_VersionA.csv,"Highlight vs normal A","Highlight vs normal",HEIGHT,GROWTH,Study1,B,30,73,Test,User,-,,Recall,Recall1,1519,weight,33.333333333333,829,1324,0,0,,,1
w968356_cj,cs13n18mn1,Nick_Dissertation_EX1,1,162,2020-06-28T20:22:20-07:00,2.6548569202423,5,versionA_stim.csv,JOL_H_VersionA.csv,"Highlight vs normal A","Highlight vs normal",BLOW,WIND,Study1,S,55,35,Test,User,-,,Recall,Recall1,2365,smoke,0,1859,2270,0,0,,,1
w968356_cj,cs13n18mn1,Nick_Dissertation_EX1,1,163,2020-06-28T20:22:29-07:00,8.7933459281921,5,versionA_stim.csv,JOL_H_VersionA.csv,"Highlight vs normal A","Highlight vs normal",HOT,CHILI,Study1,B,37,28,Test,User,-,,Recall,Recall1,8473,cold,44.444444444444,7605,8402,0,0,,,1
w968356_cj,cs13n18mn1,Nick_Dissertation_EX1,1,164,2020-06-28T20:22:35-07:00,5.9574081897736,5,versionA_stim.csv,JOL_H_VersionA.csv,"Highlight vs normal A","Highlight vs normal",DEBATE,SIGHT,Study1,U,73,24,Test,User,-,,Recall,Recall1,5672,ponder,0,3719,5519,0,0,,,1
w968356_cj,cs13n18mn1,Nick_Dissertation_EX1,1,165,2020-06-28T20:22:37-07:00,2.2518408298492,5,versionA_stim.csv,JOL_H_VersionA.csv,"Highlight vs normal A","Highlight vs normal",CASH,WOULD,Study1,U,83,32,Test,User,-,,Recall,Recall1,1962,coin,22.222222222222,1413,1763,0,0,,,1
w968356_cj,cs13n18mn1,Nick_Dissertation_EX1,1,166,2020-06-28T20:22:40-07:00,2.5731930732727,5,versionA_stim.csv,JOL_H_VersionA.csv,"Highlight vs normal A","Highlight vs normal",EDITOR,NEWS,Study1,F,10,19,Test,User,-,,Recall,Recall1,2286,writer,20,1459,2115,0,0,,,1
w968356_cj,cs13n18mn1,Nick_Dissertation_EX1,1,167,2020-06-28T20:22:42-07:00,2.3613228797913,5,versionA_stim.csv,JOL_H_VersionA.csv,"Highlight vs normal A","Highlight vs normal",SMELL,STENCH,Study1,B,42,78,Test,User,-,,Recall,Recall1,2063,sene,60,1558,1967,0,0,,,1
w968356_cj,cs13n18mn1,Nick_Dissertation_EX1,1,168,2020-06-28T20:22:47-07:00,4.5355250835419,5,versionA_stim.csv,JOL_H_VersionA.csv,"Highlight vs normal A","Highlight vs normal",GEOLOGY,ROCK,Study1,F,19,25,Test,User,-,,Recall,Recall1,4241,rock,100,2475,2922,1,1,,,1
w968356_cj,cs13n18mn1,Nick_Dissertation_EX1,1,169,2020-06-28T20:23:16-07:00,29.255192995071,5,versionA_stim.csv,JOL_H_VersionA.csv,"Highlight vs normal A","Highlight vs normal",HORNET,STING,Study1,F,11,62,Test,User,-,,Recall,Recall1,28970,bee,0,28538,28799,0,0,,,1
w968356_cj,cs13n18mn1,Nick_Dissertation_EX1,1,170,2020-06-28T20:23:24-07:00,7.5576369762421,5,versionA_stim.csv,JOL_H_VersionA.csv,"Highlight vs normal A","Highlight vs normal",DIETARY,SACKING,Study1,U,67,59,Test,User,-,,Recall,Recall1,7264,plan,36.363636363636,6616,7053,0,0,,,1
w968356_cj,cs13n18mn1,Nick_Dissertation_EX1,1,171,2020-06-28T20:23:38-07:00,14.624264001846,5,versionA_stim.csv,JOL_H_VersionA.csv,"Highlight vs normal A","Highlight vs normal",GREAT,FANTASTIC,Study1,B,35,23,Test,User,-,,Recall,Recall1,14319,rumor,0,13582,14073,0,0,,,1
w968356_cj,cs13n18mn1,Nick_Dissertation_EX1,1,172,2020-06-28T20:23:42-07:00,3.9868249893188,5,versionA_stim.csv,JOL_H_VersionA.csv,"Highlight vs normal A","Highlight vs normal",FULL,ENOUGH,Study1,B,26,33,Test,User,-,,Recall,Recall1,3692,empty,18.181818181818,2972,3537,0,0,,,1
w968356_cj,cs13n18mn1,Nick_Dissertation_EX1,1,173,2020-06-28T20:24:01-07:00,18.707550048828,5,versionA_stim.csv,JOL_H_VersionA.csv,"Highlight vs normal A","Highlight vs normal",HAPPY,CAR,Study1,U,77,77,Test,User,-,,Recall,Recall1,18408,sad,33.333333333333,17993,18272,0,0,,,1
w968356_cj,cs13n18mn1,Nick_Dissertation_EX1,1,174,2020-06-28T20:24:03-07:00,2.6020450592041,5,versionA_stim.csv,JOL_H_VersionA.csv,"Highlight vs normal A","Highlight vs normal",DUMP,WASTE,Study1,S,49,16,Test,User,-,,Recall,Recall1,2272,truck,20,1155,2128,0,0,,,1
w968356_cj,cs13n18mn1,Nick_Dissertation_EX1,1,175,2020-06-28T20:24:10-07:00,6.5403740406036,5,versionA_stim.csv,JOL_H_VersionA.csv,"Highlight vs normal A","Highlight vs normal",BABY,CHILD,Study1,S,64,39,Test,User,-,,Recall,Recall1,6234,back,22.222222222222,5802,6084,0,0,,,1
w968356_cj,cs13n18mn1,Nick_Dissertation_EX1,1,176,2020-06-28T20:24:13-07:00,2.5901358127594,5,versionA_stim.csv,JOL_H_VersionA.csv,"Highlight vs normal A","Highlight vs normal",POP,SODA,Study1,S,56,71,Test,User,-,,Recall,Recall1,2304,socket,40,1553,2118,0,0,,,1
w968356_cj,cs13n18mn1,Nick_Dissertation_EX1,1,177,2020-06-28T20:24:15-07:00,2.18998503685,5,versionA_stim.csv,JOL_H_VersionA.csv,"Highlight vs normal A","Highlight vs normal",GRILL,BAR,Study1,S,52,74,Test,User,-,,Recall,Recall1,1882,mate,28.571428571429,1430,1734,0,0,,,1
w968356_cj,cs13n18mn1,Nick_Dissertation_EX1,1,178,2020-06-28T20:24:22-07:00,7.239000082016,5,versionA_stim.csv,JOL_H_VersionA.csv,"Highlight vs normal A","Highlight vs normal",BALL,RACKET,Study1,B,38,26,Test,User,-,,Recall,Recall1,6937,"game ",40,6273,6754,0,0,,,1
w968356_cj,cs13n18mn1,Nick_Dissertation_EX1,1,179,2020-06-28T20:24:46-07:00,24.362611055374,5,versionA_stim.csv,JOL_H_VersionA.csv,"Highlight vs normal A","Highlight vs normal",,,,,,0,Instruct,-,10,"You will now be presented with a new set of word pairs. Please study each pair. Remember that your memory will be tested! When finished, press Enter to move to the next pair.",Initial_Instruct,Instruct4,24070,,,-1,-1,,,,,1
w968356_cj,cs13n18mn1,Nick_Dissertation_EX1,1,180,2020-06-28T20:25:13-07:00,26.968175888062,5,versionA_stim.csv,JOL_H_VersionA.csv,"Highlight vs normal A","Highlight vs normal",,,,,,0,Instruct,,10,"You will again be asked to rate your ability to remember these items using a 0 to 100 scale. Remember to use the full range of the scale!",,Instruct10,26667,,,-1,-1,,,,,1
w968356_cj,cs13n18mn1,Nick_Dissertation_EX1,1,181,2020-06-28T20:25:21-07:00,7.2015480995178,5,versionA_stim.csv,JOL_H_VersionA.csv,"Highlight vs normal A","Highlight vs normal",,,,,,0,Instruct,User,-,"Press Enter when you are readty to begin",,Instruct11,6879,,,-1,-1,,,,,1
w968356_cj,cs13n18mn1,Nick_Dissertation_EX1,1,182,2020-06-28T20:25:25-07:00,4.3520400524139,5,versionA_stim.csv,JOL_H_VersionA.csv,"Highlight vs normal A","Highlight vs normal",CAMP,ADVENTURE,BUFFER3,Buffer,95,92,JOL,User,-,"How likely are you to correctly recall the second item in the pair?|Type your response on a scale from 0-100 and then press Enter.",Study/JOL,BUFFER3,4042,,,3036,3163,,,,67,1
w968356_cj,cs13n18mn1,Nick_Dissertation_EX1,1,183,2020-06-28T20:25:28-07:00,2.7852349281311,5,versionA_stim.csv,JOL_H_VersionA.csv,"Highlight vs normal A","Highlight vs normal",ICE,FROZEN,BUFFER3,Buffer,94,94,JOL_H,User,-,"How likely are you to correctly recall the second item in the pair?|Type your response on a scale from 0-100 and then press Enter.",Study/JOL,BUFFER3,2465,,,1535,1627,,,,34,1
w968356_cj,cs13n18mn1,Nick_Dissertation_EX1,1,184,2020-06-28T20:25:30-07:00,2.8163859844208,5,versionA_stim.csv,JOL_H_VersionA.csv,"Highlight vs normal A","Highlight vs normal",CARROT,POTATO,BUFFER3,Buffer,91,96,JOL_H,User,-,"How likely are you to correctly recall the second item in the pair?|Type your response on a scale from 0-100 and then press Enter.",Study/JOL,BUFFER3,2510,,,1410,1740,,,,56,1
w968356_cj,cs13n18mn1,Nick_Dissertation_EX1,1,185,2020-06-28T20:25:34-07:00,3.3235840797424,5,versionA_stim.csv,JOL_H_VersionA.csv,"Highlight vs normal A","Highlight vs normal",NOODLE,STRING,BUFFER3,Buffer,92,93,JOL,User,-,"How likely are you to correctly recall the second item in the pair?|Type your response on a scale from 0-100 and then press Enter.",Study/JOL,BUFFER3,3032,,,2138,2396,,,,76,1
w968356_cj,cs13n18mn1,Nick_Dissertation_EX1,1,186,2020-06-28T20:25:37-07:00,3.3872578144073,5,versionA_stim.csv,JOL_H_VersionA.csv,"Highlight vs normal A","Highlight vs normal",SHRIMP,FISH,BUFFER3,Buffer,93,95,JOL_H,User,-,"How likely are you to correctly recall the second item in the pair?|Type your response on a scale from 0-100 and then press Enter.",Study/JOL,BUFFER3,3083,,,2039,2272,,,,76,1
w968356_cj,cs13n18mn1,Nick_Dissertation_EX1,1,187,2020-06-28T20:25:43-07:00,5.7470409870148,5,versionA_stim.csv,JOL_H_VersionA.csv,"Highlight vs normal A","Highlight vs normal",BOTH,OUNCE,Study2,U,172,137,JOL,User,-,"How likely are you to correctly recall the second item in the pair?|Type your response on a scale from 0-100 and then press Enter.",Study/JOL,"Study Phase2",5447,,,4381,4649,,,,45,1
w968356_cj,cs13n18mn1,Nick_Dissertation_EX1,1,188,2020-06-28T20:25:46-07:00,2.9054510593414,5,versionA_stim.csv,JOL_H_VersionA.csv,"Highlight vs normal A","Highlight vs normal",WATER,DRINK,Study2,S,143,99,JOL_H,User,-,"How likely are you to correctly recall the second item in the pair?|Type your response on a scale from 0-100 and then press Enter.",Study/JOL,"Study Phase2",2619,,,1600,1773,,,,68,1
w968356_cj,cs13n18mn1,Nick_Dissertation_EX1,1,189,2020-06-28T20:25:49-07:00,3.6333160400391,5,versionA_stim.csv,JOL_H_VersionA.csv,"Highlight vs normal A","Highlight vs normal",SCALP,HEAD,Study2,F,105,102,JOL_H,User,-,"How likely are you to correctly recall the second item in the pair?|Type your response on a scale from 0-100 and then press Enter.",Study/JOL,"Study Phase2",3341,,,2442,2597,,,,79,1
w968356_cj,cs13n18mn1,Nick_Dissertation_EX1,1,190,2020-06-28T20:25:55-07:00,5.6302239894867,5,versionA_stim.csv,JOL_H_VersionA.csv,"Highlight vs normal A","Highlight vs normal",DRY,WET,Study2,S,146,168,JOL,User,-,"How likely are you to correctly recall the second item in the pair?|Type your response on a scale from 0-100 and then press Enter.",Study/JOL,"Study Phase2",5341,,,4005,4267,,,,65,1
w968356_cj,cs13n18mn1,Nick_Dissertation_EX1,1,191,2020-06-28T20:26:01-07:00,5.761971950531,5,versionA_stim.csv,JOL_H_VersionA.csv,"Highlight vs normal A","Highlight vs normal",FUZZY,BANG,Study2,U,168,148,JOL,User,-,"How likely are you to correctly recall the second item in the pair?|Type your response on a scale from 0-100 and then press Enter.",Study/JOL,"Study Phase2",5466,,,4632,4788,,,,89,1
w968356_cj,cs13n18mn1,Nick_Dissertation_EX1,1,192,2020-06-28T20:26:04-07:00,3.2361669540405,5,versionA_stim.csv,JOL_H_VersionA.csv,"Highlight vs normal A","Highlight vs normal",DRIVER,CAR,Study2,F,106,157,JOL,User,-,"How likely are you to correctly recall the second item in the pair?|Type your response on a scale from 0-100 and then press Enter.",Study/JOL,"Study Phase2",2946,,,2051,2302,,,,45,1
w968356_cj,cs13n18mn1,Nick_Dissertation_EX1,1,193,2020-06-28T20:26:08-07:00,4.1299450397491,5,versionA_stim.csv,JOL_H_VersionA.csv,"Highlight vs normal A","Highlight vs normal",EARTH,GROUND,Study2,S,144,105,JOL_H,User,-,"How likely are you to correctly recall the second item in the pair?|Type your response on a scale from 0-100 and then press Enter.",Study/JOL,"Study Phase2",3834,,,2877,3318,,,,79,1
w968356_cj,cs13n18mn1,Nick_Dissertation_EX1,1,194,2020-06-28T20:26:15-07:00,6.9265830516815,5,versionA_stim.csv,JOL_H_VersionA.csv,"Highlight vs normal A","Highlight vs normal",TANTRUM,TEMPER,Study2,S,154,98,JOL_H,User,-,"How likely are you to correctly recall the second item in the pair?|Type your response on a scale from 0-100 and then press Enter.",Study/JOL,"Study Phase2",6647,,,5339,5984,,,,57,1
w968356_cj,cs13n18mn1,Nick_Dissertation_EX1,1,195,2020-06-28T20:26:18-07:00,2.7120039463043,5,versionA_stim.csv,JOL_H_VersionA.csv,"Highlight vs normal A","Highlight vs normal",VEHICLE,CHARM,Study2,U,160,126,JOL_H,User,-,"How likely are you to correctly recall the second item in the pair?|Type your response on a scale from 0-100 and then press Enter.",Study/JOL,"Study Phase2",2379,,,1617,1956,,,,78,1
w968356_cj,cs13n18mn1,Nick_Dissertation_EX1,1,196,2020-06-28T20:26:49-07:00,30.861559152603,5,versionA_stim.csv,JOL_H_VersionA.csv,"Highlight vs normal A","Highlight vs normal",GONE,AWAY,Study2,S,142,135,JOL_H,User,-,"How likely are you to correctly recall the second item in the pair?|Type your response on a scale from 0-100 and then press Enter.",Study/JOL,"Study Phase2",30570,,,29907,30073,,,,56,1
w968356_cj,cs13n18mn1,Nick_Dissertation_EX1,1,197,2020-06-28T20:26:51-07:00,2.3856627941132,5,versionA_stim.csv,JOL_H_VersionA.csv,"Highlight vs normal A","Highlight vs normal",FLEA,TICK,Study2,S,151,172,JOL,User,-,"How likely are you to correctly recall the second item in the pair?|Type your response on a scale from 0-100 and then press Enter.",Study/JOL,"Study Phase2",2099,,,1398,1678,,,,78,1
w968356_cj,cs13n18mn1,Nick_Dissertation_EX1,1,198,2020-06-28T20:26:54-07:00,2.8537480831146,5,versionA_stim.csv,JOL_H_VersionA.csv,"Highlight vs normal A","Highlight vs normal",PLANE,AIRCRAFT,Study2,B,129,176,JOL,User,-,"How likely are you to correctly recall the second item in the pair?|Type your response on a scale from 0-100 and then press Enter.",Study/JOL,"Study Phase2",2556,,,1882,1891,,,,89,1
w968356_cj,cs13n18mn1,Nick_Dissertation_EX1,1,199,2020-06-28T20:26:56-07:00,1.6704609394073,5,versionA_stim.csv,JOL_H_VersionA.csv,"Highlight vs normal A","Highlight vs normal",AFFECTION,LOVE,Study2,F,115,103,JOL_H,User,-,"How likely are you to correctly recall the second item in the pair?|Type your response on a scale from 0-100 and then press Enter.",Study/JOL,"Study Phase2",1365,,,943,1050,,,,98,1
w968356_cj,cs13n18mn1,Nick_Dissertation_EX1,1,200,2020-06-28T20:26:57-07:00,1.4137651920319,5,versionA_stim.csv,JOL_H_VersionA.csv,"Highlight vs normal A","Highlight vs normal",KEYS,JOKE,Study2,U,165,121,JOL_H,User,-,"How likely are you to correctly recall the second item in the pair?|Type your response on a scale from 0-100 and then press Enter.",Study/JOL,"Study Phase2",1123,,,776,901,,,,67,1
w968356_cj,cs13n18mn1,Nick_Dissertation_EX1,1,201,2020-06-28T20:27:00-07:00,3.4456257820129,5,versionA_stim.csv,JOL_H_VersionA.csv,"Highlight vs normal A","Highlight vs normal",OWN,HAVE,Study2,S,153,141,JOL,User,-,"How likely are you to correctly recall the second item in the pair?|Type your response on a scale from 0-100 and then press Enter.",Study/JOL,"Study Phase2",3161,,,1247,2902,,,,56,1
w968356_cj,cs13n18mn1,Nick_Dissertation_EX1,1,202,2020-06-28T20:27:03-07:00,2.1626341342926,5,versionA_stim.csv,JOL_H_VersionA.csv,"Highlight vs normal A","Highlight vs normal",LISTEN,FICTION,Study2,U,164,100,JOL_H,User,-,"How likely are you to correctly recall the second item in the pair?|Type your response on a scale from 0-100 and then press Enter.",Study/JOL,"Study Phase2",1852,,,1042,1222,,,,78,1
w968356_cj,cs13n18mn1,Nick_Dissertation_EX1,1,203,2020-06-28T20:27:06-07:00,3.6819880008698,5,versionA_stim.csv,JOL_H_VersionA.csv,"Highlight vs normal A","Highlight vs normal",GIVE,STEAK,Study2,U,158,169,JOL,User,-,"How likely are you to correctly recall the second item in the pair?|Type your response on a scale from 0-100 and then press Enter.",Study/JOL,"Study Phase2",3385,,,2560,3030,,,,87,1
w968356_cj,cs13n18mn1,Nick_Dissertation_EX1,1,204,2020-06-28T20:27:09-07:00,2.3919260501862,5,versionA_stim.csv,JOL_H_VersionA.csv,"Highlight vs normal A","Highlight vs normal",MOAT,CLEAR,Study2,U,169,108,JOL_H,User,-,"How likely are you to correctly recall the second item in the pair?|Type your response on a scale from 0-100 and then press Enter.",Study/JOL,"Study Phase2",2093,,,1441,1667,,,,56,1
w968356_cj,cs13n18mn1,Nick_Dissertation_EX1,1,205,2020-06-28T20:27:14-07:00,5.5599980354309,5,versionA_stim.csv,JOL_H_VersionA.csv,"Highlight vs normal A","Highlight vs normal",RIGHTS,EQUAL,Study2,S,137,162,JOL,User,-,"How likely are you to correctly recall the second item in the pair?|Type your response on a scale from 0-100 and then press Enter.",Study/JOL,"Study Phase2",5271,,,4267,4509,,,,88,1
w968356_cj,cs13n18mn1,Nick_Dissertation_EX1,1,206,2020-06-28T20:27:18-07:00,3.6818578243256,5,versionA_stim.csv,JOL_H_VersionA.csv,"Highlight vs normal A","Highlight vs normal",RAZOR,SHAVE,Study2,S,136,149,JOL,User,-,"How likely are you to correctly recall the second item in the pair?|Type your response on a scale from 0-100 and then press Enter.",Study/JOL,"Study Phase2",3388,,,2798,3048,,,,67,1
w968356_cj,cs13n18mn1,Nick_Dissertation_EX1,1,207,2020-06-28T20:27:22-07:00,3.7964789867401,5,versionA_stim.csv,JOL_H_VersionA.csv,"Highlight vs normal A","Highlight vs normal",CACTUS,PLANT,Study2,F,98,161,JOL,User,-,"How likely are you to correctly recall the second item in the pair?|Type your response on a scale from 0-100 and then press Enter.",Study/JOL,"Study Phase2",3496,,,2966,3161,,,,45,1
w968356_cj,cs13n18mn1,Nick_Dissertation_EX1,1,208,2020-06-28T20:27:24-07:00,2.7269041538239,5,versionA_stim.csv,JOL_H_VersionA.csv,"Highlight vs normal A","Highlight vs normal",INCENSE,SMELL,Study2,F,110,122,JOL_H,User,-,"How likely are you to correctly recall the second item in the pair?|Type your response on a scale from 0-100 and then press Enter.",Study/JOL,"Study Phase2",2416,,,1758,2015,,,,67,1
w968356_cj,cs13n18mn1,Nick_Dissertation_EX1,1,209,2020-06-28T20:27:26-07:00,1.8496119976044,5,versionA_stim.csv,JOL_H_VersionA.csv,"Highlight vs normal A","Highlight vs normal",ELEMENT,CARBON,Study2,S,141,155,JOL,User,-,"How likely are you to correctly recall the second item in the pair?|Type your response on a scale from 0-100 and then press Enter.",Study/JOL,"Study Phase2",1549,,,1140,1232,,,,87,1
w968356_cj,cs13n18mn1,Nick_Dissertation_EX1,1,210,2020-06-28T20:27:28-07:00,1.4525990486145,5,versionA_stim.csv,JOL_H_VersionA.csv,"Highlight vs normal A","Highlight vs normal",CANDLE,WAX,Study2,S,139,143,JOL,User,-,"How likely are you to correctly recall the second item in the pair?|Type your response on a scale from 0-100 and then press Enter.",Study/JOL,"Study Phase2",1144,,,495,495,,,,5,1
w968356_cj,cs13n18mn1,Nick_Dissertation_EX1,1,211,2020-06-28T20:27:29-07:00,1.5540239810944,5,versionA_stim.csv,JOL_H_VersionA.csv,"Highlight vs normal A","Highlight vs normal",STRETCH,CLOTH,Study2,U,157,158,JOL,User,-,"How likely are you to correctly recall the second item in the pair?|Type your response on a scale from 0-100 and then press Enter.",Study/JOL,"Study Phase2",1256,,,861,992,,,,77,1
w968356_cj,cs13n18mn1,Nick_Dissertation_EX1,1,212,2020-06-28T20:27:31-07:00,1.5897920131683,5,versionA_stim.csv,JOL_H_VersionA.csv,"Highlight vs normal A","Highlight vs normal",MAIN,SCAR,Study2,U,175,173,JOL,User,-,"How likely are you to correctly recall the second item in the pair?|Type your response on a scale from 0-100 and then press Enter.",Study/JOL,"Study Phase2",1289,,,898,986,,,,98,1
w968356_cj,cs13n18mn1,Nick_Dissertation_EX1,1,213,2020-06-28T20:27:33-07:00,1.6000838279724,5,versionA_stim.csv,JOL_H_VersionA.csv,"Highlight vs normal A","Highlight vs normal",DETECTIVE,MYSTERY,Study2,F,100,140,JOL,User,-,"How likely are you to correctly recall the second item in the pair?|Type your response on a scale from 0-100 and then press Enter.",Study/JOL,"Study Phase2",1301,,,890,890,,,,7,1
w968356_cj,cs13n18mn1,Nick_Dissertation_EX1,1,214,2020-06-28T20:27:34-07:00,1.5192279815674,5,versionA_stim.csv,JOL_H_VersionA.csv,"Highlight vs normal A","Highlight vs normal",CHERRY,RED,Study2,F,104,160,JOL,User,-,"How likely are you to correctly recall the second item in the pair?|Type your response on a scale from 0-100 and then press Enter.",Study/JOL,"Study Phase2",1227,,,785,964,,,,56,1
w968356_cj,cs13n18mn1,Nick_Dissertation_EX1,1,215,2020-06-28T20:27:36-07:00,1.9447550773621,5,versionA_stim.csv,JOL_H_VersionA.csv,"Highlight vs normal A","Highlight vs normal",TURN,FLIP,Study2,B,116,136,JOL_H,User,-,"How likely are you to correctly recall the second item in the pair?|Type your response on a scale from 0-100 and then press Enter.",Study/JOL,"Study Phase2",1624,,,1219,1327,,,,87,1
w968356_cj,cs13n18mn1,Nick_Dissertation_EX1,1,216,2020-06-28T20:27:39-07:00,2.8924279212952,5,versionA_stim.csv,JOL_H_VersionA.csv,"Highlight vs normal A","Highlight vs normal",SAFETY,SEATBELT,Study2,S,147,156,JOL,User,-,"How likely are you to correctly recall the second item in the pair?|Type your response on a scale from 0-100 and then press Enter.",Study/JOL,"Study Phase2",2594,,,2078,2264,,,,56,1
w968356_cj,cs13n18mn1,Nick_Dissertation_EX1,1,217,2020-06-28T20:27:41-07:00,1.8460991382599,5,versionA_stim.csv,JOL_H_VersionA.csv,"Highlight vs normal A","Highlight vs normal",FISH,SARDINE,Study2,B,130,113,JOL_H,User,-,"How likely are you to correctly recall the second item in the pair?|Type your response on a scale from 0-100 and then press Enter.",Study/JOL,"Study Phase2",1528,,,1141,1351,,,,87,1
w968356_cj,cs13n18mn1,Nick_Dissertation_EX1,1,218,2020-06-28T20:27:42-07:00,1.6521298885345,5,versionA_stim.csv,JOL_H_VersionA.csv,"Highlight vs normal A","Highlight vs normal",MONEY,BANKER,Study2,B,132,130,JOL_H,User,-,"How likely are you to correctly recall the second item in the pair?|Type your response on a scale from 0-100 and then press Enter.",Study/JOL,"Study Phase2",1359,,,946,1144,,,,67,1
w968356_cj,cs13n18mn1,Nick_Dissertation_EX1,1,219,2020-06-28T20:27:44-07:00,1.6180000305176,5,versionA_stim.csv,JOL_H_VersionA.csv,"Highlight vs normal A","Highlight vs normal",FURRY,DOG,Study2,F,102,119,JOL_H,User,-,"How likely are you to correctly recall the second item in the pair?|Type your response on a scale from 0-100 and then press Enter.",Study/JOL,"Study Phase2",1328,,,896,997,,,,98,1
w968356_cj,cs13n18mn1,Nick_Dissertation_EX1,1,220,2020-06-28T20:27:46-07:00,2.4754230976105,5,versionA_stim.csv,JOL_H_VersionA.csv,"Highlight vs normal A","Highlight vs normal",SHEARS,SCISSORS,Study2,F,112,159,JOL,User,-,"How likely are you to correctly recall the second item in the pair?|Type your response on a scale from 0-100 and then press Enter.",Study/JOL,"Study Phase2",2172,,,793,1135,,,,56,1
w968356_cj,cs13n18mn1,Nick_Dissertation_EX1,1,221,2020-06-28T20:27:51-07:00,4.6547799110413,5,versionA_stim.csv,JOL_H_VersionA.csv,"Highlight vs normal A","Highlight vs normal",SHOELACE,TIE,Study2,F,99,109,JOL_H,User,-,"How likely are you to correctly recall the second item in the pair?|Type your response on a scale from 0-100 and then press Enter.",Study/JOL,"Study Phase2",4364,,,3883,3884,,,,5,1
w968356_cj,cs13n18mn1,Nick_Dissertation_EX1,1,222,2020-06-28T20:27:53-07:00,1.6492900848389,5,versionA_stim.csv,JOL_H_VersionA.csv,"Highlight vs normal A","Highlight vs normal",PHONE,COMMUNICATION,Study2,S,149,127,JOL_H,User,-,"How likely are you to correctly recall the second item in the pair?|Type your response on a scale from 0-100 and then press Enter.",Study/JOL,"Study Phase2",1344,,,876,1006,,,,77,1
w968356_cj,cs13n18mn1,Nick_Dissertation_EX1,1,223,2020-06-28T20:27:55-07:00,1.7516529560089,5,versionA_stim.csv,JOL_H_VersionA.csv,"Highlight vs normal A","Highlight vs normal",DOCUMENT,PAPER,Study2,F,109,171,JOL,User,-,"How likely are you to correctly recall the second item in the pair?|Type your response on a scale from 0-100 and then press Enter.",Study/JOL,"Study Phase2",1436,,,703,895,,,,98,1
w968356_cj,cs13n18mn1,Nick_Dissertation_EX1,1,224,2020-06-28T20:27:56-07:00,1.5422730445862,5,versionA_stim.csv,JOL_H_VersionA.csv,"Highlight vs normal A","Highlight vs normal",EXTENSION,LONG,Study2,F,96,117,JOL_H,User,-,"How likely are you to correctly recall the second item in the pair?|Type your response on a scale from 0-100 and then press Enter.",Study/JOL,"Study Phase2",1226,,,766,923,,,,56,1
w968356_cj,cs13n18mn1,Nick_Dissertation_EX1,1,225,2020-06-28T20:27:58-07:00,1.4460079669952,5,versionA_stim.csv,JOL_H_VersionA.csv,"Highlight vs normal A","Highlight vs normal",MAZE,ELECTION,Study2,U,159,144,JOL,User,-,"How likely are you to correctly recall the second item in the pair?|Type your response on a scale from 0-100 and then press Enter.",Study/JOL,"Study Phase2",1157,,,726,905,,,,77,1
w968356_cj,cs13n18mn1,Nick_Dissertation_EX1,1,226,2020-06-28T20:28:01-07:00,3.0274529457092,5,versionA_stim.csv,JOL_H_VersionA.csv,"Highlight vs normal A","Highlight vs normal",SLEEP,NAP,Study2,B,134,167,JOL,User,-,"How likely are you to correctly recall the second item in the pair?|Type your response on a scale from 0-100 and then press Enter.",Study/JOL,"Study Phase2",2734,,,2277,2446,,,,78,1
w968356_cj,cs13n18mn1,Nick_Dissertation_EX1,1,227,2020-06-28T20:28:02-07:00,1.4647920131683,5,versionA_stim.csv,JOL_H_VersionA.csv,"Highlight vs normal A","Highlight vs normal",HONEST,TRUTHFUL,Study2,B,133,118,JOL_H,User,-,"How likely are you to correctly recall the second item in the pair?|Type your response on a scale from 0-100 and then press Enter.",Study/JOL,"Study Phase2",1180,,,828,937,,,,98,1
w968356_cj,cs13n18mn1,Nick_Dissertation_EX1,1,228,2020-06-28T20:28:04-07:00,1.4858889579773,5,versionA_stim.csv,JOL_H_VersionA.csv,"Highlight vs normal A","Highlight vs normal",FRUIT,STRAWBERRY,Study2,B,124,111,JOL_H,User,-,"How likely are you to correctly recall the second item in the pair?|Type your response on a scale from 0-100 and then press Enter.",Study/JOL,"Study Phase2",1188,,,783,955,,,,56,1
w968356_cj,cs13n18mn1,Nick_Dissertation_EX1,1,229,2020-06-28T20:28:05-07:00,1.3750431537628,5,versionA_stim.csv,JOL_H_VersionA.csv,"Highlight vs normal A","Highlight vs normal",SHELL,SHAKE,Study2,U,163,142,JOL,User,-,"How likely are you to correctly recall the second item in the pair?|Type your response on a scale from 0-100 and then press Enter.",Study/JOL,"Study Phase2",1049,,,652,796,,,,45,1
w968356_cj,cs13n18mn1,Nick_Dissertation_EX1,1,230,2020-06-28T20:28:07-07:00,1.686558008194,5,versionA_stim.csv,JOL_H_VersionA.csv,"Highlight vs normal A","Highlight vs normal",CHOP,CUT,Study2,F,107,110,JOL_H,User,-,"How likely are you to correctly recall the second item in the pair?|Type your response on a scale from 0-100 and then press Enter.",Study/JOL,"Study Phase2",1397,,,843,998,,,,87,1
w968356_cj,cs13n18mn1,Nick_Dissertation_EX1,1,231,2020-06-28T20:28:09-07:00,2.1568009853363,5,versionA_stim.csv,JOL_H_VersionA.csv,"Highlight vs normal A","Highlight vs normal",BASEBALL,LEAGUE,Study2,B,131,174,JOL,User,-,"How likely are you to correctly recall the second item in the pair?|Type your response on a scale from 0-100 and then press Enter.",Study/JOL,"Study Phase2",1861,,,1304,1502,,,,87,1
w968356_cj,cs13n18mn1,Nick_Dissertation_EX1,1,232,2020-06-28T20:28:17-07:00,8.264447927475,5,versionA_stim.csv,JOL_H_VersionA.csv,"Highlight vs normal A","Highlight vs normal",DEAD,COFFIN,Study2,B,128,106,JOL_H,User,-,"How likely are you to correctly recall the second item in the pair?|Type your response on a scale from 0-100 and then press Enter.",Study/JOL,"Study Phase2",7981,,,7495,7670,,,,45,1
w968356_cj,cs13n18mn1,Nick_Dissertation_EX1,1,233,2020-06-28T20:28:19-07:00,1.7390699386597,5,versionA_stim.csv,JOL_H_VersionA.csv,"Highlight vs normal A","Highlight vs normal",CLUE,GAME,Study2,F,97,165,JOL,User,-,"How likely are you to correctly recall the second item in the pair?|Type your response on a scale from 0-100 and then press Enter.",Study/JOL,"Study Phase2",1451,,,1112,1112,,,,6,1
w968356_cj,cs13n18mn1,Nick_Dissertation_EX1,1,234,2020-06-28T20:28:28-07:00,9.5534720420837,5,versionA_stim.csv,JOL_H_VersionA.csv,"Highlight vs normal A","Highlight vs normal",LEASE,TOIL,Study2,U,170,114,JOL_H,User,-,"How likely are you to correctly recall the second item in the pair?|Type your response on a scale from 0-100 and then press Enter.",Study/JOL,"Study Phase2",9251,,,8466,8666,,,,56,1
w968356_cj,cs13n18mn1,Nick_Dissertation_EX1,1,235,2020-06-28T20:28:31-07:00,2.2170379161835,5,versionA_stim.csv,JOL_H_VersionA.csv,"Highlight vs normal A","Highlight vs normal",CAT,PANTHER,Study2,B,126,129,JOL_H,User,-,"How likely are you to correctly recall the second item in the pair?|Type your response on a scale from 0-100 and then press Enter.",Study/JOL,"Study Phase2",1920,,,1355,1531,,,,87,1
w968356_cj,cs13n18mn1,Nick_Dissertation_EX1,1,236,2020-06-28T20:28:36-07:00,5.521203994751,5,versionA_stim.csv,JOL_H_VersionA.csv,"Highlight vs normal A","Highlight vs normal",MULE,DONKEY,Study2,F,108,124,JOL_H,User,-,"How likely are you to correctly recall the second item in the pair?|Type your response on a scale from 0-100 and then press Enter.",Study/JOL,"Study Phase2",5229,,,4279,4415,,,,87,1
w968356_cj,cs13n18mn1,Nick_Dissertation_EX1,1,237,2020-06-28T20:28:40-07:00,4.0719380378723,5,versionA_stim.csv,JOL_H_VersionA.csv,"Highlight vs normal A","Highlight vs normal",LOAN,SIGN,Study2,U,171,153,JOL,User,-,"How likely are you to correctly recall the second item in the pair?|Type your response on a scale from 0-100 and then press Enter.",Study/JOL,"Study Phase2",3777,,,3130,3364,,,,45,1
w968356_cj,cs13n18mn1,Nick_Dissertation_EX1,1,238,2020-06-28T20:28:43-07:00,3.2195980548859,5,versionA_stim.csv,JOL_H_VersionA.csv,"Highlight vs normal A","Highlight vs normal",BIRD,PENGUIN,Study2,B,119,146,JOL,User,-,"How likely are you to correctly recall the second item in the pair?|Type your response on a scale from 0-100 and then press Enter.",Study/JOL,"Study Phase2",2934,,,2281,2532,,,,87,1
w968356_cj,cs13n18mn1,Nick_Dissertation_EX1,1,239,2020-06-28T20:28:51-07:00,7.7788200378418,5,versionA_stim.csv,JOL_H_VersionA.csv,"Highlight vs normal A","Highlight vs normal",TEMPERATURE,MORNING,Study2,U,173,145,JOL,User,-,"How likely are you to correctly recall the second item in the pair?|Type your response on a scale from 0-100 and then press Enter.",Study/JOL,"Study Phase2",7491,,,6925,7106,,,,45,1
w968356_cj,cs13n18mn1,Nick_Dissertation_EX1,1,240,2020-06-28T20:28:53-07:00,2.0638399124146,5,versionA_stim.csv,JOL_H_VersionA.csv,"Highlight vs normal A","Highlight vs normal",POP,BALLOON,Study2,B,123,132,JOL_H,User,-,"How likely are you to correctly recall the second item in the pair?|Type your response on a scale from 0-100 and then press Enter.",Study/JOL,"Study Phase2",1755,,,1164,1345,,,,87,1
w968356_cj,cs13n18mn1,Nick_Dissertation_EX1,1,241,2020-06-28T20:28:55-07:00,1.5132460594177,5,versionA_stim.csv,JOL_H_VersionA.csv,"Highlight vs normal A","Highlight vs normal",JUSTICE,MAROON,Study2,U,156,175,JOL,User,-,"How likely are you to correctly recall the second item in the pair?|Type your response on a scale from 0-100 and then press Enter.",Study/JOL,"Study Phase2",1211,,,780,944,,,,56,1
w968356_cj,cs13n18mn1,Nick_Dissertation_EX1,1,242,2020-06-28T20:29:06-07:00,11.647729873657,5,versionA_stim.csv,JOL_H_VersionA.csv,"Highlight vs normal A","Highlight vs normal",STAR,ACTRESS,Study2,B,120,166,JOL,User,-,"How likely are you to correctly recall the second item in the pair?|Type your response on a scale from 0-100 and then press Enter.",Study/JOL,"Study Phase2",11335,,,10562,10744,,,,67,1
w968356_cj,cs13n18mn1,Nick_Dissertation_EX1,1,243,2020-06-28T20:29:09-07:00,2.582230091095,5,versionA_stim.csv,JOL_H_VersionA.csv,"Highlight vs normal A","Highlight vs normal",CAR,WINDSHIELD,Study2,B,117,147,JOL,User,-,"How likely are you to correctly recall the second item in the pair?|Type your response on a scale from 0-100 and then press Enter.",Study/JOL,"Study Phase2",2289,,,1690,1850,,,,87,1
w968356_cj,cs13n18mn1,Nick_Dissertation_EX1,1,244,2020-06-28T20:29:12-07:00,3.022176027298,5,versionA_stim.csv,JOL_H_VersionA.csv,"Highlight vs normal A","Highlight vs normal",BAD,VILLAIN,Study2,B,118,133,JOL_H,User,-,"How likely are you to correctly recall the second item in the pair?|Type your response on a scale from 0-100 and then press Enter.",Study/JOL,"Study Phase2",2744,,,2231,2408,,,,56,1
w968356_cj,cs13n18mn1,Nick_Dissertation_EX1,1,245,2020-06-28T20:29:14-07:00,1.6119999885559,5,versionA_stim.csv,JOL_H_VersionA.csv,"Highlight vs normal A","Highlight vs normal",NAME,HATE,Study2,U,167,101,JOL_H,User,-,"How likely are you to correctly recall the second item in the pair?|Type your response on a scale from 0-100 and then press Enter.",Study/JOL,"Study Phase2",1285,,,867,947,,,,87,1
w968356_cj,cs13n18mn1,Nick_Dissertation_EX1,1,246,2020-06-28T20:29:16-07:00,2.8259949684143,5,versionA_stim.csv,JOL_H_VersionA.csv,"Highlight vs normal A","Highlight vs normal",WRIST,BRACELET,Study2,S,140,163,JOL,User,-,"How likely are you to correctly recall the second item in the pair?|Type your response on a scale from 0-100 and then press Enter.",Study/JOL,"Study Phase2",2544,,,1112,2303,,,,98,1
w968356_cj,cs13n18mn1,Nick_Dissertation_EX1,1,247,2020-06-28T20:29:22-07:00,5.7624950408936,5,versionA_stim.csv,JOL_H_VersionA.csv,"Highlight vs normal A","Highlight vs normal",LITTER,TRASH,Study2,F,103,164,JOL,User,-,"How likely are you to correctly recall the second item in the pair?|Type your response on a scale from 0-100 and then press Enter.",Study/JOL,"Study Phase2",5177,,,4436,4743,,,,67,1
w968356_cj,cs13n18mn1,Nick_Dissertation_EX1,1,248,2020-06-28T20:29:26-07:00,3.8734149932861,5,versionA_stim.csv,JOL_H_VersionA.csv,"Highlight vs normal A","Highlight vs normal",CAKE,CLOTHES,Study2,U,166,115,JOL_H,User,-,"How likely are you to correctly recall the second item in the pair?|Type your response on a scale from 0-100 and then press Enter.",Study/JOL,"Study Phase2",3231,,,1648,1841,,,,45,1
w968356_cj,cs13n18mn1,Nick_Dissertation_EX1,1,249,2020-06-28T20:29:32-07:00,5.8564839363098,5,versionA_stim.csv,JOL_H_VersionA.csv,"Highlight vs normal A","Highlight vs normal",GLASS,BREAKABLE,Study2,B,127,152,JOL,User,-,"How likely are you to correctly recall the second item in the pair?|Type your response on a scale from 0-100 and then press Enter.",Study/JOL,"Study Phase2",5313,,,4789,4955,,,,56,1
w968356_cj,cs13n18mn1,Nick_Dissertation_EX1,1,250,2020-06-28T20:29:34-07:00,1.6913430690765,5,versionA_stim.csv,JOL_H_VersionA.csv,"Highlight vs normal A","Highlight vs normal",ROD,REEL,Study2,S,150,150,JOL,User,-,"How likely are you to correctly recall the second item in the pair?|Type your response on a scale from 0-100 and then press Enter.",Study/JOL,"Study Phase2",1392,,,893,1040,,,,87,1
w968356_cj,cs13n18mn1,Nick_Dissertation_EX1,1,251,2020-06-28T20:29:41-07:00,7.5390639305115,5,versionA_stim.csv,JOL_H_VersionA.csv,"Highlight vs normal A","Highlight vs normal",MASON,JAR,Study2,S,138,134,JOL_H,User,-,"How likely are you to correctly recall the second item in the pair?|Type your response on a scale from 0-100 and then press Enter.",Study/JOL,"Study Phase2",7236,,,6649,6874,,,,67,1
w968356_cj,cs13n18mn1,Nick_Dissertation_EX1,1,252,2020-06-28T20:29:44-07:00,3.3591549396515,5,versionA_stim.csv,JOL_H_VersionA.csv,"Highlight vs normal A","Highlight vs normal",FIGHT,BRAWL,Study2,B,135,151,JOL,User,-,"How likely are you to correctly recall the second item in the pair?|Type your response on a scale from 0-100 and then press Enter.",Study/JOL,"Study Phase2",3051,,,2331,2593,,,,78,1
w968356_cj,cs13n18mn1,Nick_Dissertation_EX1,1,253,2020-06-28T20:29:48-07:00,3.4455230236053,5,versionA_stim.csv,JOL_H_VersionA.csv,"Highlight vs normal A","Highlight vs normal",EVEN,REVENGE,Study2,B,122,123,JOL_H,User,-,"How likely are you to correctly recall the second item in the pair?|Type your response on a scale from 0-100 and then press Enter.",Study/JOL,"Study Phase2",3144,,,2445,2866,,,,68,1
w968356_cj,cs13n18mn1,Nick_Dissertation_EX1,1,254,2020-06-28T20:29:51-07:00,2.7722799777985,5,versionA_stim.csv,JOL_H_VersionA.csv,"Highlight vs normal A","Highlight vs normal",CRACKLE,ABLE,Study2,U,162,107,JOL_H,User,-,"How likely are you to correctly recall the second item in the pair?|Type your response on a scale from 0-100 and then press Enter.",Study/JOL,"Study Phase2",2428,,,1977,2133,,,,56,1
w968356_cj,cs13n18mn1,Nick_Dissertation_EX1,1,255,2020-06-28T20:29:58-07:00,7.3094081878662,5,versionA_stim.csv,JOL_H_VersionA.csv,"Highlight vs normal A","Highlight vs normal",MIRROR,CHILDREN,Study2,U,174,170,JOL,User,-,"How likely are you to correctly recall the second item in the pair?|Type your response on a scale from 0-100 and then press Enter.",Study/JOL,"Study Phase2",7007,,,6549,6728,,,,67,1
w968356_cj,cs13n18mn1,Nick_Dissertation_EX1,1,256,2020-06-28T20:30:01-07:00,3.2451729774475,5,versionA_stim.csv,JOL_H_VersionA.csv,"Highlight vs normal A","Highlight vs normal",ADJOURN,END,Study2,F,101,104,JOL_H,User,-,"How likely are you to correctly recall the second item in the pair?|Type your response on a scale from 0-100 and then press Enter.",Study/JOL,"Study Phase2",2929,,,1687,2150,,,,87,1
w968356_cj,cs13n18mn1,Nick_Dissertation_EX1,1,257,2020-06-28T20:30:03-07:00,1.7892339229584,5,versionA_stim.csv,JOL_H_VersionA.csv,"Highlight vs normal A","Highlight vs normal",THREAD,THIMBLE,Study2,B,121,116,JOL_H,User,-,"How likely are you to correctly recall the second item in the pair?|Type your response on a scale from 0-100 and then press Enter.",Study/JOL,"Study Phase2",1464,,,959,1091,,,,98,1
w968356_cj,cs13n18mn1,Nick_Dissertation_EX1,1,258,2020-06-28T20:30:06-07:00,2.5466389656067,5,versionA_stim.csv,JOL_H_VersionA.csv,"Highlight vs normal A","Highlight vs normal",BEST,FAVORITE,Study2,B,125,112,JOL_H,User,-,"How likely are you to correctly recall the second item in the pair?|Type your response on a scale from 0-100 and then press Enter.",Study/JOL,"Study Phase2",2164,,,1679,1861,,,,67,1
w968356_cj,cs13n18mn1,Nick_Dissertation_EX1,1,259,2020-06-28T20:30:07-07:00,1.9444630146027,5,versionA_stim.csv,JOL_H_VersionA.csv,"Highlight vs normal A","Highlight vs normal",MEAT,OBTAIN,Study2,U,161,139,JOL,User,-,"How likely are you to correctly recall the second item in the pair?|Type your response on a scale from 0-100 and then press Enter.",Study/JOL,"Study Phase2",1634,,,887,1027,,,,87,1
w968356_cj,cs13n18mn1,Nick_Dissertation_EX1,1,260,2020-06-28T20:30:10-07:00,2.7535350322723,5,versionA_stim.csv,JOL_H_VersionA.csv,"Highlight vs normal A","Highlight vs normal",CHILL,COLD,Study2,F,114,97,JOL_H,User,-,"How likely are you to correctly recall the second item in the pair?|Type your response on a scale from 0-100 and then press Enter.",Study/JOL,"Study Phase2",2449,,,1659,1880,,,,46,1
w968356_cj,cs13n18mn1,Nick_Dissertation_EX1,1,261,2020-06-28T20:30:12-07:00,1.7798199653625,5,versionA_stim.csv,JOL_H_VersionA.csv,"Highlight vs normal A","Highlight vs normal",SUN,TAN,Study2,S,155,120,JOL_H,User,-,"How likely are you to correctly recall the second item in the pair?|Type your response on a scale from 0-100 and then press Enter.",Study/JOL,"Study Phase2",1480,,,1112,1229,,,,87,1
w968356_cj,cs13n18mn1,Nick_Dissertation_EX1,1,262,2020-06-28T20:30:14-07:00,1.8228740692139,5,versionA_stim.csv,JOL_H_VersionA.csv,"Highlight vs normal A","Highlight vs normal",ALONE,LONELY,Study2,S,145,128,JOL_H,User,-,"How likely are you to correctly recall the second item in the pair?|Type your response on a scale from 0-100 and then press Enter.",Study/JOL,"Study Phase2",1523,,,1125,1264,,,,98,1
w968356_cj,cs13n18mn1,Nick_Dissertation_EX1,1,263,2020-06-28T20:30:15-07:00,1.441752910614,5,versionA_stim.csv,JOL_H_VersionA.csv,"Highlight vs normal A","Highlight vs normal",LOUD,NOISE,Study2,S,152,138,JOL,User,-,"How likely are you to correctly recall the second item in the pair?|Type your response on a scale from 0-100 and then press Enter.",Study/JOL,"Study Phase2",1136,,,709,904,,,,67,1
w968356_cj,cs13n18mn1,Nick_Dissertation_EX1,1,264,2020-06-28T20:30:18-07:00,2.9519531726837,5,versionA_stim.csv,JOL_H_VersionA.csv,"Highlight vs normal A","Highlight vs normal",DINE,EAT,Study2,F,111,131,JOL_H,User,-,"How likely are you to correctly recall the second item in the pair?|Type your response on a scale from 0-100 and then press Enter.",Study/JOL,"Study Phase2",2636,,,2208,2360,,,,87,1
w968356_cj,cs13n18mn1,Nick_Dissertation_EX1,1,265,2020-06-28T20:30:29-07:00,10.278090953827,5,versionA_stim.csv,JOL_H_VersionA.csv,"Highlight vs normal A","Highlight vs normal",FEUD,FIGHT,Study2,F,113,125,JOL_H,User,-,"How likely are you to correctly recall the second item in the pair?|Type your response on a scale from 0-100 and then press Enter.",Study/JOL,"Study Phase2",9935,,,9108,9319,,,,98,1
w968356_cj,cs13n18mn1,Nick_Dissertation_EX1,1,266,2020-06-28T20:30:32-07:00,3.1673018932343,5,versionA_stim.csv,JOL_H_VersionA.csv,"Highlight vs normal A","Highlight vs normal",TRUTH,LIE,Study2,S,148,154,JOL,User,-,"How likely are you to correctly recall the second item in the pair?|Type your response on a scale from 0-100 and then press Enter.",Study/JOL,"Study Phase2",2869,,,2282,2450,,,,56,1
w968356_cj,cs13n18mn1,Nick_Dissertation_EX1,1,267,2020-06-28T20:30:34-07:00,2.4797511100769,5,versionA_stim.csv,JOL_H_VersionA.csv,"Highlight vs normal A","Highlight vs normal",OCTOBER,SPOOKY,BUFFER4,Buffer,180,177,JOL_H,User,-,"How likely are you to correctly recall the second item in the pair?|Type your response on a scale from 0-100 and then press Enter.",Study/JOL,BUFFER4,2158,,,1764,1887,,,,87,1
w968356_cj,cs13n18mn1,Nick_Dissertation_EX1,1,268,2020-06-28T20:30:37-07:00,2.9927449226379,5,versionA_stim.csv,JOL_H_VersionA.csv,"Highlight vs normal A","Highlight vs normal",SPRING,MARCH,BUFFER4,Buffer,179,179,JOL_H,User,-,"How likely are you to correctly recall the second item in the pair?|Type your response on a scale from 0-100 and then press Enter.",Study/JOL,BUFFER4,2689,,,2087,2256,,,,45,1
w968356_cj,cs13n18mn1,Nick_Dissertation_EX1,1,269,2020-06-28T20:30:39-07:00,1.7842569351196,5,versionA_stim.csv,JOL_H_VersionA.csv,"Highlight vs normal A","Highlight vs normal",DAYS,WEEKS,BUFFER4,Buffer,176,181,JOL,User,-,"How likely are you to correctly recall the second item in the pair?|Type your response on a scale from 0-100 and then press Enter.",Study/JOL,BUFFER4,1466,,,774,954,,,,98,1
w968356_cj,cs13n18mn1,Nick_Dissertation_EX1,1,270,2020-06-28T20:30:41-07:00,2.2243800163269,5,versionA_stim.csv,JOL_H_VersionA.csv,"Highlight vs normal A","Highlight vs normal",MONTH,YEAR,BUFFER4,Buffer,177,180,JOL,User,-,"How likely are you to correctly recall the second item in the pair?|Type your response on a scale from 0-100 and then press Enter.",Study/JOL,BUFFER4,1922,,,1422,1629,,,,67,1
w968356_cj,cs13n18mn1,Nick_Dissertation_EX1,1,271,2020-06-28T20:30:45-07:00,3.3693740367889,5,versionA_stim.csv,JOL_H_VersionA.csv,"Highlight vs normal A","Highlight vs normal",TOOL,SHED,BUFFER4,Buffer,178,178,JOL_H,User,-,"How likely are you to correctly recall the second item in the pair?|Type your response on a scale from 0-100 and then press Enter.",Study/JOL,BUFFER4,3072,,,2501,2629,,,,98,1
w968356_cj,cs13n18mn1,Nick_Dissertation_EX1,1,272,2020-06-28T20:30:50-07:00,5.6358559131622,5,versionA_stim.csv,JOL_H_VersionA.csv,"Highlight vs normal A","Highlight vs normal",,,,,,0,Instruct,User,-,"You have completed this section. Please press Enter.",Filler_Instruction,Instruct5,5281,,,-1,-1,,,,,1
w968356_cj,cs13n18mn1,Nick_Dissertation_EX1,1,273,2020-06-28T20:32:51-07:00,120.32395219803,5,versionA_stim.csv,JOL_H_VersionA.csv,"Highlight vs normal A","Highlight vs normal",,,,,,0,FreeRecall,120,120,"Please list the 50 US states in reverse alphabetical order (z - a). The task will automatically advance to the next screen after two minutes.",,Filler2,120001,"Wyoming Wisconsin West Virginia Washington Virginia Vermont Utah Texas Tennessee South Dakota South Carolina Rhode Island Pennsylvania Oregon Oklahoma Ohio north Dakota North Carolina New York New Mexico New Jersey New Hampshire Nevada Nebraska Montana Missouri Mississippi Minnesota Michigan massachussets Maryland Maine Louisiana Kentucky Kansas Iowa Indiana Illinois Idaho Hawaii Georgia florida Delaware Connecticut colorado California Arkansas Arizona Alaska Alabama ",0,8111,118694,0,0,,,1
w968356_cj,cs13n18mn1,Nick_Dissertation_EX1,1,274,2020-06-28T20:33:06-07:00,15.833158016205,5,versionA_stim.csv,JOL_H_VersionA.csv,"Highlight vs normal A","Highlight vs normal",,,,,,0,Instruct,-,10,"You will now be presented with the first word from each of the previously studied item pairs. Please type the missing word. If you do not know the word, you may guess or press Enter to skip forward to the next pair.",,Instruct6,15520,,,-1,-1,,,,,1
