Username,ID,ExperimentName,Session,Trial,Date,TimeDif,"Condition Number","Stimuli File","Order File","Condition Description","Condition Notes",Stimuli*Cue,Stimuli*Answer,Stimuli*Shuffle,"Stimuli*Stimuli Notes",Stimuli*Value,Procedure*Item,"Procedure*Trial Type","Procedure*Max Time","Procedure*Min Time",Procedure*Text,"Procedure*Procedure Notes",Procedure*Shuffle,Response*RT,Response*Response,Response*Accuracy,Response*RTfirst,Response*RTlast,Response*strictAcc,Response*lenientAcc,Response*focus,Response*JOL,Response*Focus
5e8fe6a309881f2ee83521f5,9nqtibqmcj,Trevor-ex1,1,1,2020-07-17T09:54:09-07:00,18.38756108284,5,versionA_stim.csv,JOL_H_VersionA.csv,"Highlight vs normal A","Highlight vs normal",,,,,,0,Instruct,-,5,"In this section, you will be presented with a series of word pairs.",Initial_Instruct,Instruct1,17746,,,-1,-1,,,,,1
5e8fe6a309881f2ee83521f5,9nqtibqmcj,Trevor-ex1,1,2,2020-07-17T09:54:42-07:00,32.430554866791,5,versionA_stim.csv,JOL_H_VersionA.csv,"Highlight vs normal A","Highlight vs normal",,,,,,0,Instruct,-,10,"As you study, you will be asked to rate your ability to remember the second item in the pair if you were only shown the first at test. You will make these ratings using a 0 to 100 Scale.",,Instruct13,31585,,,-1,-1,,,,,1
5e8fe6a309881f2ee83521f5,9nqtibqmcj,Trevor-ex1,1,3,2020-07-17T09:54:53-07:00,11.539250135422,5,versionA_stim.csv,JOL_H_VersionA.csv,"Highlight vs normal A","Highlight vs normal",,,,,,0,Instruct,-,10,"For example, if you are given the pair CAT - DOG, a rating of 0 indicates that you would not remember DOG at test, while a rating of 100 indicates full certainty that you would remember the word DOG at test.",,Instruct14,10731,,,-1,-1,,,,,1
5e8fe6a309881f2ee83521f5,9nqtibqmcj,Trevor-ex1,1,4,2020-07-17T09:55:21-07:00,27.397161006927,5,versionA_stim.csv,JOL_H_VersionA.csv,"Highlight vs normal A","Highlight vs normal",,,,,,0,Instruct,-,10,"When making your ratings, it is criticial that you use the full range of the scale. You will be disqualified for only giving ratings of 0 or 100! After making your rating, press Enter to advance to the next pair.",,Instruct15,26753,,,-1,-1,,,,,1
5e8fe6a309881f2ee83521f5,9nqtibqmcj,Trevor-ex1,1,5,2020-07-17T09:55:23-07:00,2.4537968635559,5,versionA_stim.csv,JOL_H_VersionA.csv,"Highlight vs normal A","Highlight vs normal",,,,,,0,Instruct,User,-,"You will now begin the study. Press Enter when you are ready to begin.",,Instruct16,1900,,,-1,-1,,,,,1
5e8fe6a309881f2ee83521f5,9nqtibqmcj,Trevor-ex1,1,6,2020-07-17T09:55:34-07:00,11.201293945312,5,versionA_stim.csv,JOL_H_VersionA.csv,"Highlight vs normal A","Highlight vs normal",SCARE,HIDE,BUFFER1,Buffer,4,2,JOL,User,-,"How likely are you to correctly recall the second item in the pair?|Type your response on a scale from 0-100 and then press Enter.",Study/JOL,BUFFER,10450,,,8025,8481,,,,80,1
5e8fe6a309881f2ee83521f5,9nqtibqmcj,Trevor-ex1,1,7,2020-07-17T09:55:44-07:00,9.9010360240936,5,versionA_stim.csv,JOL_H_VersionA.csv,"Highlight vs normal A","Highlight vs normal",BASEBALL,CATCHER,BUFFER1,Buffer,2,3,JOL,User,-,"How likely are you to correctly recall the second item in the pair?|Type your response on a scale from 0-100 and then press Enter.",Study/JOL,BUFFER,9247,,,4876,5287,,,,97,1
5e8fe6a309881f2ee83521f5,9nqtibqmcj,Trevor-ex1,1,8,2020-07-17T09:55:54-07:00,9.8561789989471,5,versionA_stim.csv,JOL_H_VersionA.csv,"Highlight vs normal A","Highlight vs normal",PEANUT,BUTTER,BUFFER1,Buffer,3,5,JOL_H,User,-,"How likely are you to correctly recall the second item in the pair?|Type your response on a scale from 0-100 and then press Enter.",Study/JOL,BUFFER,9165,,,4221,5983,,,,100,1
5e8fe6a309881f2ee83521f5,9nqtibqmcj,Trevor-ex1,1,9,2020-07-17T09:56:03-07:00,8.4368360042572,5,versionA_stim.csv,JOL_H_VersionA.csv,"Highlight vs normal A","Highlight vs normal",SPACE,JAM,BUFFER1,Buffer,5,6,JOL_H,User,-,"How likely are you to correctly recall the second item in the pair?|Type your response on a scale from 0-100 and then press Enter.",Study/JOL,BUFFER,7854,,,5181,5624,,,,60,1
5e8fe6a309881f2ee83521f5,9nqtibqmcj,Trevor-ex1,1,10,2020-07-17T09:56:10-07:00,7.2970759868622,5,versionA_stim.csv,JOL_H_VersionA.csv,"Highlight vs normal A","Highlight vs normal",TREES,GREEN,BUFFER1,Buffer,1,4,JOL_H,User,-,"How likely are you to correctly recall the second item in the pair?|Type your response on a scale from 0-100 and then press Enter.",Study/JOL,BUFFER,6609,,,2601,3594,,,,100,1
5e8fe6a309881f2ee83521f5,9nqtibqmcj,Trevor-ex1,1,11,2020-07-17T09:56:20-07:00,9.9851560592651,5,versionA_stim.csv,JOL_H_VersionA.csv,"Highlight vs normal A","Highlight vs normal",ART,LION,Study1,U,79,62,JOL,User,-,"How likely are you to correctly recall the second item in the pair?|Type your response on a scale from 0-100 and then press Enter.",Study/JOL,"Study Phase",9300,,,4068,4292,,,,76,1
5e8fe6a309881f2ee83521f5,9nqtibqmcj,Trevor-ex1,1,12,2020-07-17T09:56:27-07:00,7.4026820659637,5,versionA_stim.csv,JOL_H_VersionA.csv,"Highlight vs normal A","Highlight vs normal",ROOT,PLANT,Study1,F,13,82,JOL,User,-,"How likely are you to correctly recall the second item in the pair?|Type your response on a scale from 0-100 and then press Enter.",Study/JOL,"Study Phase",6828,,,4960,5503,,,,89,1
5e8fe6a309881f2ee83521f5,9nqtibqmcj,Trevor-ex1,1,13,2020-07-17T09:56:35-07:00,7.5664730072021,5,versionA_stim.csv,JOL_H_VersionA.csv,"Highlight vs normal A","Highlight vs normal",BLOW,WIND,Study1,S,55,41,JOL_H,User,-,"How likely are you to correctly recall the second item in the pair?|Type your response on a scale from 0-100 and then press Enter.",Study/JOL,"Study Phase",6924,,,4893,5781,,,,100,1
5e8fe6a309881f2ee83521f5,9nqtibqmcj,Trevor-ex1,1,14,2020-07-17T09:56:46-07:00,11.314209938049,5,versionA_stim.csv,JOL_H_VersionA.csv,"Highlight vs normal A","Highlight vs normal",WAGE,MONEY,Study1,F,8,46,JOL_H,User,-,"How likely are you to correctly recall the second item in the pair?|Type your response on a scale from 0-100 and then press Enter.",Study/JOL,"Study Phase",10568,,,6682,9066,,,,100,1
5e8fe6a309881f2ee83521f5,9nqtibqmcj,Trevor-ex1,1,15,2020-07-17T09:56:55-07:00,8.3654370307922,5,versionA_stim.csv,JOL_H_VersionA.csv,"Highlight vs normal A","Highlight vs normal",DISCOVER,FLOOR,Study1,U,71,56,JOL,User,-,"How likely are you to correctly recall the second item in the pair?|Type your response on a scale from 0-100 and then press Enter.",Study/JOL,"Study Phase",7728,,,6844,7034,,,,54,1
5e8fe6a309881f2ee83521f5,9nqtibqmcj,Trevor-ex1,1,16,2020-07-17T09:56:59-07:00,4.326427936554,5,versionA_stim.csv,JOL_H_VersionA.csv,"Highlight vs normal A","Highlight vs normal",BUG,WASP,Study1,B,32,19,JOL_H,User,-,"How likely are you to correctly recall the second item in the pair?|Type your response on a scale from 0-100 and then press Enter.",Study/JOL,"Study Phase",3723,,,2831,3035,,,,65,1
5e8fe6a309881f2ee83521f5,9nqtibqmcj,Trevor-ex1,1,17,2020-07-17T09:57:09-07:00,10.522709131241,5,versionA_stim.csv,JOL_H_VersionA.csv,"Highlight vs normal A","Highlight vs normal",ORCHID,FLOWER,Study1,F,24,39,JOL_H,User,-,"How likely are you to correctly recall the second item in the pair?|Type your response on a scale from 0-100 and then press Enter.",Study/JOL,"Study Phase",9912,,,6037,8646,,,,85,1
5e8fe6a309881f2ee83521f5,9nqtibqmcj,Trevor-ex1,1,18,2020-07-17T09:57:18-07:00,8.7154967784882,5,versionA_stim.csv,JOL_H_VersionA.csv,"Highlight vs normal A","Highlight vs normal",CASH,WOULD,Study1,U,83,34,JOL_H,User,-,"How likely are you to correctly recall the second item in the pair?|Type your response on a scale from 0-100 and then press Enter.",Study/JOL,"Study Phase",8079,,,2435,2603,,,,34,1
5e8fe6a309881f2ee83521f5,9nqtibqmcj,Trevor-ex1,1,19,2020-07-17T09:57:24-07:00,5.7783331871033,5,versionA_stim.csv,JOL_H_VersionA.csv,"Highlight vs normal A","Highlight vs normal",SMELL,STENCH,Study1,B,42,36,JOL_H,User,-,"How likely are you to correctly recall the second item in the pair?|Type your response on a scale from 0-100 and then press Enter.",Study/JOL,"Study Phase",5152,,,2579,3562,,,,100,1
5e8fe6a309881f2ee83521f5,9nqtibqmcj,Trevor-ex1,1,20,2020-07-17T09:57:37-07:00,12.792471885681,5,versionA_stim.csv,JOL_H_VersionA.csv,"Highlight vs normal A","Highlight vs normal",HYGIENE,CLEAN,Study1,F,17,85,JOL,User,-,"How likely are you to correctly recall the second item in the pair?|Type your response on a scale from 0-100 and then press Enter.",Study/JOL,"Study Phase",12085,,,6139,9973,,,,78,1
5e8fe6a309881f2ee83521f5,9nqtibqmcj,Trevor-ex1,1,21,2020-07-17T09:57:43-07:00,6.5009980201721,5,versionA_stim.csv,JOL_H_VersionA.csv,"Highlight vs normal A","Highlight vs normal",HOT,CHILI,Study1,B,37,55,JOL,User,-,"How likely are you to correctly recall the second item in the pair?|Type your response on a scale from 0-100 and then press Enter.",Study/JOL,"Study Phase",5827,,,3181,3912,,,,93,1
5e8fe6a309881f2ee83521f5,9nqtibqmcj,Trevor-ex1,1,22,2020-07-17T09:57:50-07:00,6.4356780052185,5,versionA_stim.csv,JOL_H_VersionA.csv,"Highlight vs normal A","Highlight vs normal",BRIDGE,WATER,Study1,F,18,48,JOL,User,-,"How likely are you to correctly recall the second item in the pair?|Type your response on a scale from 0-100 and then press Enter.",Study/JOL,"Study Phase",5672,,,3670,4341,,,,73,1
5e8fe6a309881f2ee83521f5,9nqtibqmcj,Trevor-ex1,1,23,2020-07-17T09:57:55-07:00,5.4206910133362,5,versionA_stim.csv,JOL_H_VersionA.csv,"Highlight vs normal A","Highlight vs normal",BEGIN,END,Study1,S,54,25,JOL_H,User,-,"How likely are you to correctly recall the second item in the pair?|Type your response on a scale from 0-100 and then press Enter.",Study/JOL,"Study Phase",4872,,,2550,3758,,,,100,1
5e8fe6a309881f2ee83521f5,9nqtibqmcj,Trevor-ex1,1,24,2020-07-17T09:58:19-07:00,23.459769010544,5,versionA_stim.csv,JOL_H_VersionA.csv,"Highlight vs normal A","Highlight vs normal",GEOLOGY,ROCK,Study1,F,19,7,JOL_H,User,-,"How likely are you to correctly recall the second item in the pair?|Type your response on a scale from 0-100 and then press Enter.",Study/JOL,"Study Phase",22681,,,3347,3494,,,,88,1
5e8fe6a309881f2ee83521f5,9nqtibqmcj,Trevor-ex1,1,25,2020-07-17T09:58:27-07:00,8.22722697258,5,versionA_stim.csv,JOL_H_VersionA.csv,"Highlight vs normal A","Highlight vs normal",DEBATE,SIGHT,Study1,U,73,52,JOL,User,-,"How likely are you to correctly recall the second item in the pair?|Type your response on a scale from 0-100 and then press Enter.",Study/JOL,"Study Phase",7474,,,5756,5968,,,,23,1
5e8fe6a309881f2ee83521f5,9nqtibqmcj,Trevor-ex1,1,26,2020-07-17T09:58:43-07:00,15.93484210968,5,versionA_stim.csv,JOL_H_VersionA.csv,"Highlight vs normal A","Highlight vs normal",HEIGHT,GROWTH,Study1,B,30,29,JOL_H,User,-,"How likely are you to correctly recall the second item in the pair?|Type your response on a scale from 0-100 and then press Enter.",Study/JOL,"Study Phase",15346,,,13443,13812,,,,98,1
5e8fe6a309881f2ee83521f5,9nqtibqmcj,Trevor-ex1,1,27,2020-07-17T09:58:50-07:00,7.4812548160553,5,versionA_stim.csv,JOL_H_VersionA.csv,"Highlight vs normal A","Highlight vs normal",HAPPY,CAR,Study1,U,77,15,JOL_H,User,-,"How likely are you to correctly recall the second item in the pair?|Type your response on a scale from 0-100 and then press Enter.",Study/JOL,"Study Phase",6577,,,4426,5665,,,,15,1
5e8fe6a309881f2ee83521f5,9nqtibqmcj,Trevor-ex1,1,28,2020-07-17T09:58:55-07:00,4.9857730865479,5,versionA_stim.csv,JOL_H_VersionA.csv,"Highlight vs normal A","Highlight vs normal",REVOLUTION,WAR,Study1,F,20,75,JOL,User,-,"How likely are you to correctly recall the second item in the pair?|Type your response on a scale from 0-100 and then press Enter.",Study/JOL,"Study Phase",4255,,,2707,3610,,,,100,1
5e8fe6a309881f2ee83521f5,9nqtibqmcj,Trevor-ex1,1,29,2020-07-17T09:59:04-07:00,9.0925209522247,5,versionA_stim.csv,JOL_H_VersionA.csv,"Highlight vs normal A","Highlight vs normal",PAW,DOG,Study1,F,15,49,JOL,User,-,"How likely are you to correctly recall the second item in the pair?|Type your response on a scale from 0-100 and then press Enter.",Study/JOL,"Study Phase",8365,,,4750,7399,,,,100,1
5e8fe6a309881f2ee83521f5,9nqtibqmcj,Trevor-ex1,1,30,2020-07-17T09:59:12-07:00,7.782478094101,5,versionA_stim.csv,JOL_H_VersionA.csv,"Highlight vs normal A","Highlight vs normal",CIRCLE,ROUND,Study1,S,65,24,JOL_H,User,-,"How likely are you to correctly recall the second item in the pair?|Type your response on a scale from 0-100 and then press Enter.",Study/JOL,"Study Phase",7184,,,5443,6395,,,,100,1
5e8fe6a309881f2ee83521f5,9nqtibqmcj,Trevor-ex1,1,31,2020-07-17T09:59:20-07:00,7.9594478607178,5,versionA_stim.csv,JOL_H_VersionA.csv,"Highlight vs normal A","Highlight vs normal",ARCHITECTURE,DESIGN,Study1,S,51,31,JOL_H,User,-,"How likely are you to correctly recall the second item in the pair?|Type your response on a scale from 0-100 and then press Enter.",Study/JOL,"Study Phase",7230,,,3603,6368,,,,84,1
5e8fe6a309881f2ee83521f5,9nqtibqmcj,Trevor-ex1,1,32,2020-07-17T09:59:27-07:00,7.2474410533905,5,versionA_stim.csv,JOL_H_VersionA.csv,"Highlight vs normal A","Highlight vs normal",LAW,ATTORNEY,Study1,B,34,63,JOL,User,-,"How likely are you to correctly recall the second item in the pair?|Type your response on a scale from 0-100 and then press Enter.",Study/JOL,"Study Phase",6680,,,4565,5632,,,,95,1
5e8fe6a309881f2ee83521f5,9nqtibqmcj,Trevor-ex1,1,33,2020-07-17T09:59:35-07:00,7.3287129402161,5,versionA_stim.csv,JOL_H_VersionA.csv,"Highlight vs normal A","Highlight vs normal",SLEEP,DROWSY,Study1,B,41,22,JOL_H,User,-,"How likely are you to correctly recall the second item in the pair?|Type your response on a scale from 0-100 and then press Enter.",Study/JOL,"Study Phase",6559,,,3316,3549,,,,67,1
5e8fe6a309881f2ee83521f5,9nqtibqmcj,Trevor-ex1,1,34,2020-07-17T09:59:54-07:00,19.090109109879,5,versionA_stim.csv,JOL_H_VersionA.csv,"Highlight vs normal A","Highlight vs normal",TAKE,SEIZE,Study1,B,29,61,JOL,User,-,"How likely are you to correctly recall the second item in the pair?|Type your response on a scale from 0-100 and then press Enter.",Study/JOL,"Study Phase",18429,,,14130,16271,,,,70,0.964
5e8fe6a309881f2ee83521f5,9nqtibqmcj,Trevor-ex1,1,35,2020-07-17T10:00:03-07:00,8.9176919460297,5,versionA_stim.csv,JOL_H_VersionA.csv,"Highlight vs normal A","Highlight vs normal",HIDE,SICK,Study1,U,84,37,JOL_H,User,-,"How likely are you to correctly recall the second item in the pair?|Type your response on a scale from 0-100 and then press Enter.",Study/JOL,"Study Phase",8035,,,4486,6352,,,,11,1
5e8fe6a309881f2ee83521f5,9nqtibqmcj,Trevor-ex1,1,36,2020-07-17T10:00:09-07:00,6.464583158493,5,versionA_stim.csv,JOL_H_VersionA.csv,"Highlight vs normal A","Highlight vs normal",WINE,CHEESE,Study1,S,57,43,JOL_H,User,-,"How likely are you to correctly recall the second item in the pair?|Type your response on a scale from 0-100 and then press Enter.",Study/JOL,"Study Phase",5802,,,2513,3091,,,,96,1
5e8fe6a309881f2ee83521f5,9nqtibqmcj,Trevor-ex1,1,37,2020-07-17T10:00:16-07:00,6.6923868656158,5,versionA_stim.csv,JOL_H_VersionA.csv,"Highlight vs normal A","Highlight vs normal",DUE,ASSIGNMENT,Study1,S,46,51,JOL,User,-,"How likely are you to correctly recall the second item in the pair?|Type your response on a scale from 0-100 and then press Enter.",Study/JOL,"Study Phase",6023,,,4287,5163,,,,100,1
5e8fe6a309881f2ee83521f5,9nqtibqmcj,Trevor-ex1,1,38,2020-07-17T10:00:23-07:00,7.0295519828796,5,versionA_stim.csv,JOL_H_VersionA.csv,"Highlight vs normal A","Highlight vs normal",ARTERY,BRONZE,Study1,U,74,74,JOL,User,-,"How likely are you to correctly recall the second item in the pair?|Type your response on a scale from 0-100 and then press Enter.",Study/JOL,"Study Phase",5405,,,3359,3359,,,,1,1
5e8fe6a309881f2ee83521f5,9nqtibqmcj,Trevor-ex1,1,39,2020-07-17T10:00:28-07:00,5.3829140663147,5,versionA_stim.csv,JOL_H_VersionA.csv,"Highlight vs normal A","Highlight vs normal",DIGESTION,STOMACH,Study1,F,7,16,JOL_H,User,-,"How likely are you to correctly recall the second item in the pair?|Type your response on a scale from 0-100 and then press Enter.",Study/JOL,"Study Phase",4748,,,2970,3298,,,,75,1
5e8fe6a309881f2ee83521f5,9nqtibqmcj,Trevor-ex1,1,40,2020-07-17T10:00:37-07:00,9.1233479976654,5,versionA_stim.csv,JOL_H_VersionA.csv,"Highlight vs normal A","Highlight vs normal",PAST,FUTURE,Study1,S,61,33,JOL_H,User,-,"How likely are you to correctly recall the second item in the pair?|Type your response on a scale from 0-100 and then press Enter.",Study/JOL,"Study Phase",8519,,,3105,6331,,,,90,1
5e8fe6a309881f2ee83521f5,9nqtibqmcj,Trevor-ex1,1,41,2020-07-17T10:00:54-07:00,17.094465970993,5,versionA_stim.csv,JOL_H_VersionA.csv,"Highlight vs normal A","Highlight vs normal",HORNET,STING,Study1,F,11,84,JOL,User,-,"How likely are you to correctly recall the second item in the pair?|Type your response on a scale from 0-100 and then press Enter.",Study/JOL,"Study Phase",16508,,,13226,14700,,,,68,0.94
5e8fe6a309881f2ee83521f5,9nqtibqmcj,Trevor-ex1,1,42,2020-07-17T10:01:04-07:00,9.5168740749359,5,versionA_stim.csv,JOL_H_VersionA.csv,"Highlight vs normal A","Highlight vs normal",DEATH,BUSINESS,Study1,U,72,54,JOL,User,-,"How likely are you to correctly recall the second item in the pair?|Type your response on a scale from 0-100 and then press Enter.",Study/JOL,"Study Phase",8596,,,2264,7709,,,,27,1
5e8fe6a309881f2ee83521f5,9nqtibqmcj,Trevor-ex1,1,43,2020-07-17T10:01:12-07:00,8.3174810409546,5,versionA_stim.csv,JOL_H_VersionA.csv,"Highlight vs normal A","Highlight vs normal",GRILL,BAR,Study1,S,52,50,JOL,User,-,"How likely are you to correctly recall the second item in the pair?|Type your response on a scale from 0-100 and then press Enter.",Study/JOL,"Study Phase",7796,,,3716,5613,,,,36,1
5e8fe6a309881f2ee83521f5,9nqtibqmcj,Trevor-ex1,1,44,2020-07-17T10:01:20-07:00,8.2487847805023,5,versionA_stim.csv,JOL_H_VersionA.csv,"Highlight vs normal A","Highlight vs normal",TRIAL,JURY,Study1,S,50,14,JOL_H,User,-,"How likely are you to correctly recall the second item in the pair?|Type your response on a scale from 0-100 and then press Enter.",Study/JOL,"Study Phase",7392,,,4566,5390,,,,72,1
5e8fe6a309881f2ee83521f5,9nqtibqmcj,Trevor-ex1,1,45,2020-07-17T10:01:26-07:00,5.8424730300903,5,versionA_stim.csv,JOL_H_VersionA.csv,"Highlight vs normal A","Highlight vs normal",ALLOW,TUCK,Study1,U,78,28,JOL_H,User,-,"How likely are you to correctly recall the second item in the pair?|Type your response on a scale from 0-100 and then press Enter.",Study/JOL,"Study Phase",5246,,,3661,3661,,,,1,1
5e8fe6a309881f2ee83521f5,9nqtibqmcj,Trevor-ex1,1,46,2020-07-17T10:01:38-07:00,11.399586200714,5,versionA_stim.csv,JOL_H_VersionA.csv,"Highlight vs normal A","Highlight vs normal",SOON,BELT,Study1,U,70,35,JOL_H,User,-,"How likely are you to correctly recall the second item in the pair?|Type your response on a scale from 0-100 and then press Enter.",Study/JOL,"Study Phase",10777,,,7256,7985,,,,22,1
5e8fe6a309881f2ee83521f5,9nqtibqmcj,Trevor-ex1,1,47,2020-07-17T10:01:44-07:00,6.8008029460907,5,versionA_stim.csv,JOL_H_VersionA.csv,"Highlight vs normal A","Highlight vs normal",CREDIT,CARD,Study1,F,23,10,JOL_H,User,-,"How likely are you to correctly recall the second item in the pair?|Type your response on a scale from 0-100 and then press Enter.",Study/JOL,"Study Phase",6208,,,3121,4018,,,,100,1
5e8fe6a309881f2ee83521f5,9nqtibqmcj,Trevor-ex1,1,48,2020-07-17T10:01:54-07:00,9.4851689338684,5,versionA_stim.csv,JOL_H_VersionA.csv,"Highlight vs normal A","Highlight vs normal",PUSHER,CLUTTER,Study1,U,66,53,JOL,User,-,"How likely are you to correctly recall the second item in the pair?|Type your response on a scale from 0-100 and then press Enter.",Study/JOL,"Study Phase",8909,,,5168,7198,,,,0,1
5e8fe6a309881f2ee83521f5,9nqtibqmcj,Trevor-ex1,1,49,2020-07-17T10:02:11-07:00,16.85463809967,5,versionA_stim.csv,JOL_H_VersionA.csv,"Highlight vs normal A","Highlight vs normal",FIX,HAND,Study1,U,75,72,JOL,User,-,"How likely are you to correctly recall the second item in the pair?|Type your response on a scale from 0-100 and then press Enter.",Study/JOL,"Study Phase",15838,,,13512,13512,,,,2,0.756
5e8fe6a309881f2ee83521f5,9nqtibqmcj,Trevor-ex1,1,50,2020-07-17T10:02:17-07:00,6.2050228118896,5,versionA_stim.csv,JOL_H_VersionA.csv,"Highlight vs normal A","Highlight vs normal",LOCATION,SITE,Study1,S,48,45,JOL_H,User,-,"How likely are you to correctly recall the second item in the pair?|Type your response on a scale from 0-100 and then press Enter.",Study/JOL,"Study Phase",5376,,,3488,4112,,,,64,1
5e8fe6a309881f2ee83521f5,9nqtibqmcj,Trevor-ex1,1,51,2020-07-17T10:02:27-07:00,10.411284208298,5,versionA_stim.csv,JOL_H_VersionA.csv,"Highlight vs normal A","Highlight vs normal",CLOTHES,ATTIRE,Study1,B,43,67,JOL,User,-,"How likely are you to correctly recall the second item in the pair?|Type your response on a scale from 0-100 and then press Enter.",Study/JOL,"Study Phase",9676,,,3438,8715,,,,93,1
5e8fe6a309881f2ee83521f5,9nqtibqmcj,Trevor-ex1,1,52,2020-07-17T10:02:33-07:00,5.7380428314209,5,versionA_stim.csv,JOL_H_VersionA.csv,"Highlight vs normal A","Highlight vs normal",DIETARY,SACKING,Study1,U,67,64,JOL,User,-,"How likely are you to correctly recall the second item in the pair?|Type your response on a scale from 0-100 and then press Enter.",Study/JOL,"Study Phase",5113,,,4269,4269,,,,0,1
5e8fe6a309881f2ee83521f5,9nqtibqmcj,Trevor-ex1,1,53,2020-07-17T10:02:41-07:00,7.6975791454315,5,versionA_stim.csv,JOL_H_VersionA.csv,"Highlight vs normal A","Highlight vs normal",PLANE,PILOT,Study1,B,44,58,JOL,User,-,"How likely are you to correctly recall the second item in the pair?|Type your response on a scale from 0-100 and then press Enter.",Study/JOL,"Study Phase",7203,,,4910,5603,,,,85,1
5e8fe6a309881f2ee83521f5,9nqtibqmcj,Trevor-ex1,1,54,2020-07-17T10:02:47-07:00,5.9302129745483,5,versionA_stim.csv,JOL_H_VersionA.csv,"Highlight vs normal A","Highlight vs normal",DELINQUENT,BAD,Study1,F,6,59,JOL,User,-,"How likely are you to correctly recall the second item in the pair?|Type your response on a scale from 0-100 and then press Enter.",Study/JOL,"Study Phase",5265,,,3077,3982,,,,100,1
5e8fe6a309881f2ee83521f5,9nqtibqmcj,Trevor-ex1,1,55,2020-07-17T10:02:53-07:00,6.5179738998413,5,versionA_stim.csv,JOL_H_VersionA.csv,"Highlight vs normal A","Highlight vs normal",KEY,LATCH,Study1,B,36,13,JOL_H,User,-,"How likely are you to correctly recall the second item in the pair?|Type your response on a scale from 0-100 and then press Enter.",Study/JOL,"Study Phase",5770,,,4529,4749,,,,43,1
5e8fe6a309881f2ee83521f5,9nqtibqmcj,Trevor-ex1,1,56,2020-07-17T10:03:00-07:00,6.9163970947266,5,versionA_stim.csv,JOL_H_VersionA.csv,"Highlight vs normal A","Highlight vs normal",LETTUCE,SALAD,Study1,S,59,66,JOL,User,-,"How likely are you to correctly recall the second item in the pair?|Type your response on a scale from 0-100 and then press Enter.",Study/JOL,"Study Phase",6302,,,3172,3331,,,,99,1
5e8fe6a309881f2ee83521f5,9nqtibqmcj,Trevor-ex1,1,57,2020-07-17T10:03:22-07:00,22.191359996796,5,versionA_stim.csv,JOL_H_VersionA.csv,"Highlight vs normal A","Highlight vs normal",SHOE,FOOT,Study1,S,60,78,JOL,User,-,"How likely are you to correctly recall the second item in the pair?|Type your response on a scale from 0-100 and then press Enter.",Study/JOL,"Study Phase",21526,,,13206,20280,,,,83,1
5e8fe6a309881f2ee83521f5,9nqtibqmcj,Trevor-ex1,1,58,2020-07-17T10:03:27-07:00,4.5343208312988,5,versionA_stim.csv,JOL_H_VersionA.csv,"Highlight vs normal A","Highlight vs normal",PARK,HUNGRY,Study1,U,68,86,JOL,User,-,"How likely are you to correctly recall the second item in the pair?|Type your response on a scale from 0-100 and then press Enter.",Study/JOL,"Study Phase",3672,,,2672,2672,,,,0,1
5e8fe6a309881f2ee83521f5,9nqtibqmcj,Trevor-ex1,1,59,2020-07-17T10:03:39-07:00,11.915333032608,5,versionA_stim.csv,JOL_H_VersionA.csv,"Highlight vs normal A","Highlight vs normal",HUNGER,FAMINE,Study1,B,40,80,JOL,User,-,"How likely are you to correctly recall the second item in the pair?|Type your response on a scale from 0-100 and then press Enter.",Study/JOL,"Study Phase",11198,,,4085,9762,,,,89,1
5e8fe6a309881f2ee83521f5,9nqtibqmcj,Trevor-ex1,1,60,2020-07-17T10:03:43-07:00,3.8095760345459,5,versionA_stim.csv,JOL_H_VersionA.csv,"Highlight vs normal A","Highlight vs normal",LIFT,WOMAN,Study1,U,69,18,JOL_H,User,-,"How likely are you to correctly recall the second item in the pair?|Type your response on a scale from 0-100 and then press Enter.",Study/JOL,"Study Phase",3071,,,2355,2355,,,,0,1
5e8fe6a309881f2ee83521f5,9nqtibqmcj,Trevor-ex1,1,61,2020-07-17T10:03:59-07:00,15.974710941315,5,versionA_stim.csv,JOL_H_VersionA.csv,"Highlight vs normal A","Highlight vs normal",WORK,CHORE,Study1,B,39,47,JOL,User,-,"How likely are you to correctly recall the second item in the pair?|Type your response on a scale from 0-100 and then press Enter.",Study/JOL,"Study Phase",14300,,,4287,5404,,,,100,0.911
5e8fe6a309881f2ee83521f5,9nqtibqmcj,Trevor-ex1,1,62,2020-07-17T10:05:16-07:00,77.805381059647,5,versionA_stim.csv,JOL_H_VersionA.csv,"Highlight vs normal A","Highlight vs normal",STRONG,ACCIDENT,Study1,U,80,68,JOL,User,-,"How likely are you to correctly recall the second item in the pair?|Type your response on a scale from 0-100 and then press Enter.",Study/JOL,"Study Phase",9513,,,6154,6337,,,,87,1
5e8fe6a309881f2ee83521f5,9nqtibqmcj,Trevor-ex1,1,63,2020-07-17T10:05:23-07:00,6.5414760112762,5,versionA_stim.csv,JOL_H_VersionA.csv,"Highlight vs normal A","Highlight vs normal",MATH,DIVISION,Study1,B,33,40,JOL_H,User,-,"How likely are you to correctly recall the second item in the pair?|Type your response on a scale from 0-100 and then press Enter.",Study/JOL,"Study Phase",5764,,,4396,4584,,,,56,1
5e8fe6a309881f2ee83521f5,9nqtibqmcj,Trevor-ex1,1,64,2020-07-17T10:05:34-07:00,11.230446100235,5,versionA_stim.csv,JOL_H_VersionA.csv,"Highlight vs normal A","Highlight vs normal",BITTER,COLD,Study1,F,12,42,JOL_H,User,-,"How likely are you to correctly recall the second item in the pair?|Type your response on a scale from 0-100 and then press Enter.",Study/JOL,"Study Phase",10511,,,8089,8238,,,,42,1
5e8fe6a309881f2ee83521f5,9nqtibqmcj,Trevor-ex1,1,65,2020-07-17T10:05:38-07:00,4.0511498451233,5,versionA_stim.csv,JOL_H_VersionA.csv,"Highlight vs normal A","Highlight vs normal",VALLEY,ADD,Study1,U,82,26,JOL_H,User,-,"How likely are you to correctly recall the second item in the pair?|Type your response on a scale from 0-100 and then press Enter.",Study/JOL,"Study Phase",3355,,,2415,2415,,,,0,1
5e8fe6a309881f2ee83521f5,9nqtibqmcj,Trevor-ex1,1,66,2020-07-17T10:05:45-07:00,6.2540581226349,5,versionA_stim.csv,JOL_H_VersionA.csv,"Highlight vs normal A","Highlight vs normal",DISCUSSION,TALK,Study1,F,21,44,JOL_H,User,-,"How likely are you to correctly recall the second item in the pair?|Type your response on a scale from 0-100 and then press Enter.",Study/JOL,"Study Phase",5540,,,2292,3838,,,,92,1
5e8fe6a309881f2ee83521f5,9nqtibqmcj,Trevor-ex1,1,67,2020-07-17T10:05:50-07:00,5.129723072052,5,versionA_stim.csv,JOL_H_VersionA.csv,"Highlight vs normal A","Highlight vs normal",KIDNEY,LIVER,Study1,S,53,73,JOL,User,-,"How likely are you to correctly recall the second item in the pair?|Type your response on a scale from 0-100 and then press Enter.",Study/JOL,"Study Phase",4438,,,3297,3510,,,,77,1
5e8fe6a309881f2ee83521f5,9nqtibqmcj,Trevor-ex1,1,68,2020-07-17T10:06:02-07:00,11.972074985504,5,versionA_stim.csv,JOL_H_VersionA.csv,"Highlight vs normal A","Highlight vs normal",DARK,CAVE,Study1,B,28,21,JOL_H,User,-,"How likely are you to correctly recall the second item in the pair?|Type your response on a scale from 0-100 and then press Enter.",Study/JOL,"Study Phase",11351,,,7878,9286,,,,96,1
5e8fe6a309881f2ee83521f5,9nqtibqmcj,Trevor-ex1,1,69,2020-07-17T10:06:07-07:00,5.7154989242554,5,versionA_stim.csv,JOL_H_VersionA.csv,"Highlight vs normal A","Highlight vs normal",HERD,COW,Study1,F,22,38,JOL_H,User,-,"How likely are you to correctly recall the second item in the pair?|Type your response on a scale from 0-100 and then press Enter.",Study/JOL,"Study Phase",4997,,,2685,3888,,,,100,1
5e8fe6a309881f2ee83521f5,9nqtibqmcj,Trevor-ex1,1,70,2020-07-17T10:06:13-07:00,5.3937320709229,5,versionA_stim.csv,JOL_H_VersionA.csv,"Highlight vs normal A","Highlight vs normal",NUMBER,AMOUNT,Study1,S,47,27,JOL_H,User,-,"How likely are you to correctly recall the second item in the pair?|Type your response on a scale from 0-100 and then press Enter.",Study/JOL,"Study Phase",4770,,,3727,3898,,,,76,1
5e8fe6a309881f2ee83521f5,9nqtibqmcj,Trevor-ex1,1,71,2020-07-17T10:06:18-07:00,5.164803981781,5,versionA_stim.csv,JOL_H_VersionA.csv,"Highlight vs normal A","Highlight vs normal",DRINK,SIP,Study1,B,27,71,JOL,User,-,"How likely are you to correctly recall the second item in the pair?|Type your response on a scale from 0-100 and then press Enter.",Study/JOL,"Study Phase",4535,,,3332,3536,,,,54,1
5e8fe6a309881f2ee83521f5,9nqtibqmcj,Trevor-ex1,1,72,2020-07-17T10:06:22-07:00,4.1588478088379,5,versionA_stim.csv,JOL_H_VersionA.csv,"Highlight vs normal A","Highlight vs normal",SUGAR,RIDDLE,Study1,U,81,60,JOL,User,-,"How likely are you to correctly recall the second item in the pair?|Type your response on a scale from 0-100 and then press Enter.",Study/JOL,"Study Phase",3539,,,2638,2638,,,,0,1
5e8fe6a309881f2ee83521f5,9nqtibqmcj,Trevor-ex1,1,73,2020-07-17T10:06:45-07:00,23.235876083374,5,versionA_stim.csv,JOL_H_VersionA.csv,"Highlight vs normal A","Highlight vs normal",DUMP,WASTE,Study1,S,49,76,JOL,User,-,"How likely are you to correctly recall the second item in the pair?|Type your response on a scale from 0-100 and then press Enter.",Study/JOL,"Study Phase",22400,,,19774,20197,,,,94,0.772
5e8fe6a309881f2ee83521f5,9nqtibqmcj,Trevor-ex1,1,74,2020-07-17T10:06:52-07:00,6.4987881183624,5,versionA_stim.csv,JOL_H_VersionA.csv,"Highlight vs normal A","Highlight vs normal",SWAN,BIRD,Study1,F,14,23,JOL_H,User,-,"How likely are you to correctly recall the second item in the pair?|Type your response on a scale from 0-100 and then press Enter.",Study/JOL,"Study Phase",5906,,,3428,4271,,,,100,1
5e8fe6a309881f2ee83521f5,9nqtibqmcj,Trevor-ex1,1,75,2020-07-17T10:07:03-07:00,11.282509803772,5,versionA_stim.csv,JOL_H_VersionA.csv,"Highlight vs normal A","Highlight vs normal",WAY,OUT,Study1,F,16,79,JOL,User,-,"How likely are you to correctly recall the second item in the pair?|Type your response on a scale from 0-100 and then press Enter.",Study/JOL,"Study Phase",10704,,,9429,9658,,,,21,1
5e8fe6a309881f2ee83521f5,9nqtibqmcj,Trevor-ex1,1,76,2020-07-17T10:07:09-07:00,5.5837230682373,5,versionA_stim.csv,JOL_H_VersionA.csv,"Highlight vs normal A","Highlight vs normal",FIRE,BLAZE,Study1,B,45,17,JOL_H,User,-,"How likely are you to correctly recall the second item in the pair?|Type your response on a scale from 0-100 and then press Enter.",Study/JOL,"Study Phase",4804,,,2188,3076,,,,100,1
5e8fe6a309881f2ee83521f5,9nqtibqmcj,Trevor-ex1,1,77,2020-07-17T10:07:19-07:00,10.681565999985,5,versionA_stim.csv,JOL_H_VersionA.csv,"Highlight vs normal A","Highlight vs normal",KING,VASE,Study1,U,85,57,JOL,User,-,"How likely are you to correctly recall the second item in the pair?|Type your response on a scale from 0-100 and then press Enter.",Study/JOL,"Study Phase",9943,,,8398,8398,,,,1,1
5e8fe6a309881f2ee83521f5,9nqtibqmcj,Trevor-ex1,1,78,2020-07-17T10:07:28-07:00,8.1772429943085,5,versionA_stim.csv,JOL_H_VersionA.csv,"Highlight vs normal A","Highlight vs normal",SENTENCE,WORD,Study1,B,31,69,JOL,User,-,"How likely are you to correctly recall the second item in the pair?|Type your response on a scale from 0-100 and then press Enter.",Study/JOL,"Study Phase",7463,,,4731,6520,,,,81,1
5e8fe6a309881f2ee83521f5,9nqtibqmcj,Trevor-ex1,1,79,2020-07-17T10:07:39-07:00,11.205955982208,5,versionA_stim.csv,JOL_H_VersionA.csv,"Highlight vs normal A","Highlight vs normal",FULL,ENOUGH,Study1,B,26,81,JOL,User,-,"How likely are you to correctly recall the second item in the pair?|Type your response on a scale from 0-100 and then press Enter.",Study/JOL,"Study Phase",10484,,,3872,9025,,,,93,1
5e8fe6a309881f2ee83521f5,9nqtibqmcj,Trevor-ex1,1,80,2020-07-17T10:07:47-07:00,7.9461030960083,5,versionA_stim.csv,JOL_H_VersionA.csv,"Highlight vs normal A","Highlight vs normal",POP,SODA,Study1,S,56,9,JOL_H,User,-,"How likely are you to correctly recall the second item in the pair?|Type your response on a scale from 0-100 and then press Enter.",Study/JOL,"Study Phase",7304,,,5400,6392,,,,81,1
5e8fe6a309881f2ee83521f5,9nqtibqmcj,Trevor-ex1,1,81,2020-07-17T10:08:00-07:00,13.801800966263,5,versionA_stim.csv,JOL_H_VersionA.csv,"Highlight vs normal A","Highlight vs normal",HONEY,BEE,Study1,S,63,32,JOL_H,User,-,"How likely are you to correctly recall the second item in the pair?|Type your response on a scale from 0-100 and then press Enter.",Study/JOL,"Study Phase",13159,,,5685,10507,,,,95,1
5e8fe6a309881f2ee83521f5,9nqtibqmcj,Trevor-ex1,1,82,2020-07-17T10:08:10-07:00,9.4743919372559,5,versionA_stim.csv,JOL_H_VersionA.csv,"Highlight vs normal A","Highlight vs normal",MEANING,DEFINITION,Study1,S,62,70,JOL,User,-,"How likely are you to correctly recall the second item in the pair?|Type your response on a scale from 0-100 and then press Enter.",Study/JOL,"Study Phase",8553,,,5894,7310,,,,100,1
5e8fe6a309881f2ee83521f5,9nqtibqmcj,Trevor-ex1,1,83,2020-07-17T10:08:19-07:00,9.1919691562653,5,versionA_stim.csv,JOL_H_VersionA.csv,"Highlight vs normal A","Highlight vs normal",TUNA,FISH,Study1,F,25,11,JOL_H,User,-,"How likely are you to correctly recall the second item in the pair?|Type your response on a scale from 0-100 and then press Enter.",Study/JOL,"Study Phase",8617,,,4636,4943,,,,84,1
5e8fe6a309881f2ee83521f5,9nqtibqmcj,Trevor-ex1,1,84,2020-07-17T10:08:28-07:00,8.9713568687439,5,versionA_stim.csv,JOL_H_VersionA.csv,"Highlight vs normal A","Highlight vs normal",GREAT,FANTASTIC,Study1,B,35,30,JOL_H,User,-,"How likely are you to correctly recall the second item in the pair?|Type your response on a scale from 0-100 and then press Enter.",Study/JOL,"Study Phase",8243,,,4093,5672,,,,92,1
5e8fe6a309881f2ee83521f5,9nqtibqmcj,Trevor-ex1,1,85,2020-07-17T10:08:40-07:00,12.212295055389,5,versionA_stim.csv,JOL_H_VersionA.csv,"Highlight vs normal A","Highlight vs normal",BATHROOM,TOILET,Study1,S,58,83,JOL,User,-,"How likely are you to correctly recall the second item in the pair?|Type your response on a scale from 0-100 and then press Enter.",Study/JOL,"Study Phase",11649,,,8249,9492,,,,100,1
5e8fe6a309881f2ee83521f5,9nqtibqmcj,Trevor-ex1,1,86,2020-07-17T10:08:52-07:00,12.108110904694,5,versionA_stim.csv,JOL_H_VersionA.csv,"Highlight vs normal A","Highlight vs normal",CHISEL,HAMMER,Study1,F,9,8,JOL_H,User,-,"How likely are you to correctly recall the second item in the pair?|Type your response on a scale from 0-100 and then press Enter.",Study/JOL,"Study Phase",11400,,,10113,10445,,,,23,1
5e8fe6a309881f2ee83521f5,9nqtibqmcj,Trevor-ex1,1,87,2020-07-17T10:08:57-07:00,4.8014521598816,5,versionA_stim.csv,JOL_H_VersionA.csv,"Highlight vs normal A","Highlight vs normal",BABY,CHILD,Study1,S,64,12,JOL_H,User,-,"How likely are you to correctly recall the second item in the pair?|Type your response on a scale from 0-100 and then press Enter.",Study/JOL,"Study Phase",4281,,,2947,3194,,,,90,1
5e8fe6a309881f2ee83521f5,9nqtibqmcj,Trevor-ex1,1,88,2020-07-17T10:09:06-07:00,9.2068958282471,5,versionA_stim.csv,JOL_H_VersionA.csv,"Highlight vs normal A","Highlight vs normal",EDITOR,NEWS,Study1,F,10,77,JOL,User,-,"How likely are you to correctly recall the second item in the pair?|Type your response on a scale from 0-100 and then press Enter.",Study/JOL,"Study Phase",8505,,,7284,7518,,,,89,1
5e8fe6a309881f2ee83521f5,9nqtibqmcj,Trevor-ex1,1,89,2020-07-17T10:09:13-07:00,6.7779970169067,5,versionA_stim.csv,JOL_H_VersionA.csv,"Highlight vs normal A","Highlight vs normal",BALL,RACKET,Study1,B,38,20,JOL_H,User,-,"How likely are you to correctly recall the second item in the pair?|Type your response on a scale from 0-100 and then press Enter.",Study/JOL,"Study Phase",6220,,,2985,4836,,,,62,1
5e8fe6a309881f2ee83521f5,9nqtibqmcj,Trevor-ex1,1,90,2020-07-17T10:09:20-07:00,6.3979780673981,5,versionA_stim.csv,JOL_H_VersionA.csv,"Highlight vs normal A","Highlight vs normal",MACHINE,POSITION,Study1,U,76,65,JOL,User,-,"How likely are you to correctly recall the second item in the pair?|Type your response on a scale from 0-100 and then press Enter.",Study/JOL,"Study Phase",5735,,,2879,4564,,,,28,1
5e8fe6a309881f2ee83521f5,9nqtibqmcj,Trevor-ex1,1,91,2020-07-17T10:09:27-07:00,6.9465141296387,5,versionA_stim.csv,JOL_H_VersionA.csv,"Highlight vs normal A","Highlight vs normal",GEESE,GOOSE,BUFFER2,Buffer,86,89,JOL_H,User,-,"How likely are you to correctly recall the second item in the pair?|Type your response on a scale from 0-100 and then press Enter.",Study/JOL,BUFFER2,6358,,,4207,4521,,,,77,1
5e8fe6a309881f2ee83521f5,9nqtibqmcj,Trevor-ex1,1,92,2020-07-17T10:09:31-07:00,4.767068862915,5,versionA_stim.csv,JOL_H_VersionA.csv,"Highlight vs normal A","Highlight vs normal",MOON,SPACE,BUFFER2,Buffer,89,90,JOL,User,-,"How likely are you to correctly recall the second item in the pair?|Type your response on a scale from 0-100 and then press Enter.",Study/JOL,BUFFER2,4096,,,3168,3332,,,,88,1
5e8fe6a309881f2ee83521f5,9nqtibqmcj,Trevor-ex1,1,93,2020-07-17T10:09:35-07:00,4.0778770446777,5,versionA_stim.csv,JOL_H_VersionA.csv,"Highlight vs normal A","Highlight vs normal",THING,STUFF,BUFFER2,Buffer,90,87,JOL_H,User,-,"How likely are you to correctly recall the second item in the pair?|Type your response on a scale from 0-100 and then press Enter.",Study/JOL,BUFFER2,3426,,,1993,1993,,,,2,1
5e8fe6a309881f2ee83521f5,9nqtibqmcj,Trevor-ex1,1,94,2020-07-17T10:09:42-07:00,6.6846289634705,5,versionA_stim.csv,JOL_H_VersionA.csv,"Highlight vs normal A","Highlight vs normal",MALT,CHOCOLATE,BUFFER2,Buffer,88,91,JOL,User,-,"How likely are you to correctly recall the second item in the pair?|Type your response on a scale from 0-100 and then press Enter.",Study/JOL,BUFFER2,5951,,,4556,4869,,,,35,1
5e8fe6a309881f2ee83521f5,9nqtibqmcj,Trevor-ex1,1,95,2020-07-17T10:09:47-07:00,4.9830589294434,5,versionA_stim.csv,JOL_H_VersionA.csv,"Highlight vs normal A","Highlight vs normal",SHERRIF,POLICE,BUFFER2,Buffer,87,88,JOL_H,User,-,"How likely are you to correctly recall the second item in the pair?|Type your response on a scale from 0-100 and then press Enter.",Study/JOL,BUFFER2,4340,,,2960,3130,,,,97,1
5e8fe6a309881f2ee83521f5,9nqtibqmcj,Trevor-ex1,1,96,2020-07-17T10:09:51-07:00,4.0423030853271,5,versionA_stim.csv,JOL_H_VersionA.csv,"Highlight vs normal A","Highlight vs normal",,,,,,0,Instruct,User,-,"You have completed this section. Please press Enter.",Filler_Instruction,Instruct2,3301,,,-1,-1,,,,,1
5e8fe6a309881f2ee83521f5,9nqtibqmcj,Trevor-ex1,1,97,2020-07-17T10:11:52-07:00,120.69048690796,5,versionA_stim.csv,JOL_H_VersionA.csv,"Highlight vs normal A","Highlight vs normal",,,,,,0,FreeRecall,120,120,"Please list the 50 US states in alphabetical order. The task will automatically advance to the next screen after two minutes.",,Filler1,120011,"Alabama Alaska Arkansas Colorado Connecticut Louisiana Washington Texas New York Florida California New Jersey West Virginia Virginia ",0,9994,110626,0,0,,,0.989
5e8fe6a309881f2ee83521f5,9nqtibqmcj,Trevor-ex1,1,98,2020-07-17T10:12:10-07:00,18.26599407196,5,versionA_stim.csv,JOL_H_VersionA.csv,"Highlight vs normal A","Highlight vs normal",,,,,,0,Instruct,-,10,"You will now be presented with the first word from each of the previously studied item pairs. Please type the missing word. If you do not know the word, you may guess or press Enter to skip forward to the next pair.",,Instruct3,17428,,,-1,-1,,,,,1
5e8fe6a309881f2ee83521f5,9nqtibqmcj,Trevor-ex1,1,99,2020-07-17T10:12:20-07:00,9.4874300956726,5,versionA_stim.csv,JOL_H_VersionA.csv,"Highlight vs normal A","Highlight vs normal",MEANING,DEFINITION,Study1,S,62,70,Test,User,-,,Recall,Recall1,8703,"Definition ",100,3160,7564,1,1,,,1
5e8fe6a309881f2ee83521f5,9nqtibqmcj,Trevor-ex1,1,100,2020-07-17T10:12:28-07:00,8.0456409454346,5,versionA_stim.csv,JOL_H_VersionA.csv,"Highlight vs normal A","Highlight vs normal",ROOT,PLANT,Study1,F,13,82,Test,User,-,,Recall,Recall1,7322,Word,0,4397,6498,0,0,,,1
5e8fe6a309881f2ee83521f5,9nqtibqmcj,Trevor-ex1,1,101,2020-07-17T10:12:42-07:00,14.820967912674,5,versionA_stim.csv,JOL_H_VersionA.csv,"Highlight vs normal A","Highlight vs normal",WORK,CHORE,Study1,B,39,47,Test,User,-,,Recall,Recall1,14103,Money,40,12513,13303,0,0,,,1
5e8fe6a309881f2ee83521f5,9nqtibqmcj,Trevor-ex1,1,102,2020-07-17T10:12:53-07:00,10.310374975204,5,versionA_stim.csv,JOL_H_VersionA.csv,"Highlight vs normal A","Highlight vs normal",KING,VASE,Study1,U,85,57,Test,User,-,,Recall,Recall1,8742,,0,-1,-1,0,0,,,1
5e8fe6a309881f2ee83521f5,9nqtibqmcj,Trevor-ex1,1,103,2020-07-17T10:13:06-07:00,13.003619194031,5,versionA_stim.csv,JOL_H_VersionA.csv,"Highlight vs normal A","Highlight vs normal",LIFT,WOMAN,Study1,U,69,18,Test,User,-,,Recall,Recall1,12341,Bench,20,9856,11325,0,0,,,0.92
5e8fe6a309881f2ee83521f5,9nqtibqmcj,Trevor-ex1,1,104,2020-07-17T10:13:17-07:00,11.199158906937,5,versionA_stim.csv,JOL_H_VersionA.csv,"Highlight vs normal A","Highlight vs normal",BLOW,WIND,Study1,S,55,41,Test,User,-,,Recall,Recall1,10399,Hair,25,7801,9527,0,0,,,1
5e8fe6a309881f2ee83521f5,9nqtibqmcj,Trevor-ex1,1,105,2020-07-17T10:13:27-07:00,9.8754920959473,5,versionA_stim.csv,JOL_H_VersionA.csv,"Highlight vs normal A","Highlight vs normal",VALLEY,ADD,Study1,U,82,26,Test,User,-,,Recall,Recall1,9207,Root,0,3133,8265,0,0,,,1
5e8fe6a309881f2ee83521f5,9nqtibqmcj,Trevor-ex1,1,106,2020-07-17T10:13:33-07:00,5.8179249763489,5,versionA_stim.csv,JOL_H_VersionA.csv,"Highlight vs normal A","Highlight vs normal",DUMP,WASTE,Study1,S,49,76,Test,User,-,,Recall,Recall1,5191,Fire,22.222222222222,3112,4319,0,0,,,1
5e8fe6a309881f2ee83521f5,9nqtibqmcj,Trevor-ex1,1,107,2020-07-17T10:13:43-07:00,10.653774023056,5,versionA_stim.csv,JOL_H_VersionA.csv,"Highlight vs normal A","Highlight vs normal",PUSHER,CLUTTER,Study1,U,66,53,Test,User,-,,Recall,Recall1,9352,Clutter,100,2345,8863,1,1,,,1
5e8fe6a309881f2ee83521f5,9nqtibqmcj,Trevor-ex1,1,108,2020-07-17T10:13:52-07:00,8.4231398105621,5,versionA_stim.csv,JOL_H_VersionA.csv,"Highlight vs normal A","Highlight vs normal",GREAT,FANTASTIC,Study1,B,35,30,Test,User,-,,Recall,Recall1,6766,Fantastic,100,4199,6065,1,1,,,1
5e8fe6a309881f2ee83521f5,9nqtibqmcj,Trevor-ex1,1,109,2020-07-17T10:13:58-07:00,6.48468708992,5,versionA_stim.csv,JOL_H_VersionA.csv,"Highlight vs normal A","Highlight vs normal",DISCOVER,FLOOR,Study1,U,71,56,Test,User,-,,Recall,Recall1,5839,Find,22.222222222222,4970,5333,0,0,,,1
5e8fe6a309881f2ee83521f5,9nqtibqmcj,Trevor-ex1,1,110,2020-07-17T10:14:06-07:00,7.8996210098267,5,versionA_stim.csv,JOL_H_VersionA.csv,"Highlight vs normal A","Highlight vs normal",WAY,OUT,Study1,F,16,79,Test,User,-,,Recall,Recall1,7241,Work,28.571428571429,4110,7135,0,0,,,1
5e8fe6a309881f2ee83521f5,9nqtibqmcj,Trevor-ex1,1,111,2020-07-17T10:14:12-07:00,5.5369429588318,5,versionA_stim.csv,JOL_H_VersionA.csv,"Highlight vs normal A","Highlight vs normal",MACHINE,POSITION,Study1,U,76,65,Test,User,-,,Recall,Recall1,4187,Made,0,3119,4041,0,0,,,1
5e8fe6a309881f2ee83521f5,9nqtibqmcj,Trevor-ex1,1,112,2020-07-17T10:14:18-07:00,5.8788220882416,5,versionA_stim.csv,JOL_H_VersionA.csv,"Highlight vs normal A","Highlight vs normal",HAPPY,CAR,Study1,U,77,15,Test,User,-,,Recall,Recall1,5277,,0,-1,-1,0,0,,,1
5e8fe6a309881f2ee83521f5,9nqtibqmcj,Trevor-ex1,1,113,2020-07-17T10:14:23-07:00,5.4530429840088,5,versionA_stim.csv,JOL_H_VersionA.csv,"Highlight vs normal A","Highlight vs normal",FIX,HAND,Study1,U,75,72,Test,User,-,,Recall,Recall1,4852,break,22.222222222222,3636,4727,0,0,,,1
5e8fe6a309881f2ee83521f5,9nqtibqmcj,Trevor-ex1,1,114,2020-07-17T10:14:27-07:00,3.6165239810944,5,versionA_stim.csv,JOL_H_VersionA.csv,"Highlight vs normal A","Highlight vs normal",DEATH,BUSINESS,Study1,U,72,54,Test,User,-,,Recall,Recall1,2991,,0,-1,-1,0,0,,,1
5e8fe6a309881f2ee83521f5,9nqtibqmcj,Trevor-ex1,1,115,2020-07-17T10:14:30-07:00,3.8146998882294,5,versionA_stim.csv,JOL_H_VersionA.csv,"Highlight vs normal A","Highlight vs normal",SMELL,STENCH,Study1,B,42,36,Test,User,-,,Recall,Recall1,3033,Stench,100,1476,2718,1,1,,,1
5e8fe6a309881f2ee83521f5,9nqtibqmcj,Trevor-ex1,1,116,2020-07-17T10:14:37-07:00,6.8961119651794,5,versionA_stim.csv,JOL_H_VersionA.csv,"Highlight vs normal A","Highlight vs normal",WINE,CHEESE,Study1,S,57,43,Test,User,-,,Recall,Recall1,6205,Grape,18.181818181818,2023,5981,0,0,,,1
5e8fe6a309881f2ee83521f5,9nqtibqmcj,Trevor-ex1,1,117,2020-07-17T10:14:43-07:00,5.9958531856537,5,versionA_stim.csv,JOL_H_VersionA.csv,"Highlight vs normal A","Highlight vs normal",CLOTHES,ATTIRE,Study1,B,43,67,Test,User,-,,Recall,Recall1,3330,Shop,0,1847,2974,0,0,,,1
5e8fe6a309881f2ee83521f5,9nqtibqmcj,Trevor-ex1,1,118,2020-07-17T10:14:49-07:00,5.9944758415222,5,versionA_stim.csv,JOL_H_VersionA.csv,"Highlight vs normal A","Highlight vs normal",BRIDGE,WATER,Study1,F,18,48,Test,User,-,,Recall,Recall1,4387,Water,100,1394,4209,1,1,,,1
5e8fe6a309881f2ee83521f5,9nqtibqmcj,Trevor-ex1,1,119,2020-07-17T10:14:57-07:00,7.6413090229034,5,versionA_stim.csv,JOL_H_VersionA.csv,"Highlight vs normal A","Highlight vs normal",CHISEL,HAMMER,Study1,F,9,8,Test,User,-,,Recall,Recall1,6979,Hammer,100,4911,6615,1,1,,,1
5e8fe6a309881f2ee83521f5,9nqtibqmcj,Trevor-ex1,1,120,2020-07-17T10:15:00-07:00,3.104907989502,5,versionA_stim.csv,JOL_H_VersionA.csv,"Highlight vs normal A","Highlight vs normal",TUNA,FISH,Study1,F,25,11,Test,User,-,,Recall,Recall1,2399,Fish,100,1170,2300,1,1,,,1
5e8fe6a309881f2ee83521f5,9nqtibqmcj,Trevor-ex1,1,121,2020-07-17T10:15:05-07:00,5.0233671665192,5,versionA_stim.csv,JOL_H_VersionA.csv,"Highlight vs normal A","Highlight vs normal",SHOE,FOOT,Study1,S,60,78,Test,User,-,,Recall,Recall1,4203,Rack,0,2514,3757,0,0,,,1
5e8fe6a309881f2ee83521f5,9nqtibqmcj,Trevor-ex1,1,122,2020-07-17T10:15:10-07:00,4.5858299732208,5,versionA_stim.csv,JOL_H_VersionA.csv,"Highlight vs normal A","Highlight vs normal",ARTERY,BRONZE,Study1,U,74,74,Test,User,-,,Recall,Recall1,3920,Heart,18.181818181818,2561,3514,0,0,,,1
5e8fe6a309881f2ee83521f5,9nqtibqmcj,Trevor-ex1,1,123,2020-07-17T10:15:15-07:00,5.170893907547,5,versionA_stim.csv,JOL_H_VersionA.csv,"Highlight vs normal A","Highlight vs normal",GEOLOGY,ROCK,Study1,F,19,7,Test,User,-,,Recall,Recall1,3581,Rock,100,1529,3387,1,1,,,1
5e8fe6a309881f2ee83521f5,9nqtibqmcj,Trevor-ex1,1,124,2020-07-17T10:15:24-07:00,9.4733729362488,5,versionA_stim.csv,JOL_H_VersionA.csv,"Highlight vs normal A","Highlight vs normal",NUMBER,AMOUNT,Study1,S,47,27,Test,User,-,,Recall,Recall1,8807,,0,1776,2790,0,0,,,1
5e8fe6a309881f2ee83521f5,9nqtibqmcj,Trevor-ex1,1,125,2020-07-17T10:15:29-07:00,4.2771110534668,5,versionA_stim.csv,JOL_H_VersionA.csv,"Highlight vs normal A","Highlight vs normal",PARK,HUNGRY,Study1,U,68,86,Test,User,-,,Recall,Recall1,3712,,0,-1,-1,0,0,,,1
5e8fe6a309881f2ee83521f5,9nqtibqmcj,Trevor-ex1,1,126,2020-07-17T10:15:32-07:00,3.1447081565857,5,versionA_stim.csv,JOL_H_VersionA.csv,"Highlight vs normal A","Highlight vs normal",PAW,DOG,Study1,F,15,49,Test,User,-,,Recall,Recall1,2526,Dog,100,1432,2340,1,1,,,1
5e8fe6a309881f2ee83521f5,9nqtibqmcj,Trevor-ex1,1,127,2020-07-17T10:15:46-07:00,13.969806909561,5,versionA_stim.csv,JOL_H_VersionA.csv,"Highlight vs normal A","Highlight vs normal",TAKE,SEIZE,Study1,B,29,61,Test,User,-,,Recall,Recall1,13256,hide,44.444444444444,11543,12974,0,0,,,1
5e8fe6a309881f2ee83521f5,9nqtibqmcj,Trevor-ex1,1,128,2020-07-17T10:15:50-07:00,4.4105749130249,5,versionA_stim.csv,JOL_H_VersionA.csv,"Highlight vs normal A","Highlight vs normal",BEGIN,END,Study1,S,54,25,Test,User,-,,Recall,Recall1,3793,start,0,1928,3226,0,0,,,1
5e8fe6a309881f2ee83521f5,9nqtibqmcj,Trevor-ex1,1,129,2020-07-17T10:15:53-07:00,3.2748301029205,5,versionA_stim.csv,JOL_H_VersionA.csv,"Highlight vs normal A","Highlight vs normal",ORCHID,FLOWER,Study1,F,24,39,Test,User,-,,Recall,Recall1,2493,Flower,100,1599,2366,1,1,,,1
5e8fe6a309881f2ee83521f5,9nqtibqmcj,Trevor-ex1,1,130,2020-07-17T10:15:56-07:00,2.9616799354553,5,versionA_stim.csv,JOL_H_VersionA.csv,"Highlight vs normal A","Highlight vs normal",ART,LION,Study1,U,79,62,Test,User,-,,Recall,Recall1,2247,Lion,100,1526,2116,1,1,,,1
5e8fe6a309881f2ee83521f5,9nqtibqmcj,Trevor-ex1,1,131,2020-07-17T10:16:01-07:00,4.9530289173126,5,versionA_stim.csv,JOL_H_VersionA.csv,"Highlight vs normal A","Highlight vs normal",BATHROOM,TOILET,Study1,S,58,83,Test,User,-,,Recall,Recall1,4443,Toilet,100,3010,4238,1,1,,,1
5e8fe6a309881f2ee83521f5,9nqtibqmcj,Trevor-ex1,1,132,2020-07-17T10:16:07-07:00,5.6546261310577,5,versionA_stim.csv,JOL_H_VersionA.csv,"Highlight vs normal A","Highlight vs normal",BABY,CHILD,Study1,S,64,12,Test,User,-,,Recall,Recall1,4971,Smile,40,3576,4807,0,0,,,1
5e8fe6a309881f2ee83521f5,9nqtibqmcj,Trevor-ex1,1,133,2020-07-17T10:16:14-07:00,6.9212648868561,5,versionA_stim.csv,JOL_H_VersionA.csv,"Highlight vs normal A","Highlight vs normal",LAW,ATTORNEY,Study1,B,34,63,Test,User,-,,Recall,Recall1,6251,Police,28.571428571429,4001,5785,0,0,,,1
5e8fe6a309881f2ee83521f5,9nqtibqmcj,Trevor-ex1,1,134,2020-07-17T10:16:18-07:00,3.713632106781,5,versionA_stim.csv,JOL_H_VersionA.csv,"Highlight vs normal A","Highlight vs normal",LETTUCE,SALAD,Study1,S,59,66,Test,User,-,,Recall,Recall1,3042,Salad,100,1996,2685,1,1,,,1
5e8fe6a309881f2ee83521f5,9nqtibqmcj,Trevor-ex1,1,135,2020-07-17T10:16:22-07:00,4.0880770683289,5,versionA_stim.csv,JOL_H_VersionA.csv,"Highlight vs normal A","Highlight vs normal",PAST,FUTURE,Study1,S,61,33,Test,User,-,,Recall,Recall1,3508,Future,100,1615,3217,1,1,,,1
5e8fe6a309881f2ee83521f5,9nqtibqmcj,Trevor-ex1,1,136,2020-07-17T10:16:31-07:00,9.2788789272308,5,versionA_stim.csv,JOL_H_VersionA.csv,"Highlight vs normal A","Highlight vs normal",FULL,ENOUGH,Study1,B,26,81,Test,User,-,,Recall,Recall1,8619,empty,18.181818181818,7337,8476,0,0,,,1
5e8fe6a309881f2ee83521f5,9nqtibqmcj,Trevor-ex1,1,137,2020-07-17T10:16:35-07:00,4.0144169330597,5,versionA_stim.csv,JOL_H_VersionA.csv,"Highlight vs normal A","Highlight vs normal",KIDNEY,LIVER,Study1,S,53,73,Test,User,-,,Recall,Recall1,3380,Liver,100,2401,3228,1,1,,,1
5e8fe6a309881f2ee83521f5,9nqtibqmcj,Trevor-ex1,1,138,2020-07-17T10:16:40-07:00,5.1422941684723,5,versionA_stim.csv,JOL_H_VersionA.csv,"Highlight vs normal A","Highlight vs normal",DUE,ASSIGNMENT,Study1,S,46,51,Test,User,-,,Recall,Recall1,4456,Assignment,100,1582,3993,1,1,,,1
5e8fe6a309881f2ee83521f5,9nqtibqmcj,Trevor-ex1,1,139,2020-07-17T10:16:43-07:00,2.7866258621216,5,versionA_stim.csv,JOL_H_VersionA.csv,"Highlight vs normal A","Highlight vs normal",DARK,CAVE,Study1,B,28,21,Test,User,-,,Recall,Recall1,2049,Cave,100,1083,1659,1,1,,,1
5e8fe6a309881f2ee83521f5,9nqtibqmcj,Trevor-ex1,1,140,2020-07-17T10:16:47-07:00,4.0272591114044,5,versionA_stim.csv,JOL_H_VersionA.csv,"Highlight vs normal A","Highlight vs normal",HYGIENE,CLEAN,Study1,F,17,85,Test,User,-,,Recall,Recall1,3401,Clean,100,1791,2672,1,1,,,1
5e8fe6a309881f2ee83521f5,9nqtibqmcj,Trevor-ex1,1,141,2020-07-17T10:16:49-07:00,2.4075729846954,5,versionA_stim.csv,JOL_H_VersionA.csv,"Highlight vs normal A","Highlight vs normal",HERD,COW,Study1,F,22,38,Test,User,-,,Recall,Recall1,1678,Cow,100,1074,1431,1,1,,,1
5e8fe6a309881f2ee83521f5,9nqtibqmcj,Trevor-ex1,1,142,2020-07-17T10:16:59-07:00,9.6916968822479,5,versionA_stim.csv,JOL_H_VersionA.csv,"Highlight vs normal A","Highlight vs normal",SLEEP,DROWSY,Study1,B,41,22,Test,User,-,,Recall,Recall1,9092,Drowsy,100,4450,8687,1,1,,,1
5e8fe6a309881f2ee83521f5,9nqtibqmcj,Trevor-ex1,1,143,2020-07-17T10:17:04-07:00,4.5226619243622,5,versionA_stim.csv,JOL_H_VersionA.csv,"Highlight vs normal A","Highlight vs normal",DELINQUENT,BAD,Study1,F,6,59,Test,User,-,,Recall,Recall1,3634,Bad,100,1585,2115,1,1,,,1
5e8fe6a309881f2ee83521f5,9nqtibqmcj,Trevor-ex1,1,144,2020-07-17T10:17:07-07:00,3.2766370773315,5,versionA_stim.csv,JOL_H_VersionA.csv,"Highlight vs normal A","Highlight vs normal",CIRCLE,ROUND,Study1,S,65,24,Test,User,-,,Recall,Recall1,2683,Round,100,1518,2260,1,1,,,1
5e8fe6a309881f2ee83521f5,9nqtibqmcj,Trevor-ex1,1,145,2020-07-17T10:17:15-07:00,8.2113399505615,5,versionA_stim.csv,JOL_H_VersionA.csv,"Highlight vs normal A","Highlight vs normal",CREDIT,CARD,Study1,F,23,10,Test,User,-,,Recall,Recall1,7579,"Score ",44.444444444444,1565,7282,0,0,,,1
5e8fe6a309881f2ee83521f5,9nqtibqmcj,Trevor-ex1,1,146,2020-07-17T10:17:22-07:00,6.5130620002747,5,versionA_stim.csv,JOL_H_VersionA.csv,"Highlight vs normal A","Highlight vs normal",HUNGER,FAMINE,Study1,B,40,80,Test,User,-,,Recall,Recall1,5966,"Famine ",100,3493,5053,1,1,,,1
5e8fe6a309881f2ee83521f5,9nqtibqmcj,Trevor-ex1,1,147,2020-07-17T10:17:25-07:00,3.613272190094,5,versionA_stim.csv,JOL_H_VersionA.csv,"Highlight vs normal A","Highlight vs normal",HIDE,SICK,Study1,U,84,37,Test,User,-,,Recall,Recall1,2971,Seek,50,1547,2297,0,0,,,1
5e8fe6a309881f2ee83521f5,9nqtibqmcj,Trevor-ex1,1,148,2020-07-17T10:17:33-07:00,7.6612629890442,5,versionA_stim.csv,JOL_H_VersionA.csv,"Highlight vs normal A","Highlight vs normal",DISCUSSION,TALK,Study1,F,21,44,Test,User,-,,Recall,Recall1,6883,,0,-1,-1,0,0,,,1
5e8fe6a309881f2ee83521f5,9nqtibqmcj,Trevor-ex1,1,149,2020-07-17T10:17:36-07:00,2.8547329902649,5,versionA_stim.csv,JOL_H_VersionA.csv,"Highlight vs normal A","Highlight vs normal",REVOLUTION,WAR,Study1,F,20,75,Test,User,-,,Recall,Recall1,2160,War,100,1460,1966,1,1,,,1
5e8fe6a309881f2ee83521f5,9nqtibqmcj,Trevor-ex1,1,150,2020-07-17T10:17:44-07:00,8.3861019611359,5,versionA_stim.csv,JOL_H_VersionA.csv,"Highlight vs normal A","Highlight vs normal",LOCATION,SITE,Study1,S,48,45,Test,User,-,,Recall,Recall1,7779,,0,2905,2905,0,0,,,1
5e8fe6a309881f2ee83521f5,9nqtibqmcj,Trevor-ex1,1,151,2020-07-17T10:17:49-07:00,4.9712018966675,5,versionA_stim.csv,JOL_H_VersionA.csv,"Highlight vs normal A","Highlight vs normal",STRONG,ACCIDENT,Study1,U,80,68,Test,User,-,,Recall,Recall1,3247,Will,16.666666666667,1789,2892,0,0,,,1
5e8fe6a309881f2ee83521f5,9nqtibqmcj,Trevor-ex1,1,152,2020-07-17T10:17:57-07:00,7.9515919685364,5,versionA_stim.csv,JOL_H_VersionA.csv,"Highlight vs normal A","Highlight vs normal",DRINK,SIP,Study1,B,27,71,Test,User,-,,Recall,Recall1,7298,water,0,4545,7125,0,0,,,1
5e8fe6a309881f2ee83521f5,9nqtibqmcj,Trevor-ex1,1,153,2020-07-17T10:18:04-07:00,7.1242370605469,5,versionA_stim.csv,JOL_H_VersionA.csv,"Highlight vs normal A","Highlight vs normal",DIETARY,SACKING,Study1,U,67,64,Test,User,-,,Recall,Recall1,6463,heart,16.666666666667,5551,6271,0,0,,,1
5e8fe6a309881f2ee83521f5,9nqtibqmcj,Trevor-ex1,1,154,2020-07-17T10:18:08-07:00,3.472510099411,5,versionA_stim.csv,JOL_H_VersionA.csv,"Highlight vs normal A","Highlight vs normal",SOON,BELT,Study1,U,70,35,Test,User,-,,Recall,Recall1,2810,gone,25,1867,2566,0,0,,,1
5e8fe6a309881f2ee83521f5,9nqtibqmcj,Trevor-ex1,1,155,2020-07-17T10:18:46-07:00,38.698559999466,5,versionA_stim.csv,JOL_H_VersionA.csv,"Highlight vs normal A","Highlight vs normal",HORNET,STING,Study1,F,11,84,Test,User,-,,Recall,Recall1,9553,Wasp,22.222222222222,4300,9101,0,0,,,0.927
5e8fe6a309881f2ee83521f5,9nqtibqmcj,Trevor-ex1,1,156,2020-07-17T10:18:51-07:00,4.2830319404602,5,versionA_stim.csv,JOL_H_VersionA.csv,"Highlight vs normal A","Highlight vs normal",PLANE,PILOT,Study1,B,44,58,Test,User,-,,Recall,Recall1,3672,crash,0,2012,3211,0,0,,,1
5e8fe6a309881f2ee83521f5,9nqtibqmcj,Trevor-ex1,1,157,2020-07-17T10:18:58-07:00,7.8242599964142,5,versionA_stim.csv,JOL_H_VersionA.csv,"Highlight vs normal A","Highlight vs normal",DEBATE,SIGHT,Study1,U,73,52,Test,User,-,,Recall,Recall1,7061," ",0,5584,6721,0,0,,,1
5e8fe6a309881f2ee83521f5,9nqtibqmcj,Trevor-ex1,1,158,2020-07-17T10:19:01-07:00,2.8677570819855,5,versionA_stim.csv,JOL_H_VersionA.csv,"Highlight vs normal A","Highlight vs normal",POP,SODA,Study1,S,56,9,Test,User,-,,Recall,Recall1,2279,soda,100,1496,2101,1,1,,,1
5e8fe6a309881f2ee83521f5,9nqtibqmcj,Trevor-ex1,1,159,2020-07-17T10:19:04-07:00,3.0978629589081,5,versionA_stim.csv,JOL_H_VersionA.csv,"Highlight vs normal A","Highlight vs normal",SWAN,BIRD,Study1,F,14,23,Test,User,-,,Recall,Recall1,2420,bird,100,1578,2107,1,1,,,1
5e8fe6a309881f2ee83521f5,9nqtibqmcj,Trevor-ex1,1,160,2020-07-17T10:19:09-07:00,4.3729040622711,5,versionA_stim.csv,JOL_H_VersionA.csv,"Highlight vs normal A","Highlight vs normal",CASH,WOULD,Study1,U,83,34,Test,User,-,,Recall,Recall1,3613,money,20,1946,3398,0,0,,,1
5e8fe6a309881f2ee83521f5,9nqtibqmcj,Trevor-ex1,1,161,2020-07-17T10:19:12-07:00,3.4939939975739,5,versionA_stim.csv,JOL_H_VersionA.csv,"Highlight vs normal A","Highlight vs normal",FIRE,BLAZE,Study1,B,45,17,Test,User,-,,Recall,Recall1,2965,spread,18.181818181818,1752,2749,0,0,,,1
5e8fe6a309881f2ee83521f5,9nqtibqmcj,Trevor-ex1,1,162,2020-07-17T10:19:15-07:00,2.7317898273468,5,versionA_stim.csv,JOL_H_VersionA.csv,"Highlight vs normal A","Highlight vs normal",GRILL,BAR,Study1,S,52,50,Test,User,-,,Recall,Recall1,2065,bar,100,1455,1719,1,1,,,1
5e8fe6a309881f2ee83521f5,9nqtibqmcj,Trevor-ex1,1,163,2020-07-17T10:19:19-07:00,4.2542159557343,5,versionA_stim.csv,JOL_H_VersionA.csv,"Highlight vs normal A","Highlight vs normal",HEIGHT,GROWTH,Study1,B,30,29,Test,User,-,,Recall,Recall1,3601,grow,80,2769,3233,0,1,,,1
5e8fe6a309881f2ee83521f5,9nqtibqmcj,Trevor-ex1,1,164,2020-07-17T10:19:22-07:00,3.0030272006989,5,versionA_stim.csv,JOL_H_VersionA.csv,"Highlight vs normal A","Highlight vs normal",ALLOW,TUCK,Study1,U,78,28,Test,User,-,,Recall,Recall1,2281,leave,0,1423,1977,0,0,,,1
5e8fe6a309881f2ee83521f5,9nqtibqmcj,Trevor-ex1,1,165,2020-07-17T10:19:27-07:00,4.8071038722992,5,versionA_stim.csv,JOL_H_VersionA.csv,"Highlight vs normal A","Highlight vs normal",BITTER,COLD,Study1,F,12,42,Test,User,-,,Recall,Recall1,4178,sour,25,1250,2156,0,0,,,1
5e8fe6a309881f2ee83521f5,9nqtibqmcj,Trevor-ex1,1,166,2020-07-17T10:19:33-07:00,6.1814410686493,5,versionA_stim.csv,JOL_H_VersionA.csv,"Highlight vs normal A","Highlight vs normal",EDITOR,NEWS,Study1,F,10,77,Test,User,-,,Recall,Recall1,5449,magazine,33.333333333333,2275,5016,0,0,,,1
5e8fe6a309881f2ee83521f5,9nqtibqmcj,Trevor-ex1,1,167,2020-07-17T10:19:37-07:00,4.1135530471802,5,versionA_stim.csv,JOL_H_VersionA.csv,"Highlight vs normal A","Highlight vs normal",DIGESTION,STOMACH,Study1,F,7,16,Test,User,-,,Recall,Recall1,3482,Stomach,100,1825,3340,1,1,,,1
5e8fe6a309881f2ee83521f5,9nqtibqmcj,Trevor-ex1,1,168,2020-07-17T10:19:48-07:00,10.700286865234,5,versionA_stim.csv,JOL_H_VersionA.csv,"Highlight vs normal A","Highlight vs normal",BUG,WASP,Study1,B,32,19,Test,User,-,,Recall,Recall1,10057,insect,20,4939,8168,0,0,,,1
5e8fe6a309881f2ee83521f5,9nqtibqmcj,Trevor-ex1,1,169,2020-07-17T10:19:51-07:00,2.9395771026611,5,versionA_stim.csv,JOL_H_VersionA.csv,"Highlight vs normal A","Highlight vs normal",BALL,RACKET,Study1,B,38,20,Test,User,-,,Recall,Recall1,2374,play,20,1369,2100,0,0,,,1
5e8fe6a309881f2ee83521f5,9nqtibqmcj,Trevor-ex1,1,170,2020-07-17T10:19:57-07:00,5.8537800312042,5,versionA_stim.csv,JOL_H_VersionA.csv,"Highlight vs normal A","Highlight vs normal",SENTENCE,WORD,Study1,B,31,69,Test,User,-,,Recall,Recall1,5250,word,100,3804,4951,1,1,,,1
5e8fe6a309881f2ee83521f5,9nqtibqmcj,Trevor-ex1,1,171,2020-07-17T10:20:00-07:00,2.7733829021454,5,versionA_stim.csv,JOL_H_VersionA.csv,"Highlight vs normal A","Highlight vs normal",HOT,CHILI,Study1,B,37,55,Test,User,-,,Recall,Recall1,2071,,0,-1,-1,0,0,,,1
5e8fe6a309881f2ee83521f5,9nqtibqmcj,Trevor-ex1,1,172,2020-07-17T10:20:02-07:00,2.1381850242615,5,versionA_stim.csv,JOL_H_VersionA.csv,"Highlight vs normal A","Highlight vs normal",SUGAR,RIDDLE,Study1,U,81,60,Test,User,-,,Recall,Recall1,1422,,0,-1,-1,0,0,,,1
5e8fe6a309881f2ee83521f5,9nqtibqmcj,Trevor-ex1,1,173,2020-07-17T10:20:06-07:00,4.6181530952454,5,versionA_stim.csv,JOL_H_VersionA.csv,"Highlight vs normal A","Highlight vs normal",WAGE,MONEY,Study1,F,8,46,Test,User,-,,Recall,Recall1,4046,Money,100,1140,3426,1,1,,,1
5e8fe6a309881f2ee83521f5,9nqtibqmcj,Trevor-ex1,1,174,2020-07-17T10:20:10-07:00,4.1171388626099,5,versionA_stim.csv,JOL_H_VersionA.csv,"Highlight vs normal A","Highlight vs normal",MATH,DIVISION,Study1,B,33,40,Test,User,-,,Recall,Recall1,3496,solve,30.769230769231,2155,3210,0,0,,,1
5e8fe6a309881f2ee83521f5,9nqtibqmcj,Trevor-ex1,1,175,2020-07-17T10:20:15-07:00,4.5156071186066,5,versionA_stim.csv,JOL_H_VersionA.csv,"Highlight vs normal A","Highlight vs normal",KEY,LATCH,Study1,B,36,13,Test,User,-,,Recall,Recall1,3774,latch,100,1699,3558,1,1,,,1
5e8fe6a309881f2ee83521f5,9nqtibqmcj,Trevor-ex1,1,176,2020-07-17T10:20:20-07:00,5.1026928424835,5,versionA_stim.csv,JOL_H_VersionA.csv,"Highlight vs normal A","Highlight vs normal",TRIAL,JURY,Study1,S,50,14,Test,User,-,,Recall,Recall1,4464,law,0,3954,4202,0,0,,,1
5e8fe6a309881f2ee83521f5,9nqtibqmcj,Trevor-ex1,1,177,2020-07-17T10:20:22-07:00,2.4130430221558,5,versionA_stim.csv,JOL_H_VersionA.csv,"Highlight vs normal A","Highlight vs normal",HONEY,BEE,Study1,S,63,32,Test,User,-,,Recall,Recall1,1654,bee,100,1045,1408,1,1,,,1
5e8fe6a309881f2ee83521f5,9nqtibqmcj,Trevor-ex1,1,178,2020-07-17T10:20:25-07:00,2.9909861087799,5,versionA_stim.csv,JOL_H_VersionA.csv,"Highlight vs normal A","Highlight vs normal",ARCHITECTURE,DESIGN,Study1,S,51,31,Test,User,-,,Recall,Recall1,2400,design,100,1133,1976,1,1,,,1
5e8fe6a309881f2ee83521f5,9nqtibqmcj,Trevor-ex1,1,179,2020-07-17T10:20:37-07:00,11.64523100853,5,versionA_stim.csv,JOL_H_VersionA.csv,"Highlight vs normal A","Highlight vs normal",,,,,,0,Instruct,-,10,"You will now be presented with a new set of word pairs. Please study each pair. Remember that your memory will be tested! When finished, press Enter to move to the next pair.",Initial_Instruct,Instruct4,11034,,,-1,-1,,,,,1
5e8fe6a309881f2ee83521f5,9nqtibqmcj,Trevor-ex1,1,180,2020-07-17T10:20:49-07:00,11.73873591423,5,versionA_stim.csv,JOL_H_VersionA.csv,"Highlight vs normal A","Highlight vs normal",,,,,,0,Instruct,,10,"You will again be asked to rate your ability to remember these items using a 0 to 100 scale. Remember to use the full range of the scale!",,Instruct10,10840,,,-1,-1,,,,,1
5e8fe6a309881f2ee83521f5,9nqtibqmcj,Trevor-ex1,1,181,2020-07-17T10:20:54-07:00,4.7780129909515,5,versionA_stim.csv,JOL_H_VersionA.csv,"Highlight vs normal A","Highlight vs normal",,,,,,0,Instruct,User,-,"Press Enter when you are readty to begin",,Instruct11,4228,,,-1,-1,,,,,1
5e8fe6a309881f2ee83521f5,9nqtibqmcj,Trevor-ex1,1,182,2020-07-17T10:21:01-07:00,7.391655921936,5,versionA_stim.csv,JOL_H_VersionA.csv,"Highlight vs normal A","Highlight vs normal",CAMP,ADVENTURE,BUFFER3,Buffer,95,93,JOL,User,-,"How likely are you to correctly recall the second item in the pair?|Type your response on a scale from 0-100 and then press Enter.",Study/JOL,BUFFER3,6720,,,5561,6207,,,,56,1
5e8fe6a309881f2ee83521f5,9nqtibqmcj,Trevor-ex1,1,183,2020-07-17T10:21:09-07:00,8.4607570171356,5,versionA_stim.csv,JOL_H_VersionA.csv,"Highlight vs normal A","Highlight vs normal",ICE,FROZEN,BUFFER3,Buffer,94,94,JOL_H,User,-,"How likely are you to correctly recall the second item in the pair?|Type your response on a scale from 0-100 and then press Enter.",Study/JOL,BUFFER3,7788,,,6773,6974,,,,98,1
5e8fe6a309881f2ee83521f5,9nqtibqmcj,Trevor-ex1,1,184,2020-07-17T10:21:17-07:00,7.6755721569061,5,versionA_stim.csv,JOL_H_VersionA.csv,"Highlight vs normal A","Highlight vs normal",CARROT,POTATO,BUFFER3,Buffer,91,95,JOL_H,User,-,"How likely are you to correctly recall the second item in the pair?|Type your response on a scale from 0-100 and then press Enter.",Study/JOL,BUFFER3,6068,,,2864,3821,,,,72,1
5e8fe6a309881f2ee83521f5,9nqtibqmcj,Trevor-ex1,1,185,2020-07-17T10:21:22-07:00,5.0489408969879,5,versionA_stim.csv,JOL_H_VersionA.csv,"Highlight vs normal A","Highlight vs normal",NOODLE,STRING,BUFFER3,Buffer,92,96,JOL_H,User,-,"How likely are you to correctly recall the second item in the pair?|Type your response on a scale from 0-100 and then press Enter.",Study/JOL,BUFFER3,4394,,,2689,3104,,,,54,1
5e8fe6a309881f2ee83521f5,9nqtibqmcj,Trevor-ex1,1,186,2020-07-17T10:21:32-07:00,10.292387008667,5,versionA_stim.csv,JOL_H_VersionA.csv,"Highlight vs normal A","Highlight vs normal",SHRIMP,FISH,BUFFER3,Buffer,93,92,JOL,User,-,"How likely are you to correctly recall the second item in the pair?|Type your response on a scale from 0-100 and then press Enter.",Study/JOL,BUFFER3,9681,,,2874,3665,,,,86,1
5e8fe6a309881f2ee83521f5,9nqtibqmcj,Trevor-ex1,1,187,2020-07-17T10:21:37-07:00,4.3769021034241,5,versionA_stim.csv,JOL_H_VersionA.csv,"Highlight vs normal A","Highlight vs normal",MEAT,OBTAIN,Study2,U,161,101,JOL_H,User,-,"How likely are you to correctly recall the second item in the pair?|Type your response on a scale from 0-100 and then press Enter.",Study/JOL,"Study Phase2",3683,,,2436,2735,,,,32,1
5e8fe6a309881f2ee83521f5,9nqtibqmcj,Trevor-ex1,1,188,2020-07-17T10:21:43-07:00,6.4487419128418,5,versionA_stim.csv,JOL_H_VersionA.csv,"Highlight vs normal A","Highlight vs normal",LITTER,TRASH,Study2,F,103,167,JOL,User,-,"How likely are you to correctly recall the second item in the pair?|Type your response on a scale from 0-100 and then press Enter.",Study/JOL,"Study Phase2",5795,,,3782,4071,,,,78,1
5e8fe6a309881f2ee83521f5,9nqtibqmcj,Trevor-ex1,1,189,2020-07-17T10:21:49-07:00,6.0633449554443,5,versionA_stim.csv,JOL_H_VersionA.csv,"Highlight vs normal A","Highlight vs normal",DRY,WET,Study2,S,146,108,JOL_H,User,-,"How likely are you to correctly recall the second item in the pair?|Type your response on a scale from 0-100 and then press Enter.",Study/JOL,"Study Phase2",5310,,,3622,3821,,,,98,1
5e8fe6a309881f2ee83521f5,9nqtibqmcj,Trevor-ex1,1,190,2020-07-17T10:22:00-07:00,10.128118038177,5,versionA_stim.csv,JOL_H_VersionA.csv,"Highlight vs normal A","Highlight vs normal",RAZOR,SHAVE,Study2,S,136,124,JOL_H,User,-,"How likely are you to correctly recall the second item in the pair?|Type your response on a scale from 0-100 and then press Enter.",Study/JOL,"Study Phase2",9596,,,4911,8632,,,,83,1
5e8fe6a309881f2ee83521f5,9nqtibqmcj,Trevor-ex1,1,191,2020-07-17T10:22:07-07:00,7.9108340740204,5,versionA_stim.csv,JOL_H_VersionA.csv,"Highlight vs normal A","Highlight vs normal",SCALP,HEAD,Study2,F,105,133,JOL_H,User,-,"How likely are you to correctly recall the second item in the pair?|Type your response on a scale from 0-100 and then press Enter.",Study/JOL,"Study Phase2",6220,,,4487,4948,,,,63,1
5e8fe6a309881f2ee83521f5,9nqtibqmcj,Trevor-ex1,1,192,2020-07-17T10:22:17-07:00,9.1992490291595,5,versionA_stim.csv,JOL_H_VersionA.csv,"Highlight vs normal A","Highlight vs normal",SHOELACE,TIE,Study2,F,99,154,JOL,User,-,"How likely are you to correctly recall the second item in the pair?|Type your response on a scale from 0-100 and then press Enter.",Study/JOL,"Study Phase2",7495,,,5661,6468,,,,73,1
5e8fe6a309881f2ee83521f5,9nqtibqmcj,Trevor-ex1,1,193,2020-07-17T10:22:30-07:00,13.01347899437,5,versionA_stim.csv,JOL_H_VersionA.csv,"Highlight vs normal A","Highlight vs normal",EXTENSION,LONG,Study2,F,96,102,JOL_H,User,-,"How likely are you to correctly recall the second item in the pair?|Type your response on a scale from 0-100 and then press Enter.",Study/JOL,"Study Phase2",12503,,,8204,11637,,,,94,1
5e8fe6a309881f2ee83521f5,9nqtibqmcj,Trevor-ex1,1,194,2020-07-17T10:22:42-07:00,12.620385885239,5,versionA_stim.csv,JOL_H_VersionA.csv,"Highlight vs normal A","Highlight vs normal",FIGHT,BRAWL,Study2,B,135,136,JOL_H,User,-,"How likely are you to correctly recall the second item in the pair?|Type your response on a scale from 0-100 and then press Enter.",Study/JOL,"Study Phase2",11895,,,10224,11342,,,,83,1
5e8fe6a309881f2ee83521f5,9nqtibqmcj,Trevor-ex1,1,195,2020-07-17T10:22:47-07:00,4.6790111064911,5,versionA_stim.csv,JOL_H_VersionA.csv,"Highlight vs normal A","Highlight vs normal",PLANE,AIRCRAFT,Study2,B,129,115,JOL_H,User,-,"How likely are you to correctly recall the second item in the pair?|Type your response on a scale from 0-100 and then press Enter.",Study/JOL,"Study Phase2",4115,,,2796,3599,,,,62,1
5e8fe6a309881f2ee83521f5,9nqtibqmcj,Trevor-ex1,1,196,2020-07-17T10:23:05-07:00,18.352504968643,5,versionA_stim.csv,JOL_H_VersionA.csv,"Highlight vs normal A","Highlight vs normal",POP,BALLOON,Study2,B,123,153,JOL,User,-,"How likely are you to correctly recall the second item in the pair?|Type your response on a scale from 0-100 and then press Enter.",Study/JOL,"Study Phase2",17665,,,10764,15157,,,,81,1
5e8fe6a309881f2ee83521f5,9nqtibqmcj,Trevor-ex1,1,197,2020-07-17T10:23:10-07:00,4.7825880050659,5,versionA_stim.csv,JOL_H_VersionA.csv,"Highlight vs normal A","Highlight vs normal",WATER,DRINK,Study2,S,143,174,JOL,User,-,"How likely are you to correctly recall the second item in the pair?|Type your response on a scale from 0-100 and then press Enter.",Study/JOL,"Study Phase2",3986,,,2899,3069,,,,99,1
5e8fe6a309881f2ee83521f5,9nqtibqmcj,Trevor-ex1,1,198,2020-07-17T10:23:18-07:00,8.048938035965,5,versionA_stim.csv,JOL_H_VersionA.csv,"Highlight vs normal A","Highlight vs normal",DOCUMENT,PAPER,Study2,F,109,166,JOL,User,-,"How likely are you to correctly recall the second item in the pair?|Type your response on a scale from 0-100 and then press Enter.",Study/JOL,"Study Phase2",7457,,,4725,6157,,,,68,1
5e8fe6a309881f2ee83521f5,9nqtibqmcj,Trevor-ex1,1,199,2020-07-17T10:23:24-07:00,6.1708018779755,5,versionA_stim.csv,JOL_H_VersionA.csv,"Highlight vs normal A","Highlight vs normal",BOTH,OUNCE,Study2,U,172,103,JOL_H,User,-,"How likely are you to correctly recall the second item in the pair?|Type your response on a scale from 0-100 and then press Enter.",Study/JOL,"Study Phase2",5470,,,3066,3066,,,,2,1
5e8fe6a309881f2ee83521f5,9nqtibqmcj,Trevor-ex1,1,200,2020-07-17T10:23:31-07:00,6.6828601360321,5,versionA_stim.csv,JOL_H_VersionA.csv,"Highlight vs normal A","Highlight vs normal",ALONE,LONELY,Study2,S,145,121,JOL_H,User,-,"How likely are you to correctly recall the second item in the pair?|Type your response on a scale from 0-100 and then press Enter.",Study/JOL,"Study Phase2",6073,,,4634,5637,,,,100,1
5e8fe6a309881f2ee83521f5,9nqtibqmcj,Trevor-ex1,1,201,2020-07-17T10:23:36-07:00,4.9222428798676,5,versionA_stim.csv,JOL_H_VersionA.csv,"Highlight vs normal A","Highlight vs normal",AFFECTION,LOVE,Study2,F,115,129,JOL_H,User,-,"How likely are you to correctly recall the second item in the pair?|Type your response on a scale from 0-100 and then press Enter.",Study/JOL,"Study Phase2",4250,,,2477,3292,,,,97,1
5e8fe6a309881f2ee83521f5,9nqtibqmcj,Trevor-ex1,1,202,2020-07-17T10:23:41-07:00,5.2722659111023,5,versionA_stim.csv,JOL_H_VersionA.csv,"Highlight vs normal A","Highlight vs normal",FLEA,TICK,Study2,S,151,156,JOL,User,-,"How likely are you to correctly recall the second item in the pair?|Type your response on a scale from 0-100 and then press Enter.",Study/JOL,"Study Phase2",4635,,,3298,3974,,,,75,1
5e8fe6a309881f2ee83521f5,9nqtibqmcj,Trevor-ex1,1,203,2020-07-17T10:23:45-07:00,3.4104962348938,5,versionA_stim.csv,JOL_H_VersionA.csv,"Highlight vs normal A","Highlight vs normal",CRACKLE,ABLE,Study2,U,162,164,JOL,User,-,"How likely are you to correctly recall the second item in the pair?|Type your response on a scale from 0-100 and then press Enter.",Study/JOL,"Study Phase2",2731,,,1779,1779,,,,2,1
5e8fe6a309881f2ee83521f5,9nqtibqmcj,Trevor-ex1,1,204,2020-07-17T10:23:52-07:00,7.5942318439484,5,versionA_stim.csv,JOL_H_VersionA.csv,"Highlight vs normal A","Highlight vs normal",FURRY,DOG,Study2,F,102,158,JOL,User,-,"How likely are you to correctly recall the second item in the pair?|Type your response on a scale from 0-100 and then press Enter.",Study/JOL,"Study Phase2",6979,,,5395,6327,,,,98,1
5e8fe6a309881f2ee83521f5,9nqtibqmcj,Trevor-ex1,1,205,2020-07-17T10:23:58-07:00,5.5095391273499,5,versionA_stim.csv,JOL_H_VersionA.csv,"Highlight vs normal A","Highlight vs normal",LOAN,SIGN,Study2,U,171,109,JOL_H,User,-,"How likely are you to correctly recall the second item in the pair?|Type your response on a scale from 0-100 and then press Enter.",Study/JOL,"Study Phase2",4984,,,3328,3328,,,,1,1
5e8fe6a309881f2ee83521f5,9nqtibqmcj,Trevor-ex1,1,206,2020-07-17T10:24:05-07:00,7.7578229904175,5,versionA_stim.csv,JOL_H_VersionA.csv,"Highlight vs normal A","Highlight vs normal",THREAD,THIMBLE,Study2,B,121,148,JOL,User,-,"How likely are you to correctly recall the second item in the pair?|Type your response on a scale from 0-100 and then press Enter.",Study/JOL,"Study Phase2",7097,,,2364,6086,,,,11,1
5e8fe6a309881f2ee83521f5,9nqtibqmcj,Trevor-ex1,1,207,2020-07-17T10:24:11-07:00,5.6151719093323,5,versionA_stim.csv,JOL_H_VersionA.csv,"Highlight vs normal A","Highlight vs normal",FRUIT,STRAWBERRY,Study2,B,124,175,JOL,User,-,"How likely are you to correctly recall the second item in the pair?|Type your response on a scale from 0-100 and then press Enter.",Study/JOL,"Study Phase2",4829,,,2843,4287,,,,94,1
5e8fe6a309881f2ee83521f5,9nqtibqmcj,Trevor-ex1,1,208,2020-07-17T10:24:19-07:00,8.2680621147156,5,versionA_stim.csv,JOL_H_VersionA.csv,"Highlight vs normal A","Highlight vs normal",NAME,HATE,Study2,U,167,145,JOL,User,-,"How likely are you to correctly recall the second item in the pair?|Type your response on a scale from 0-100 and then press Enter.",Study/JOL,"Study Phase2",7619,,,7119,7335,,,,56,1
5e8fe6a309881f2ee83521f5,9nqtibqmcj,Trevor-ex1,1,209,2020-07-17T10:24:26-07:00,6.5676538944244,5,versionA_stim.csv,JOL_H_VersionA.csv,"Highlight vs normal A","Highlight vs normal",MAIN,SCAR,Study2,U,175,149,JOL,User,-,"How likely are you to correctly recall the second item in the pair?|Type your response on a scale from 0-100 and then press Enter.",Study/JOL,"Study Phase2",5934,,,3299,3842,,,,34,1
5e8fe6a309881f2ee83521f5,9nqtibqmcj,Trevor-ex1,1,210,2020-07-17T10:24:46-07:00,20.234961032867,5,versionA_stim.csv,JOL_H_VersionA.csv,"Highlight vs normal A","Highlight vs normal",MASON,JAR,Study2,S,138,144,JOL,User,-,"How likely are you to correctly recall the second item in the pair?|Type your response on a scale from 0-100 and then press Enter.",Study/JOL,"Study Phase2",19643,,,17485,17485,,,,1,1
5e8fe6a309881f2ee83521f5,9nqtibqmcj,Trevor-ex1,1,211,2020-07-17T10:24:51-07:00,5.046315908432,5,versionA_stim.csv,JOL_H_VersionA.csv,"Highlight vs normal A","Highlight vs normal",PHONE,COMMUNICATION,Study2,S,149,151,JOL,User,-,"How likely are you to correctly recall the second item in the pair?|Type your response on a scale from 0-100 and then press Enter.",Study/JOL,"Study Phase2",4410,,,3401,3594,,,,98,1
5e8fe6a309881f2ee83521f5,9nqtibqmcj,Trevor-ex1,1,212,2020-07-17T10:24:57-07:00,6.246279001236,5,versionA_stim.csv,JOL_H_VersionA.csv,"Highlight vs normal A","Highlight vs normal",CHILL,COLD,Study2,F,114,137,JOL,User,-,"How likely are you to correctly recall the second item in the pair?|Type your response on a scale from 0-100 and then press Enter.",Study/JOL,"Study Phase2",5495,,,2528,4334,,,,93,1
5e8fe6a309881f2ee83521f5,9nqtibqmcj,Trevor-ex1,1,213,2020-07-17T10:25:02-07:00,4.1358561515808,5,versionA_stim.csv,JOL_H_VersionA.csv,"Highlight vs normal A","Highlight vs normal",CAKE,CLOTHES,Study2,U,166,150,JOL,User,-,"How likely are you to correctly recall the second item in the pair?|Type your response on a scale from 0-100 and then press Enter.",Study/JOL,"Study Phase2",3557,,,2273,2273,,,,4,1
5e8fe6a309881f2ee83521f5,9nqtibqmcj,Trevor-ex1,1,214,2020-07-17T10:25:07-07:00,5.7928428649902,5,versionA_stim.csv,JOL_H_VersionA.csv,"Highlight vs normal A","Highlight vs normal",DETECTIVE,MYSTERY,Study2,F,100,168,JOL,User,-,"How likely are you to correctly recall the second item in the pair?|Type your response on a scale from 0-100 and then press Enter.",Study/JOL,"Study Phase2",5014,,,3441,4383,,,,39,1
5e8fe6a309881f2ee83521f5,9nqtibqmcj,Trevor-ex1,1,215,2020-07-17T10:25:12-07:00,4.7000880241394,5,versionA_stim.csv,JOL_H_VersionA.csv,"Highlight vs normal A","Highlight vs normal",DEAD,COFFIN,Study2,B,128,111,JOL_H,User,-,"How likely are you to correctly recall the second item in the pair?|Type your response on a scale from 0-100 and then press Enter.",Study/JOL,"Study Phase2",4160,,,2576,2888,,,,87,1
5e8fe6a309881f2ee83521f5,9nqtibqmcj,Trevor-ex1,1,216,2020-07-17T10:25:17-07:00,5.2482841014862,5,versionA_stim.csv,JOL_H_VersionA.csv,"Highlight vs normal A","Highlight vs normal",BAD,VILLAIN,Study2,B,118,130,JOL_H,User,-,"How likely are you to correctly recall the second item in the pair?|Type your response on a scale from 0-100 and then press Enter.",Study/JOL,"Study Phase2",4582,,,2412,3483,,,,45,1
5e8fe6a309881f2ee83521f5,9nqtibqmcj,Trevor-ex1,1,217,2020-07-17T10:25:24-07:00,6.9821248054504,5,versionA_stim.csv,JOL_H_VersionA.csv,"Highlight vs normal A","Highlight vs normal",CACTUS,PLANT,Study2,F,98,172,JOL,User,-,"How likely are you to correctly recall the second item in the pair?|Type your response on a scale from 0-100 and then press Enter.",Study/JOL,"Study Phase2",6351,,,1938,5469,,,,76,1
5e8fe6a309881f2ee83521f5,9nqtibqmcj,Trevor-ex1,1,218,2020-07-17T10:25:29-07:00,5.1273291110992,5,versionA_stim.csv,JOL_H_VersionA.csv,"Highlight vs normal A","Highlight vs normal",BASEBALL,LEAGUE,Study2,B,131,100,JOL_H,User,-,"How likely are you to correctly recall the second item in the pair?|Type your response on a scale from 0-100 and then press Enter.",Study/JOL,"Study Phase2",4464,,,2405,3895,,,,18,1
5e8fe6a309881f2ee83521f5,9nqtibqmcj,Trevor-ex1,1,219,2020-07-17T10:25:33-07:00,3.1880528926849,5,versionA_stim.csv,JOL_H_VersionA.csv,"Highlight vs normal A","Highlight vs normal",KEYS,JOKE,Study2,U,165,112,JOL_H,User,-,"How likely are you to correctly recall the second item in the pair?|Type your response on a scale from 0-100 and then press Enter.",Study/JOL,"Study Phase2",2642,,,1861,1861,,,,3,1
5e8fe6a309881f2ee83521f5,9nqtibqmcj,Trevor-ex1,1,220,2020-07-17T10:25:40-07:00,7.4969961643219,5,versionA_stim.csv,JOL_H_VersionA.csv,"Highlight vs normal A","Highlight vs normal",TEMPERATURE,MORNING,Study2,U,173,155,JOL,User,-,"How likely are you to correctly recall the second item in the pair?|Type your response on a scale from 0-100 and then press Enter.",Study/JOL,"Study Phase2",6757,,,4179,6503,,,,0,1
5e8fe6a309881f2ee83521f5,9nqtibqmcj,Trevor-ex1,1,221,2020-07-17T10:25:46-07:00,6.3028318881989,5,versionA_stim.csv,JOL_H_VersionA.csv,"Highlight vs normal A","Highlight vs normal",MULE,DONKEY,Study2,F,108,132,JOL_H,User,-,"How likely are you to correctly recall the second item in the pair?|Type your response on a scale from 0-100 and then press Enter.",Study/JOL,"Study Phase2",5709,,,4061,4677,,,,62,1
5e8fe6a309881f2ee83521f5,9nqtibqmcj,Trevor-ex1,1,222,2020-07-17T10:25:51-07:00,4.6188969612122,5,versionA_stim.csv,JOL_H_VersionA.csv,"Highlight vs normal A","Highlight vs normal",FUZZY,BANG,Study2,U,168,142,JOL,User,-,"How likely are you to correctly recall the second item in the pair?|Type your response on a scale from 0-100 and then press Enter.",Study/JOL,"Study Phase2",4017,,,3100,3100,,,,0,1
5e8fe6a309881f2ee83521f5,9nqtibqmcj,Trevor-ex1,1,223,2020-07-17T10:26:00-07:00,9.0449471473694,5,versionA_stim.csv,JOL_H_VersionA.csv,"Highlight vs normal A","Highlight vs normal",DINE,EAT,Study2,F,111,159,JOL,User,-,"How likely are you to correctly recall the second item in the pair?|Type your response on a scale from 0-100 and then press Enter.",Study/JOL,"Study Phase2",8402,,,5453,8140,,,,53,1
5e8fe6a309881f2ee83521f5,9nqtibqmcj,Trevor-ex1,1,224,2020-07-17T10:26:05-07:00,4.9689688682556,5,versionA_stim.csv,JOL_H_VersionA.csv,"Highlight vs normal A","Highlight vs normal",MIRROR,CHILDREN,Study2,U,174,116,JOL_H,User,-,"How likely are you to correctly recall the second item in the pair?|Type your response on a scale from 0-100 and then press Enter.",Study/JOL,"Study Phase2",4303,,,2644,2644,,,,2,1
5e8fe6a309881f2ee83521f5,9nqtibqmcj,Trevor-ex1,1,225,2020-07-17T10:26:11-07:00,5.6877450942993,5,versionA_stim.csv,JOL_H_VersionA.csv,"Highlight vs normal A","Highlight vs normal",RIGHTS,EQUAL,Study2,S,137,120,JOL_H,User,-,"How likely are you to correctly recall the second item in the pair?|Type your response on a scale from 0-100 and then press Enter.",Study/JOL,"Study Phase2",5032,,,4146,4734,,,,100,1
5e8fe6a309881f2ee83521f5,9nqtibqmcj,Trevor-ex1,1,226,2020-07-17T10:26:19-07:00,7.8339638710022,5,versionA_stim.csv,JOL_H_VersionA.csv,"Highlight vs normal A","Highlight vs normal",ROD,REEL,Study2,S,150,135,JOL_H,User,-,"How likely are you to correctly recall the second item in the pair?|Type your response on a scale from 0-100 and then press Enter.",Study/JOL,"Study Phase2",7279,,,1750,6770,,,,25,1
5e8fe6a309881f2ee83521f5,9nqtibqmcj,Trevor-ex1,1,227,2020-07-17T10:26:31-07:00,12.555371999741,5,versionA_stim.csv,JOL_H_VersionA.csv,"Highlight vs normal A","Highlight vs normal",JUSTICE,MAROON,Study2,U,156,128,JOL_H,User,-,"How likely are you to correctly recall the second item in the pair?|Type your response on a scale from 0-100 and then press Enter.",Study/JOL,"Study Phase2",11803,,,3760,8899,,,,14,1
5e8fe6a309881f2ee83521f5,9nqtibqmcj,Trevor-ex1,1,228,2020-07-17T10:26:34-07:00,3.0373251438141,5,versionA_stim.csv,JOL_H_VersionA.csv,"Highlight vs normal A","Highlight vs normal",LEASE,TOIL,Study2,U,170,165,JOL,User,-,"How likely are you to correctly recall the second item in the pair?|Type your response on a scale from 0-100 and then press Enter.",Study/JOL,"Study Phase2",2479,,,2193,2193,,,,0,1
5e8fe6a309881f2ee83521f5,9nqtibqmcj,Trevor-ex1,1,229,2020-07-17T10:26:40-07:00,5.5776989459991,5,versionA_stim.csv,JOL_H_VersionA.csv,"Highlight vs normal A","Highlight vs normal",STAR,ACTRESS,Study2,B,120,106,JOL_H,User,-,"How likely are you to correctly recall the second item in the pair?|Type your response on a scale from 0-100 and then press Enter.",Study/JOL,"Study Phase2",4840,,,3425,4535,,,,73,1
5e8fe6a309881f2ee83521f5,9nqtibqmcj,Trevor-ex1,1,230,2020-07-17T10:26:45-07:00,4.8394689559937,5,versionA_stim.csv,JOL_H_VersionA.csv,"Highlight vs normal A","Highlight vs normal",SHELL,SHAKE,Study2,U,163,117,JOL_H,User,-,"How likely are you to correctly recall the second item in the pair?|Type your response on a scale from 0-100 and then press Enter.",Study/JOL,"Study Phase2",4143,,,1724,2825,,,,12,1
5e8fe6a309881f2ee83521f5,9nqtibqmcj,Trevor-ex1,1,231,2020-07-17T10:26:48-07:00,3.2513279914856,5,versionA_stim.csv,JOL_H_VersionA.csv,"Highlight vs normal A","Highlight vs normal",SUN,TAN,Study2,S,155,141,JOL,User,-,"How likely are you to correctly recall the second item in the pair?|Type your response on a scale from 0-100 and then press Enter.",Study/JOL,"Study Phase2",2646,,,2258,2419,,,,98,1
5e8fe6a309881f2ee83521f5,9nqtibqmcj,Trevor-ex1,1,232,2020-07-17T10:26:54-07:00,6.6258239746094,5,versionA_stim.csv,JOL_H_VersionA.csv,"Highlight vs normal A","Highlight vs normal",CLUE,GAME,Study2,F,97,98,JOL_H,User,-,"How likely are you to correctly recall the second item in the pair?|Type your response on a scale from 0-100 and then press Enter.",Study/JOL,"Study Phase2",5918,,,2195,4722,,,,71,1
5e8fe6a309881f2ee83521f5,9nqtibqmcj,Trevor-ex1,1,233,2020-07-17T10:26:58-07:00,3.2130310535431,5,versionA_stim.csv,JOL_H_VersionA.csv,"Highlight vs normal A","Highlight vs normal",GIVE,STEAK,Study2,U,158,107,JOL_H,User,-,"How likely are you to correctly recall the second item in the pair?|Type your response on a scale from 0-100 and then press Enter.",Study/JOL,"Study Phase2",2556,,,1265,1265,,,,1,1
5e8fe6a309881f2ee83521f5,9nqtibqmcj,Trevor-ex1,1,234,2020-07-17T10:27:01-07:00,3.0798029899597,5,versionA_stim.csv,JOL_H_VersionA.csv,"Highlight vs normal A","Highlight vs normal",MAZE,ELECTION,Study2,U,159,173,JOL,User,-,"How likely are you to correctly recall the second item in the pair?|Type your response on a scale from 0-100 and then press Enter.",Study/JOL,"Study Phase2",2391,,,1877,1877,,,,0,1
5e8fe6a309881f2ee83521f5,9nqtibqmcj,Trevor-ex1,1,235,2020-07-17T10:27:04-07:00,3.0719380378723,5,versionA_stim.csv,JOL_H_VersionA.csv,"Highlight vs normal A","Highlight vs normal",MOAT,CLEAR,Study2,U,169,134,JOL_H,User,-,"How likely are you to correctly recall the second item in the pair?|Type your response on a scale from 0-100 and then press Enter.",Study/JOL,"Study Phase2",2269,,,1790,1790,,,,0,1
5e8fe6a309881f2ee83521f5,9nqtibqmcj,Trevor-ex1,1,236,2020-07-17T10:27:09-07:00,4.9742000102997,5,versionA_stim.csv,JOL_H_VersionA.csv,"Highlight vs normal A","Highlight vs normal",DRIVER,CAR,Study2,F,106,123,JOL_H,User,-,"How likely are you to correctly recall the second item in the pair?|Type your response on a scale from 0-100 and then press Enter.",Study/JOL,"Study Phase2",4311,,,2841,3770,,,,64,1
5e8fe6a309881f2ee83521f5,9nqtibqmcj,Trevor-ex1,1,237,2020-07-17T10:27:14-07:00,4.8355479240417,5,versionA_stim.csv,JOL_H_VersionA.csv,"Highlight vs normal A","Highlight vs normal",BIRD,PENGUIN,Study2,B,119,170,JOL,User,-,"How likely are you to correctly recall the second item in the pair?|Type your response on a scale from 0-100 and then press Enter.",Study/JOL,"Study Phase2",4023,,,1973,2922,,,,92,1
5e8fe6a309881f2ee83521f5,9nqtibqmcj,Trevor-ex1,1,238,2020-07-17T10:27:18-07:00,4.4679281711578,5,versionA_stim.csv,JOL_H_VersionA.csv,"Highlight vs normal A","Highlight vs normal",GONE,AWAY,Study2,S,142,147,JOL,User,-,"How likely are you to correctly recall the second item in the pair?|Type your response on a scale from 0-100 and then press Enter.",Study/JOL,"Study Phase2",3818,,,2334,2559,,,,89,1
5e8fe6a309881f2ee83521f5,9nqtibqmcj,Trevor-ex1,1,239,2020-07-17T10:27:25-07:00,6.7934169769287,5,versionA_stim.csv,JOL_H_VersionA.csv,"Highlight vs normal A","Highlight vs normal",FEUD,FIGHT,Study2,F,113,105,JOL_H,User,-,"How likely are you to correctly recall the second item in the pair?|Type your response on a scale from 0-100 and then press Enter.",Study/JOL,"Study Phase2",6180,,,1985,4645,,,,94,1
5e8fe6a309881f2ee83521f5,9nqtibqmcj,Trevor-ex1,1,240,2020-07-17T10:27:29-07:00,4.0984728336334,5,versionA_stim.csv,JOL_H_VersionA.csv,"Highlight vs normal A","Highlight vs normal",CAT,PANTHER,Study2,B,126,152,JOL,User,-,"How likely are you to correctly recall the second item in the pair?|Type your response on a scale from 0-100 and then press Enter.",Study/JOL,"Study Phase2",3421,,,2567,2870,,,,86,1
5e8fe6a309881f2ee83521f5,9nqtibqmcj,Trevor-ex1,1,241,2020-07-17T10:27:35-07:00,5.8260011672974,5,versionA_stim.csv,JOL_H_VersionA.csv,"Highlight vs normal A","Highlight vs normal",ADJOURN,END,Study2,F,101,139,JOL,User,-,"How likely are you to correctly recall the second item in the pair?|Type your response on a scale from 0-100 and then press Enter.",Study/JOL,"Study Phase2",5091,,,1874,4816,,,,64,1
5e8fe6a309881f2ee83521f5,9nqtibqmcj,Trevor-ex1,1,242,2020-07-17T10:27:52-07:00,17.566560983658,5,versionA_stim.csv,JOL_H_VersionA.csv,"Highlight vs normal A","Highlight vs normal",EARTH,GROUND,Study2,S,144,118,JOL_H,User,-,"How likely are you to correctly recall the second item in the pair?|Type your response on a scale from 0-100 and then press Enter.",Study/JOL,"Study Phase2",16796,,,7293,15339,,,,46,0.925
5e8fe6a309881f2ee83521f5,9nqtibqmcj,Trevor-ex1,1,243,2020-07-17T10:28:17-07:00,24.766517877579,5,versionA_stim.csv,JOL_H_VersionA.csv,"Highlight vs normal A","Highlight vs normal",BEST,FAVORITE,Study2,B,125,162,JOL,User,-,"How likely are you to correctly recall the second item in the pair?|Type your response on a scale from 0-100 and then press Enter.",Study/JOL,"Study Phase2",23564,,,16448,21947,,,,85,0.762
5e8fe6a309881f2ee83521f5,9nqtibqmcj,Trevor-ex1,1,244,2020-07-17T10:28:24-07:00,7.177059173584,5,versionA_stim.csv,JOL_H_VersionA.csv,"Highlight vs normal A","Highlight vs normal",SAFETY,SEATBELT,Study2,S,147,160,JOL,User,-,"How likely are you to correctly recall the second item in the pair?|Type your response on a scale from 0-100 and then press Enter.",Study/JOL,"Study Phase2",5898,,,2141,2873,,,,63,1
5e8fe6a309881f2ee83521f5,9nqtibqmcj,Trevor-ex1,1,245,2020-07-17T10:28:30-07:00,5.8350098133087,5,versionA_stim.csv,JOL_H_VersionA.csv,"Highlight vs normal A","Highlight vs normal",CHOP,CUT,Study2,F,107,131,JOL_H,User,-,"How likely are you to correctly recall the second item in the pair?|Type your response on a scale from 0-100 and then press Enter.",Study/JOL,"Study Phase2",5102,,,3390,4040,,,,73,1
5e8fe6a309881f2ee83521f5,9nqtibqmcj,Trevor-ex1,1,246,2020-07-17T10:28:34-07:00,3.9097061157227,5,versionA_stim.csv,JOL_H_VersionA.csv,"Highlight vs normal A","Highlight vs normal",CHERRY,RED,Study2,F,104,143,JOL,User,-,"How likely are you to correctly recall the second item in the pair?|Type your response on a scale from 0-100 and then press Enter.",Study/JOL,"Study Phase2",3249,,,1614,2861,,,,100,1
5e8fe6a309881f2ee83521f5,9nqtibqmcj,Trevor-ex1,1,247,2020-07-17T10:28:38-07:00,3.5348739624023,5,versionA_stim.csv,JOL_H_VersionA.csv,"Highlight vs normal A","Highlight vs normal",LISTEN,FICTION,Study2,U,164,125,JOL_H,User,-,"How likely are you to correctly recall the second item in the pair?|Type your response on a scale from 0-100 and then press Enter.",Study/JOL,"Study Phase2",2794,,,2614,2614,,,,0,1
5e8fe6a309881f2ee83521f5,9nqtibqmcj,Trevor-ex1,1,248,2020-07-17T10:28:42-07:00,4.0287170410156,5,versionA_stim.csv,JOL_H_VersionA.csv,"Highlight vs normal A","Highlight vs normal",TRUTH,LIE,Study2,S,148,157,JOL,User,-,"How likely are you to correctly recall the second item in the pair?|Type your response on a scale from 0-100 and then press Enter.",Study/JOL,"Study Phase2",3429,,,2125,2373,,,,43,1
5e8fe6a309881f2ee83521f5,9nqtibqmcj,Trevor-ex1,1,249,2020-07-17T10:28:47-07:00,5.5366270542145,5,versionA_stim.csv,JOL_H_VersionA.csv,"Highlight vs normal A","Highlight vs normal",STRETCH,CLOTH,Study2,U,157,171,JOL,User,-,"How likely are you to correctly recall the second item in the pair?|Type your response on a scale from 0-100 and then press Enter.",Study/JOL,"Study Phase2",4822,,,3510,4271,,,,35,1
5e8fe6a309881f2ee83521f5,9nqtibqmcj,Trevor-ex1,1,250,2020-07-17T10:28:54-07:00,6.8831398487091,5,versionA_stim.csv,JOL_H_VersionA.csv,"Highlight vs normal A","Highlight vs normal",WRIST,BRACELET,Study2,S,140,97,JOL_H,User,-,"How likely are you to correctly recall the second item in the pair?|Type your response on a scale from 0-100 and then press Enter.",Study/JOL,"Study Phase2",5766,,,3159,5281,,,,51,1
5e8fe6a309881f2ee83521f5,9nqtibqmcj,Trevor-ex1,1,251,2020-07-17T10:29:00-07:00,6.3399569988251,5,versionA_stim.csv,JOL_H_VersionA.csv,"Highlight vs normal A","Highlight vs normal",LOUD,NOISE,Study2,S,152,146,JOL,User,-,"How likely are you to correctly recall the second item in the pair?|Type your response on a scale from 0-100 and then press Enter.",Study/JOL,"Study Phase2",3707,,,2131,2313,,,,98,1
5e8fe6a309881f2ee83521f5,9nqtibqmcj,Trevor-ex1,1,252,2020-07-17T10:29:05-07:00,4.3189771175385,5,versionA_stim.csv,JOL_H_VersionA.csv,"Highlight vs normal A","Highlight vs normal",INCENSE,SMELL,Study2,F,110,169,JOL,User,-,"How likely are you to correctly recall the second item in the pair?|Type your response on a scale from 0-100 and then press Enter.",Study/JOL,"Study Phase2",3695,,,2032,3372,,,,0,1
5e8fe6a309881f2ee83521f5,9nqtibqmcj,Trevor-ex1,1,253,2020-07-17T10:29:10-07:00,5.7539398670197,5,versionA_stim.csv,JOL_H_VersionA.csv,"Highlight vs normal A","Highlight vs normal",SLEEP,NAP,Study2,B,134,114,JOL_H,User,-,"How likely are you to correctly recall the second item in the pair?|Type your response on a scale from 0-100 and then press Enter.",Study/JOL,"Study Phase2",4962,,,2502,3875,,,,48,1
5e8fe6a309881f2ee83521f5,9nqtibqmcj,Trevor-ex1,1,254,2020-07-17T10:29:21-07:00,10.739242076874,5,versionA_stim.csv,JOL_H_VersionA.csv,"Highlight vs normal A","Highlight vs normal",CAR,WINDSHIELD,Study2,B,117,161,JOL,User,-,"How likely are you to correctly recall the second item in the pair?|Type your response on a scale from 0-100 and then press Enter.",Study/JOL,"Study Phase2",9943,,,6518,7116,,,,75,0.955
5e8fe6a309881f2ee83521f5,9nqtibqmcj,Trevor-ex1,1,255,2020-07-17T10:29:28-07:00,7.0203831195831,5,versionA_stim.csv,JOL_H_VersionA.csv,"Highlight vs normal A","Highlight vs normal",HONEST,TRUTHFUL,Study2,B,133,138,JOL,User,-,"How likely are you to correctly recall the second item in the pair?|Type your response on a scale from 0-100 and then press Enter.",Study/JOL,"Study Phase2",6434,,,1854,5595,,,,63,1
5e8fe6a309881f2ee83521f5,9nqtibqmcj,Trevor-ex1,1,256,2020-07-17T10:29:34-07:00,6.2323439121246,5,versionA_stim.csv,JOL_H_VersionA.csv,"Highlight vs normal A","Highlight vs normal",TANTRUM,TEMPER,Study2,S,154,119,JOL_H,User,-,"How likely are you to correctly recall the second item in the pair?|Type your response on a scale from 0-100 and then press Enter.",Study/JOL,"Study Phase2",5543,,,3379,3668,,,,53,1
5e8fe6a309881f2ee83521f5,9nqtibqmcj,Trevor-ex1,1,257,2020-07-17T10:29:40-07:00,6.0333740711212,5,versionA_stim.csv,JOL_H_VersionA.csv,"Highlight vs normal A","Highlight vs normal",EVEN,REVENGE,Study2,B,122,104,JOL_H,User,-,"How likely are you to correctly recall the second item in the pair?|Type your response on a scale from 0-100 and then press Enter.",Study/JOL,"Study Phase2",5290,,,3006,3594,,,,73,1
5e8fe6a309881f2ee83521f5,9nqtibqmcj,Trevor-ex1,1,258,2020-07-17T10:29:48-07:00,7.4621019363403,5,versionA_stim.csv,JOL_H_VersionA.csv,"Highlight vs normal A","Highlight vs normal",FISH,SARDINE,Study2,B,130,126,JOL_H,User,-,"How likely are you to correctly recall the second item in the pair?|Type your response on a scale from 0-100 and then press Enter.",Study/JOL,"Study Phase2",6756,,,3233,4840,,,,92,1
5e8fe6a309881f2ee83521f5,9nqtibqmcj,Trevor-ex1,1,259,2020-07-17T10:29:53-07:00,5.3524248600006,5,versionA_stim.csv,JOL_H_VersionA.csv,"Highlight vs normal A","Highlight vs normal",TURN,FLIP,Study2,B,116,163,JOL,User,-,"How likely are you to correctly recall the second item in the pair?|Type your response on a scale from 0-100 and then press Enter.",Study/JOL,"Study Phase2",3513,,,2624,2865,,,,43,1
5e8fe6a309881f2ee83521f5,9nqtibqmcj,Trevor-ex1,1,260,2020-07-17T10:29:59-07:00,6.0674781799316,5,versionA_stim.csv,JOL_H_VersionA.csv,"Highlight vs normal A","Highlight vs normal",GLASS,BREAKABLE,Study2,B,127,122,JOL_H,User,-,"How likely are you to correctly recall the second item in the pair?|Type your response on a scale from 0-100 and then press Enter.",Study/JOL,"Study Phase2",5338,,,3736,4553,,,,97,1
5e8fe6a309881f2ee83521f5,9nqtibqmcj,Trevor-ex1,1,261,2020-07-17T10:30:04-07:00,4.244206905365,5,versionA_stim.csv,JOL_H_VersionA.csv,"Highlight vs normal A","Highlight vs normal",CANDLE,WAX,Study2,S,139,140,JOL,User,-,"How likely are you to correctly recall the second item in the pair?|Type your response on a scale from 0-100 and then press Enter.",Study/JOL,"Study Phase2",3424,,,2483,3250,,,,100,1
5e8fe6a309881f2ee83521f5,9nqtibqmcj,Trevor-ex1,1,262,2020-07-17T10:30:42-07:00,38.280296087265,5,versionA_stim.csv,JOL_H_VersionA.csv,"Highlight vs normal A","Highlight vs normal",MONEY,BANKER,Study2,B,132,99,JOL_H,User,-,"How likely are you to correctly recall the second item in the pair?|Type your response on a scale from 0-100 and then press Enter.",Study/JOL,"Study Phase2",8327,,,7707,8003,,,,98,0.739
5e8fe6a309881f2ee83521f5,9nqtibqmcj,Trevor-ex1,1,263,2020-07-17T10:30:45-07:00,2.6348388195038,5,versionA_stim.csv,JOL_H_VersionA.csv,"Highlight vs normal A","Highlight vs normal",ELEMENT,CARBON,Study2,S,141,176,JOL,User,-,"How likely are you to correctly recall the second item in the pair?|Type your response on a scale from 0-100 and then press Enter.",Study/JOL,"Study Phase2",2089,,,1932,1932,,,,0,1
5e8fe6a309881f2ee83521f5,9nqtibqmcj,Trevor-ex1,1,264,2020-07-17T10:30:48-07:00,3.5724041461945,5,versionA_stim.csv,JOL_H_VersionA.csv,"Highlight vs normal A","Highlight vs normal",VEHICLE,CHARM,Study2,U,160,127,JOL_H,User,-,"How likely are you to correctly recall the second item in the pair?|Type your response on a scale from 0-100 and then press Enter.",Study/JOL,"Study Phase2",2898,,,2584,2585,,,,0,1
5e8fe6a309881f2ee83521f5,9nqtibqmcj,Trevor-ex1,1,265,2020-07-17T10:30:52-07:00,3.9714698791504,5,versionA_stim.csv,JOL_H_VersionA.csv,"Highlight vs normal A","Highlight vs normal",SHEARS,SCISSORS,Study2,F,112,110,JOL_H,User,-,"How likely are you to correctly recall the second item in the pair?|Type your response on a scale from 0-100 and then press Enter.",Study/JOL,"Study Phase2",3417,,,1991,2264,,,,67,1
5e8fe6a309881f2ee83521f5,9nqtibqmcj,Trevor-ex1,1,266,2020-07-17T10:31:00-07:00,7.6909081935883,5,versionA_stim.csv,JOL_H_VersionA.csv,"Highlight vs normal A","Highlight vs normal",OWN,HAVE,Study2,S,153,113,JOL_H,User,-,"How likely are you to correctly recall the second item in the pair?|Type your response on a scale from 0-100 and then press Enter.",Study/JOL,"Study Phase2",7048,,,5335,6043,,,,73,1
5e8fe6a309881f2ee83521f5,9nqtibqmcj,Trevor-ex1,1,267,2020-07-17T10:31:07-07:00,7.0671639442444,5,versionA_stim.csv,JOL_H_VersionA.csv,"Highlight vs normal A","Highlight vs normal",TOOL,SHED,BUFFER4,Buffer,178,178,JOL_H,User,-,"How likely are you to correctly recall the second item in the pair?|Type your response on a scale from 0-100 and then press Enter.",Study/JOL,BUFFER4,6404,,,3387,4484,,,,10,1
5e8fe6a309881f2ee83521f5,9nqtibqmcj,Trevor-ex1,1,268,2020-07-17T10:31:18-07:00,11.556761026382,5,versionA_stim.csv,JOL_H_VersionA.csv,"Highlight vs normal A","Highlight vs normal",MONTH,YEAR,BUFFER4,Buffer,177,179,JOL_H,User,-,"How likely are you to correctly recall the second item in the pair?|Type your response on a scale from 0-100 and then press Enter.",Study/JOL,BUFFER4,10808,,,8931,9986,,,,97,1
5e8fe6a309881f2ee83521f5,9nqtibqmcj,Trevor-ex1,1,269,2020-07-17T10:31:26-07:00,7.8244099617004,5,versionA_stim.csv,JOL_H_VersionA.csv,"Highlight vs normal A","Highlight vs normal",DAYS,WEEKS,BUFFER4,Buffer,176,180,JOL,User,-,"How likely are you to correctly recall the second item in the pair?|Type your response on a scale from 0-100 and then press Enter.",Study/JOL,BUFFER4,7237,,,6028,6884,,,,100,1
5e8fe6a309881f2ee83521f5,9nqtibqmcj,Trevor-ex1,1,270,2020-07-17T10:31:33-07:00,7.2135679721832,5,versionA_stim.csv,JOL_H_VersionA.csv,"Highlight vs normal A","Highlight vs normal",SPRING,MARCH,BUFFER4,Buffer,179,181,JOL,User,-,"How likely are you to correctly recall the second item in the pair?|Type your response on a scale from 0-100 and then press Enter.",Study/JOL,BUFFER4,6474,,,5420,5767,,,,85,1
5e8fe6a309881f2ee83521f5,9nqtibqmcj,Trevor-ex1,1,271,2020-07-17T10:31:41-07:00,7.363401889801,5,versionA_stim.csv,JOL_H_VersionA.csv,"Highlight vs normal A","Highlight vs normal",OCTOBER,SPOOKY,BUFFER4,Buffer,180,177,JOL_H,User,-,"How likely are you to correctly recall the second item in the pair?|Type your response on a scale from 0-100 and then press Enter.",Study/JOL,BUFFER4,6756,,,3406,6359,,,,65,1
5e8fe6a309881f2ee83521f5,9nqtibqmcj,Trevor-ex1,1,272,2020-07-17T10:31:44-07:00,3.3712160587311,5,versionA_stim.csv,JOL_H_VersionA.csv,"Highlight vs normal A","Highlight vs normal",,,,,,0,Instruct,User,-,"You have completed this section. Please press Enter.",Filler_Instruction,Instruct5,2636,,,-1,-1,,,,,1
5e8fe6a309881f2ee83521f5,9nqtibqmcj,Trevor-ex1,1,273,2020-07-17T10:33:45-07:00,121.29306101799,5,versionA_stim.csv,JOL_H_VersionA.csv,"Highlight vs normal A","Highlight vs normal",,,,,,0,FreeRecall,120,120,"Please list the 50 US states in reverse alphabetical order (z - a). The task will automatically advance to the next screen after two minutes.",,Filler2,120161,"West Virginia Texas Tennessee New York Florida Colorado Arkansas Alabama",0,8727,110825,0,0,,,0.943
