Username,ID,ExperimentName,Session,Trial,Date,TimeDif,"Condition Number","Stimuli File","Order File","Condition Description","Condition Notes",Stimuli*Cue,Stimuli*Answer,Stimuli*Shuffle,"Stimuli*Stimuli Notes",Stimuli*Value,Procedure*Item,"Procedure*Trial Type","Procedure*Max Time","Procedure*Min Time",Procedure*Text,"Procedure*Procedure Notes",Procedure*Shuffle,Response*RT,Response*Response,Response*Accuracy,Response*RTfirst,Response*RTlast,Response*strictAcc,Response*lenientAcc,Response*focus,Response*JOL,Response*Focus
5eff3dd10265064a3cf565d0,myrqe4yz7f,Trevor-ex1,1,1,2020-07-17T09:52:36-07:00,50.920995950699,6,versionA_stim.csv,JOL_H_VersionB.csv,"Highlight vs normal B","Highlight vs normal",,,,,,0,Instruct,-,5,"In this section, you will be presented with a series of word pairs.",Initial_Instruct,Instruct1,50401,,,-1,-1,,,,,0.386
5eff3dd10265064a3cf565d0,myrqe4yz7f,Trevor-ex1,1,2,2020-07-17T09:53:09-07:00,32.237639904022,6,versionA_stim.csv,JOL_H_VersionB.csv,"Highlight vs normal B","Highlight vs normal",,,,,,0,Instruct,-,10,"As you study, you will be asked to rate your ability to remember the second item in the pair if you were only shown the first at test. You will make these ratings using a 0 to 100 Scale.",,Instruct13,31612,,,-1,-1,,,,,0.299
5eff3dd10265064a3cf565d0,myrqe4yz7f,Trevor-ex1,1,3,2020-07-17T09:53:21-07:00,12.677779197693,6,versionA_stim.csv,JOL_H_VersionB.csv,"Highlight vs normal B","Highlight vs normal",,,,,,0,Instruct,-,10,"For example, if you are given the pair CAT - DOG, a rating of 0 indicates that you would not remember DOG at test, while a rating of 100 indicates full certainty that you would remember the word DOG at test.",,Instruct14,11818,,,-1,-1,,,,,0.942
5eff3dd10265064a3cf565d0,myrqe4yz7f,Trevor-ex1,1,4,2020-07-17T09:53:33-07:00,11.772634983063,6,versionA_stim.csv,JOL_H_VersionB.csv,"Highlight vs normal B","Highlight vs normal",,,,,,0,Instruct,-,10,"When making your ratings, it is criticial that you use the full range of the scale. You will be disqualified for only giving ratings of 0 or 100! After making your rating, press Enter to advance to the next pair.",,Instruct15,11261,,,-1,-1,,,,,0.893
5eff3dd10265064a3cf565d0,myrqe4yz7f,Trevor-ex1,1,5,2020-07-17T09:53:35-07:00,1.8315298557281,6,versionA_stim.csv,JOL_H_VersionB.csv,"Highlight vs normal B","Highlight vs normal",,,,,,0,Instruct,User,-,"You will now begin the study. Press Enter when you are ready to begin.",,Instruct16,1443,,,-1,-1,,,,,1
5eff3dd10265064a3cf565d0,myrqe4yz7f,Trevor-ex1,1,6,2020-07-17T09:53:42-07:00,7.4038670063019,6,versionA_stim.csv,JOL_H_VersionB.csv,"Highlight vs normal B","Highlight vs normal",SHRIMP,FISH,BUFFER3,Buffer,93,95,JOL_H,User,-,"How likely are you to correctly recall the second item in the pair?|Type your response on a scale from 0-100 and then press Enter.",Study/JOL,BUFFER,6822,,,6423,6518,,,,80,1
5eff3dd10265064a3cf565d0,myrqe4yz7f,Trevor-ex1,1,7,2020-07-17T09:53:47-07:00,4.5393121242523,6,versionA_stim.csv,JOL_H_VersionB.csv,"Highlight vs normal B","Highlight vs normal",NOODLE,STRING,BUFFER3,Buffer,92,94,JOL_H,User,-,"How likely are you to correctly recall the second item in the pair?|Type your response on a scale from 0-100 and then press Enter.",Study/JOL,BUFFER,4061,,,3436,3827,,,,60,1
5eff3dd10265064a3cf565d0,myrqe4yz7f,Trevor-ex1,1,8,2020-07-17T09:53:51-07:00,4.6910450458527,6,versionA_stim.csv,JOL_H_VersionB.csv,"Highlight vs normal B","Highlight vs normal",ICE,FROZEN,BUFFER3,Buffer,94,93,JOL,User,-,"How likely are you to correctly recall the second item in the pair?|Type your response on a scale from 0-100 and then press Enter.",Study/JOL,BUFFER,4093,,,1754,3889,,,,50,1
5eff3dd10265064a3cf565d0,myrqe4yz7f,Trevor-ex1,1,9,2020-07-17T09:53:54-07:00,2.9501748085022,6,versionA_stim.csv,JOL_H_VersionB.csv,"Highlight vs normal B","Highlight vs normal",CAMP,ADVENTURE,BUFFER3,Buffer,95,92,JOL,User,-,"How likely are you to correctly recall the second item in the pair?|Type your response on a scale from 0-100 and then press Enter.",Study/JOL,BUFFER,2454,,,1988,2115,,,,30,1
5eff3dd10265064a3cf565d0,myrqe4yz7f,Trevor-ex1,1,10,2020-07-17T09:53:57-07:00,2.8701000213623,6,versionA_stim.csv,JOL_H_VersionB.csv,"Highlight vs normal B","Highlight vs normal",CARROT,POTATO,BUFFER3,Buffer,91,96,JOL_H,User,-,"How likely are you to correctly recall the second item in the pair?|Type your response on a scale from 0-100 and then press Enter.",Study/JOL,BUFFER,2409,,,2201,2309,,,,20,1
5eff3dd10265064a3cf565d0,myrqe4yz7f,Trevor-ex1,1,11,2020-07-17T09:54:03-07:00,6.1398060321808,6,versionA_stim.csv,JOL_H_VersionB.csv,"Highlight vs normal B","Highlight vs normal",ADJOURN,END,Study2,F,101,121,JOL,User,-,"How likely are you to correctly recall the second item in the pair?|Type your response on a scale from 0-100 and then press Enter.",Study/JOL,"Study Phase",5290,,,5023,5023,,,,5,1
5eff3dd10265064a3cf565d0,myrqe4yz7f,Trevor-ex1,1,12,2020-07-17T09:54:07-07:00,3.0955650806427,6,versionA_stim.csv,JOL_H_VersionB.csv,"Highlight vs normal B","Highlight vs normal",MULE,DONKEY,Study2,F,108,129,JOL,User,-,"How likely are you to correctly recall the second item in the pair?|Type your response on a scale from 0-100 and then press Enter.",Study/JOL,"Study Phase",2564,,,2273,2433,,,,30,1
5eff3dd10265064a3cf565d0,myrqe4yz7f,Trevor-ex1,1,13,2020-07-17T09:54:10-07:00,3.8654520511627,6,versionA_stim.csv,JOL_H_VersionB.csv,"Highlight vs normal B","Highlight vs normal",RAZOR,SHAVE,Study2,S,136,163,JOL_H,User,-,"How likely are you to correctly recall the second item in the pair?|Type your response on a scale from 0-100 and then press Enter.",Study/JOL,"Study Phase",2439,,,2169,2302,,,,60,1
5eff3dd10265064a3cf565d0,myrqe4yz7f,Trevor-ex1,1,14,2020-07-17T09:54:14-07:00,3.7339417934418,6,versionA_stim.csv,JOL_H_VersionB.csv,"Highlight vs normal B","Highlight vs normal",FLEA,TICK,Study2,S,151,128,JOL,User,-,"How likely are you to correctly recall the second item in the pair?|Type your response on a scale from 0-100 and then press Enter.",Study/JOL,"Study Phase",2232,,,2069,2157,,,,30,1
5eff3dd10265064a3cf565d0,myrqe4yz7f,Trevor-ex1,1,15,2020-07-17T09:54:17-07:00,2.387531042099,6,versionA_stim.csv,JOL_H_VersionB.csv,"Highlight vs normal B","Highlight vs normal",STAR,ACTRESS,Study2,B,120,131,JOL,User,-,"How likely are you to correctly recall the second item in the pair?|Type your response on a scale from 0-100 and then press Enter.",Study/JOL,"Study Phase",1761,,,1612,1712,,,,30,1
5eff3dd10265064a3cf565d0,myrqe4yz7f,Trevor-ex1,1,16,2020-07-17T09:54:19-07:00,2.3368780612946,6,versionA_stim.csv,JOL_H_VersionB.csv,"Highlight vs normal B","Highlight vs normal",CRACKLE,ABLE,Study2,U,162,113,JOL,User,-,"How likely are you to correctly recall the second item in the pair?|Type your response on a scale from 0-100 and then press Enter.",Study/JOL,"Study Phase",1839,,,1721,1795,,,,30,1
5eff3dd10265064a3cf565d0,myrqe4yz7f,Trevor-ex1,1,17,2020-07-17T09:54:22-07:00,3.2784779071808,6,versionA_stim.csv,JOL_H_VersionB.csv,"Highlight vs normal B","Highlight vs normal",GIVE,STEAK,Study2,U,158,168,JOL_H,User,-,"How likely are you to correctly recall the second item in the pair?|Type your response on a scale from 0-100 and then press Enter.",Study/JOL,"Study Phase",2727,,,2513,2631,,,,10,1
5eff3dd10265064a3cf565d0,myrqe4yz7f,Trevor-ex1,1,18,2020-07-17T09:54:26-07:00,4.1806571483612,6,versionA_stim.csv,JOL_H_VersionB.csv,"Highlight vs normal B","Highlight vs normal",MEAT,OBTAIN,Study2,U,161,151,JOL_H,User,-,"How likely are you to correctly recall the second item in the pair?|Type your response on a scale from 0-100 and then press Enter.",Study/JOL,"Study Phase",3462,,,3248,3363,,,,10,1
5eff3dd10265064a3cf565d0,myrqe4yz7f,Trevor-ex1,1,19,2020-07-17T09:54:29-07:00,2.7228088378906,6,versionA_stim.csv,JOL_H_VersionB.csv,"Highlight vs normal B","Highlight vs normal",CACTUS,PLANT,Study2,F,98,108,JOL,User,-,"How likely are you to correctly recall the second item in the pair?|Type your response on a scale from 0-100 and then press Enter.",Study/JOL,"Study Phase",2183,,,1731,2023,,,,60,1
5eff3dd10265064a3cf565d0,myrqe4yz7f,Trevor-ex1,1,20,2020-07-17T09:54:32-07:00,2.5931050777435,6,versionA_stim.csv,JOL_H_VersionB.csv,"Highlight vs normal B","Highlight vs normal",CAR,WINDSHIELD,Study2,B,117,114,JOL,User,-,"How likely are you to correctly recall the second item in the pair?|Type your response on a scale from 0-100 and then press Enter.",Study/JOL,"Study Phase",2100,,,1857,1975,,,,50,1
5eff3dd10265064a3cf565d0,myrqe4yz7f,Trevor-ex1,1,21,2020-07-17T09:54:35-07:00,3.5436460971832,6,versionA_stim.csv,JOL_H_VersionB.csv,"Highlight vs normal B","Highlight vs normal",JUSTICE,MAROON,Study2,U,156,115,JOL,User,-,"How likely are you to correctly recall the second item in the pair?|Type your response on a scale from 0-100 and then press Enter.",Study/JOL,"Study Phase",3048,,,2684,2937,,,,10,1
5eff3dd10265064a3cf565d0,myrqe4yz7f,Trevor-ex1,1,22,2020-07-17T09:54:38-07:00,3.1689209938049,6,versionA_stim.csv,JOL_H_VersionB.csv,"Highlight vs normal B","Highlight vs normal",AFFECTION,LOVE,Study2,F,115,136,JOL,User,-,"How likely are you to correctly recall the second item in the pair?|Type your response on a scale from 0-100 and then press Enter.",Study/JOL,"Study Phase",2660,,,2460,2564,,,,70,1
5eff3dd10265064a3cf565d0,myrqe4yz7f,Trevor-ex1,1,23,2020-07-17T09:54:41-07:00,2.9019479751587,6,versionA_stim.csv,JOL_H_VersionB.csv,"Highlight vs normal B","Highlight vs normal",GONE,AWAY,Study2,S,142,170,JOL_H,User,-,"How likely are you to correctly recall the second item in the pair?|Type your response on a scale from 0-100 and then press Enter.",Study/JOL,"Study Phase",2425,,,2312,2392,,,,70,1
5eff3dd10265064a3cf565d0,myrqe4yz7f,Trevor-ex1,1,24,2020-07-17T09:54:44-07:00,3.1802899837494,6,versionA_stim.csv,JOL_H_VersionB.csv,"Highlight vs normal B","Highlight vs normal",ELEMENT,CARBON,Study2,S,141,102,JOL,User,-,"How likely are you to correctly recall the second item in the pair?|Type your response on a scale from 0-100 and then press Enter.",Study/JOL,"Study Phase",2693,,,2513,2597,,,,50,1
5eff3dd10265064a3cf565d0,myrqe4yz7f,Trevor-ex1,1,25,2020-07-17T09:54:48-07:00,4.0192580223083,6,versionA_stim.csv,JOL_H_VersionB.csv,"Highlight vs normal B","Highlight vs normal",BOTH,OUNCE,Study2,U,172,99,JOL,User,-,"How likely are you to correctly recall the second item in the pair?|Type your response on a scale from 0-100 and then press Enter.",Study/JOL,"Study Phase",2527,,,2213,2327,,,,40,1
5eff3dd10265064a3cf565d0,myrqe4yz7f,Trevor-ex1,1,26,2020-07-17T09:54:51-07:00,2.5088698863983,6,versionA_stim.csv,JOL_H_VersionB.csv,"Highlight vs normal B","Highlight vs normal",BEST,FAVORITE,Study2,B,125,135,JOL,User,-,"How likely are you to correctly recall the second item in the pair?|Type your response on a scale from 0-100 and then press Enter.",Study/JOL,"Study Phase",2015,,,1907,1951,,,,70,1
5eff3dd10265064a3cf565d0,myrqe4yz7f,Trevor-ex1,1,27,2020-07-17T09:54:54-07:00,3.1294219493866,6,versionA_stim.csv,JOL_H_VersionB.csv,"Highlight vs normal B","Highlight vs normal",EARTH,GROUND,Study2,S,144,173,JOL_H,User,-,"How likely are you to correctly recall the second item in the pair?|Type your response on a scale from 0-100 and then press Enter.",Study/JOL,"Study Phase",2601,,,2474,2533,,,,70,1
5eff3dd10265064a3cf565d0,myrqe4yz7f,Trevor-ex1,1,28,2020-07-17T09:54:56-07:00,2.2981641292572,6,versionA_stim.csv,JOL_H_VersionB.csv,"Highlight vs normal B","Highlight vs normal",DEAD,COFFIN,Study2,B,128,117,JOL,User,-,"How likely are you to correctly recall the second item in the pair?|Type your response on a scale from 0-100 and then press Enter.",Study/JOL,"Study Phase",1636,,,1494,1563,,,,70,1
5eff3dd10265064a3cf565d0,myrqe4yz7f,Trevor-ex1,1,29,2020-07-17T09:54:59-07:00,2.77268409729,6,versionA_stim.csv,JOL_H_VersionB.csv,"Highlight vs normal B","Highlight vs normal",BASEBALL,LEAGUE,Study2,B,131,147,JOL_H,User,-,"How likely are you to correctly recall the second item in the pair?|Type your response on a scale from 0-100 and then press Enter.",Study/JOL,"Study Phase",2262,,,2039,2167,,,,90,1
5eff3dd10265064a3cf565d0,myrqe4yz7f,Trevor-ex1,1,30,2020-07-17T09:55:02-07:00,2.5602509975433,6,versionA_stim.csv,JOL_H_VersionB.csv,"Highlight vs normal B","Highlight vs normal",CLUE,GAME,Study2,F,97,132,JOL,User,-,"How likely are you to correctly recall the second item in the pair?|Type your response on a scale from 0-100 and then press Enter.",Study/JOL,"Study Phase",2096,,,1958,2023,,,,40,1
5eff3dd10265064a3cf565d0,myrqe4yz7f,Trevor-ex1,1,31,2020-07-17T09:55:04-07:00,2.2162280082703,6,versionA_stim.csv,JOL_H_VersionB.csv,"Highlight vs normal B","Highlight vs normal",CANDLE,WAX,Study2,S,139,111,JOL,User,-,"How likely are you to correctly recall the second item in the pair?|Type your response on a scale from 0-100 and then press Enter.",Study/JOL,"Study Phase",1817,,,1664,1713,,,,60,1
5eff3dd10265064a3cf565d0,myrqe4yz7f,Trevor-ex1,1,32,2020-07-17T09:55:06-07:00,2.4529459476471,6,versionA_stim.csv,JOL_H_VersionB.csv,"Highlight vs normal B","Highlight vs normal",MONEY,BANKER,Study2,B,132,155,JOL_H,User,-,"How likely are you to correctly recall the second item in the pair?|Type your response on a scale from 0-100 and then press Enter.",Study/JOL,"Study Phase",1896,,,1747,1822,,,,60,1
5eff3dd10265064a3cf565d0,myrqe4yz7f,Trevor-ex1,1,33,2020-07-17T09:55:08-07:00,2.0254030227661,6,versionA_stim.csv,JOL_H_VersionB.csv,"Highlight vs normal B","Highlight vs normal",INCENSE,SMELL,Study2,F,110,148,JOL_H,User,-,"How likely are you to correctly recall the second item in the pair?|Type your response on a scale from 0-100 and then press Enter.",Study/JOL,"Study Phase",1572,,,1416,1484,,,,60,1
5eff3dd10265064a3cf565d0,myrqe4yz7f,Trevor-ex1,1,34,2020-07-17T09:55:13-07:00,4.2046508789062,6,versionA_stim.csv,JOL_H_VersionB.csv,"Highlight vs normal B","Highlight vs normal",TEMPERATURE,MORNING,Study2,U,173,139,JOL_H,User,-,"How likely are you to correctly recall the second item in the pair?|Type your response on a scale from 0-100 and then press Enter.",Study/JOL,"Study Phase",3705,,,3513,3626,,,,90,1
5eff3dd10265064a3cf565d0,myrqe4yz7f,Trevor-ex1,1,35,2020-07-17T09:55:16-07:00,3.195198059082,6,versionA_stim.csv,JOL_H_VersionB.csv,"Highlight vs normal B","Highlight vs normal",ROD,REEL,Study2,S,150,161,JOL_H,User,-,"How likely are you to correctly recall the second item in the pair?|Type your response on a scale from 0-100 and then press Enter.",Study/JOL,"Study Phase",2795,,,2630,2684,,,,20,1
5eff3dd10265064a3cf565d0,myrqe4yz7f,Trevor-ex1,1,36,2020-07-17T09:55:18-07:00,2.5459389686584,6,versionA_stim.csv,JOL_H_VersionB.csv,"Highlight vs normal B","Highlight vs normal",SAFETY,SEATBELT,Study2,S,147,162,JOL_H,User,-,"How likely are you to correctly recall the second item in the pair?|Type your response on a scale from 0-100 and then press Enter.",Study/JOL,"Study Phase",2129,,,1929,2014,,,,40,1
5eff3dd10265064a3cf565d0,myrqe4yz7f,Trevor-ex1,1,37,2020-07-17T09:55:21-07:00,2.6328499317169,6,versionA_stim.csv,JOL_H_VersionB.csv,"Highlight vs normal B","Highlight vs normal",TANTRUM,TEMPER,Study2,S,154,123,JOL,User,-,"How likely are you to correctly recall the second item in the pair?|Type your response on a scale from 0-100 and then press Enter.",Study/JOL,"Study Phase",2034,,,1850,1935,,,,40,1
5eff3dd10265064a3cf565d0,myrqe4yz7f,Trevor-ex1,1,38,2020-07-17T09:55:24-07:00,2.8314280509949,6,versionA_stim.csv,JOL_H_VersionB.csv,"Highlight vs normal B","Highlight vs normal",NAME,HATE,Study2,U,167,175,JOL_H,User,-,"How likely are you to correctly recall the second item in the pair?|Type your response on a scale from 0-100 and then press Enter.",Study/JOL,"Study Phase",2323,,,2137,2210,,,,30,1
5eff3dd10265064a3cf565d0,myrqe4yz7f,Trevor-ex1,1,39,2020-07-17T09:55:27-07:00,3.202052116394,6,versionA_stim.csv,JOL_H_VersionB.csv,"Highlight vs normal B","Highlight vs normal",WRIST,BRACELET,Study2,S,140,142,JOL_H,User,-,"How likely are you to correctly recall the second item in the pair?|Type your response on a scale from 0-100 and then press Enter.",Study/JOL,"Study Phase",2715,,,2576,2630,,,,60,1
5eff3dd10265064a3cf565d0,myrqe4yz7f,Trevor-ex1,1,40,2020-07-17T09:55:31-07:00,4.1837589740753,6,versionA_stim.csv,JOL_H_VersionB.csv,"Highlight vs normal B","Highlight vs normal",SHOELACE,TIE,Study2,F,99,118,JOL,User,-,"How likely are you to correctly recall the second item in the pair?|Type your response on a scale from 0-100 and then press Enter.",Study/JOL,"Study Phase",3681,,,3513,3576,,,,40,1
5eff3dd10265064a3cf565d0,myrqe4yz7f,Trevor-ex1,1,41,2020-07-17T09:55:33-07:00,2.0998299121857,6,versionA_stim.csv,JOL_H_VersionB.csv,"Highlight vs normal B","Highlight vs normal",CHOP,CUT,Study2,F,107,154,JOL_H,User,-,"How likely are you to correctly recall the second item in the pair?|Type your response on a scale from 0-100 and then press Enter.",Study/JOL,"Study Phase",1698,,,1566,1644,,,,70,1
5eff3dd10265064a3cf565d0,myrqe4yz7f,Trevor-ex1,1,42,2020-07-17T09:55:39-07:00,5.7918651103973,6,versionA_stim.csv,JOL_H_VersionB.csv,"Highlight vs normal B","Highlight vs normal",PHONE,COMMUNICATION,Study2,S,149,146,JOL_H,User,-,"How likely are you to correctly recall the second item in the pair?|Type your response on a scale from 0-100 and then press Enter.",Study/JOL,"Study Phase",5326,,,5128,5220,,,,60,1
5eff3dd10265064a3cf565d0,myrqe4yz7f,Trevor-ex1,1,43,2020-07-17T09:55:42-07:00,2.672966003418,6,versionA_stim.csv,JOL_H_VersionB.csv,"Highlight vs normal B","Highlight vs normal",TURN,FLIP,Study2,B,116,149,JOL_H,User,-,"How likely are you to correctly recall the second item in the pair?|Type your response on a scale from 0-100 and then press Enter.",Study/JOL,"Study Phase",2199,,,1996,2090,,,,50,1
5eff3dd10265064a3cf565d0,myrqe4yz7f,Trevor-ex1,1,44,2020-07-17T09:55:44-07:00,2.3105549812317,6,versionA_stim.csv,JOL_H_VersionB.csv,"Highlight vs normal B","Highlight vs normal",CAT,PANTHER,Study2,B,126,172,JOL_H,User,-,"How likely are you to correctly recall the second item in the pair?|Type your response on a scale from 0-100 and then press Enter.",Study/JOL,"Study Phase",1891,,,1701,1780,,,,70,1
5eff3dd10265064a3cf565d0,myrqe4yz7f,Trevor-ex1,1,45,2020-07-17T09:55:48-07:00,3.7968828678131,6,versionA_stim.csv,JOL_H_VersionB.csv,"Highlight vs normal B","Highlight vs normal",CHILL,COLD,Study2,F,114,176,JOL_H,User,-,"How likely are you to correctly recall the second item in the pair?|Type your response on a scale from 0-100 and then press Enter.",Study/JOL,"Study Phase",3316,,,3154,3252,,,,30,1
5eff3dd10265064a3cf565d0,myrqe4yz7f,Trevor-ex1,1,46,2020-07-17T09:55:50-07:00,2.1226940155029,6,versionA_stim.csv,JOL_H_VersionB.csv,"Highlight vs normal B","Highlight vs normal",FIGHT,BRAWL,Study2,B,135,165,JOL_H,User,-,"How likely are you to correctly recall the second item in the pair?|Type your response on a scale from 0-100 and then press Enter.",Study/JOL,"Study Phase",1690,,,1520,1599,,,,50,1
5eff3dd10265064a3cf565d0,myrqe4yz7f,Trevor-ex1,1,47,2020-07-17T09:55:52-07:00,2.0740430355072,6,versionA_stim.csv,JOL_H_VersionB.csv,"Highlight vs normal B","Highlight vs normal",BIRD,PENGUIN,Study2,B,119,169,JOL_H,User,-,"How likely are you to correctly recall the second item in the pair?|Type your response on a scale from 0-100 and then press Enter.",Study/JOL,"Study Phase",1677,,,1528,1581,,,,60,1
5eff3dd10265064a3cf565d0,myrqe4yz7f,Trevor-ex1,1,48,2020-07-17T09:55:56-07:00,4.4126329421997,6,versionA_stim.csv,JOL_H_VersionB.csv,"Highlight vs normal B","Highlight vs normal",POP,BALLOON,Study2,B,123,116,JOL,User,-,"How likely are you to correctly recall the second item in the pair?|Type your response on a scale from 0-100 and then press Enter.",Study/JOL,"Study Phase",3974,,,3794,3844,,,,80,1
5eff3dd10265064a3cf565d0,myrqe4yz7f,Trevor-ex1,1,49,2020-07-17T09:55:59-07:00,2.3550381660461,6,versionA_stim.csv,JOL_H_VersionB.csv,"Highlight vs normal B","Highlight vs normal",MASON,JAR,Study2,S,138,174,JOL_H,User,-,"How likely are you to correctly recall the second item in the pair?|Type your response on a scale from 0-100 and then press Enter.",Study/JOL,"Study Phase",1864,,,1702,1702,,,,0,1
5eff3dd10265064a3cf565d0,myrqe4yz7f,Trevor-ex1,1,50,2020-07-17T09:56:03-07:00,4.5255949497223,6,versionA_stim.csv,JOL_H_VersionB.csv,"Highlight vs normal B","Highlight vs normal",CHERRY,RED,Study2,F,104,98,JOL,User,-,"How likely are you to correctly recall the second item in the pair?|Type your response on a scale from 0-100 and then press Enter.",Study/JOL,"Study Phase",4040,,,3526,3854,,,,45,1
5eff3dd10265064a3cf565d0,myrqe4yz7f,Trevor-ex1,1,51,2020-07-17T09:56:06-07:00,2.6374168395996,6,versionA_stim.csv,JOL_H_VersionB.csv,"Highlight vs normal B","Highlight vs normal",DRY,WET,Study2,S,146,171,JOL_H,User,-,"How likely are you to correctly recall the second item in the pair?|Type your response on a scale from 0-100 and then press Enter.",Study/JOL,"Study Phase",2146,,,1643,1850,,,,90,1
5eff3dd10265064a3cf565d0,myrqe4yz7f,Trevor-ex1,1,52,2020-07-17T09:56:09-07:00,2.5084881782532,6,versionA_stim.csv,JOL_H_VersionB.csv,"Highlight vs normal B","Highlight vs normal",ALONE,LONELY,Study2,S,145,141,JOL_H,User,-,"How likely are you to correctly recall the second item in the pair?|Type your response on a scale from 0-100 and then press Enter.",Study/JOL,"Study Phase",1997,,,1750,1862,,,,60,1
5eff3dd10265064a3cf565d0,myrqe4yz7f,Trevor-ex1,1,53,2020-07-17T09:56:11-07:00,2.8834989070892,6,versionA_stim.csv,JOL_H_VersionB.csv,"Highlight vs normal B","Highlight vs normal",EVEN,REVENGE,Study2,B,122,104,JOL,User,-,"How likely are you to correctly recall the second item in the pair?|Type your response on a scale from 0-100 and then press Enter.",Study/JOL,"Study Phase",2343,,,2104,2234,,,,20,1
5eff3dd10265064a3cf565d0,myrqe4yz7f,Trevor-ex1,1,54,2020-07-17T09:56:14-07:00,2.2233059406281,6,versionA_stim.csv,JOL_H_VersionB.csv,"Highlight vs normal B","Highlight vs normal",DRIVER,CAR,Study2,F,106,145,JOL_H,User,-,"How likely are you to correctly recall the second item in the pair?|Type your response on a scale from 0-100 and then press Enter.",Study/JOL,"Study Phase",1816,,,1604,1695,,,,30,1
5eff3dd10265064a3cf565d0,myrqe4yz7f,Trevor-ex1,1,55,2020-07-17T09:56:16-07:00,2.4135069847107,6,versionA_stim.csv,JOL_H_VersionB.csv,"Highlight vs normal B","Highlight vs normal",BAD,VILLAIN,Study2,B,118,134,JOL,User,-,"How likely are you to correctly recall the second item in the pair?|Type your response on a scale from 0-100 and then press Enter.",Study/JOL,"Study Phase",1926,,,1748,1836,,,,30,1
5eff3dd10265064a3cf565d0,myrqe4yz7f,Trevor-ex1,1,56,2020-07-17T09:56:19-07:00,2.864687204361,6,versionA_stim.csv,JOL_H_VersionB.csv,"Highlight vs normal B","Highlight vs normal",FISH,SARDINE,Study2,B,130,156,JOL_H,User,-,"How likely are you to correctly recall the second item in the pair?|Type your response on a scale from 0-100 and then press Enter.",Study/JOL,"Study Phase",2349,,,1438,1737,,,,30,1
5eff3dd10265064a3cf565d0,myrqe4yz7f,Trevor-ex1,1,57,2020-07-17T09:56:22-07:00,3.4255437850952,6,versionA_stim.csv,JOL_H_VersionB.csv,"Highlight vs normal B","Highlight vs normal",SCALP,HEAD,Study2,F,105,126,JOL,User,-,"How likely are you to correctly recall the second item in the pair?|Type your response on a scale from 0-100 and then press Enter.",Study/JOL,"Study Phase",2950,,,2629,2789,,,,60,1
5eff3dd10265064a3cf565d0,myrqe4yz7f,Trevor-ex1,1,58,2020-07-17T09:56:25-07:00,2.424928188324,6,versionA_stim.csv,JOL_H_VersionB.csv,"Highlight vs normal B","Highlight vs normal",CAKE,CLOTHES,Study2,U,166,150,JOL_H,User,-,"How likely are you to correctly recall the second item in the pair?|Type your response on a scale from 0-100 and then press Enter.",Study/JOL,"Study Phase",1795,,,1436,1611,,,,60,1
5eff3dd10265064a3cf565d0,myrqe4yz7f,Trevor-ex1,1,59,2020-07-17T09:56:32-07:00,7.171952009201,6,versionA_stim.csv,JOL_H_VersionB.csv,"Highlight vs normal B","Highlight vs normal",LEASE,TOIL,Study2,U,170,144,JOL_H,User,-,"How likely are you to correctly recall the second item in the pair?|Type your response on a scale from 0-100 and then press Enter.",Study/JOL,"Study Phase",6703,,,6565,6566,,,,5,1
5eff3dd10265064a3cf565d0,myrqe4yz7f,Trevor-ex1,1,60,2020-07-17T09:56:34-07:00,2.5783269405365,6,versionA_stim.csv,JOL_H_VersionB.csv,"Highlight vs normal B","Highlight vs normal",OWN,HAVE,Study2,S,153,133,JOL,User,-,"How likely are you to correctly recall the second item in the pair?|Type your response on a scale from 0-100 and then press Enter.",Study/JOL,"Study Phase",2180,,,1999,2093,,,,30,1
5eff3dd10265064a3cf565d0,myrqe4yz7f,Trevor-ex1,1,61,2020-07-17T09:56:37-07:00,2.6892509460449,6,versionA_stim.csv,JOL_H_VersionB.csv,"Highlight vs normal B","Highlight vs normal",KEYS,JOKE,Study2,U,165,109,JOL,User,-,"How likely are you to correctly recall the second item in the pair?|Type your response on a scale from 0-100 and then press Enter.",Study/JOL,"Study Phase",2097,,,1832,1958,,,,20,1
5eff3dd10265064a3cf565d0,myrqe4yz7f,Trevor-ex1,1,62,2020-07-17T09:56:40-07:00,3.0013670921326,6,versionA_stim.csv,JOL_H_VersionB.csv,"Highlight vs normal B","Highlight vs normal",DETECTIVE,MYSTERY,Study2,F,100,106,JOL,User,-,"How likely are you to correctly recall the second item in the pair?|Type your response on a scale from 0-100 and then press Enter.",Study/JOL,"Study Phase",2535,,,2011,2110,,,,70,1
5eff3dd10265064a3cf565d0,myrqe4yz7f,Trevor-ex1,1,63,2020-07-17T09:56:47-07:00,6.6237578392029,6,versionA_stim.csv,JOL_H_VersionB.csv,"Highlight vs normal B","Highlight vs normal",STRETCH,CLOTH,Study2,U,157,112,JOL,User,-,"How likely are you to correctly recall the second item in the pair?|Type your response on a scale from 0-100 and then press Enter.",Study/JOL,"Study Phase",6135,,,5426,5639,,,,35,1
5eff3dd10265064a3cf565d0,myrqe4yz7f,Trevor-ex1,1,64,2020-07-17T09:56:52-07:00,4.8872590065002,6,versionA_stim.csv,JOL_H_VersionB.csv,"Highlight vs normal B","Highlight vs normal",FEUD,FIGHT,Study2,F,113,125,JOL,User,-,"How likely are you to correctly recall the second item in the pair?|Type your response on a scale from 0-100 and then press Enter.",Study/JOL,"Study Phase",4406,,,3802,4284,,,,25,1
5eff3dd10265064a3cf565d0,myrqe4yz7f,Trevor-ex1,1,65,2020-07-17T09:56:54-07:00,2.4670581817627,6,versionA_stim.csv,JOL_H_VersionB.csv,"Highlight vs normal B","Highlight vs normal",VEHICLE,CHARM,Study2,U,160,138,JOL_H,User,-,"How likely are you to correctly recall the second item in the pair?|Type your response on a scale from 0-100 and then press Enter.",Study/JOL,"Study Phase",1965,,,1474,1852,,,,15,1
5eff3dd10265064a3cf565d0,myrqe4yz7f,Trevor-ex1,1,66,2020-07-17T09:56:57-07:00,2.6881198883057,6,versionA_stim.csv,JOL_H_VersionB.csv,"Highlight vs normal B","Highlight vs normal",EXTENSION,LONG,Study2,F,96,119,JOL,User,-,"How likely are you to correctly recall the second item in the pair?|Type your response on a scale from 0-100 and then press Enter.",Study/JOL,"Study Phase",2279,,,1967,2151,,,,55,1
5eff3dd10265064a3cf565d0,myrqe4yz7f,Trevor-ex1,1,67,2020-07-17T09:57:01-07:00,4.5401630401611,6,versionA_stim.csv,JOL_H_VersionB.csv,"Highlight vs normal B","Highlight vs normal",DINE,EAT,Study2,F,111,101,JOL,User,-,"How likely are you to correctly recall the second item in the pair?|Type your response on a scale from 0-100 and then press Enter.",Study/JOL,"Study Phase",4055,,,3315,3896,,,,45,1
5eff3dd10265064a3cf565d0,myrqe4yz7f,Trevor-ex1,1,68,2020-07-17T09:57:06-07:00,5.0863420963287,6,versionA_stim.csv,JOL_H_VersionB.csv,"Highlight vs normal B","Highlight vs normal",MAIN,SCAR,Study2,U,175,103,JOL,User,-,"How likely are you to correctly recall the second item in the pair?|Type your response on a scale from 0-100 and then press Enter.",Study/JOL,"Study Phase",3600,,,1989,3340,,,,10,1
5eff3dd10265064a3cf565d0,myrqe4yz7f,Trevor-ex1,1,69,2020-07-17T09:57:09-07:00,2.8355228900909,6,versionA_stim.csv,JOL_H_VersionB.csv,"Highlight vs normal B","Highlight vs normal",SUN,TAN,Study2,S,155,137,JOL_H,User,-,"How likely are you to correctly recall the second item in the pair?|Type your response on a scale from 0-100 and then press Enter.",Study/JOL,"Study Phase",2322,,,2187,2226,,,,50,1
5eff3dd10265064a3cf565d0,myrqe4yz7f,Trevor-ex1,1,70,2020-07-17T09:57:12-07:00,2.8002479076385,6,versionA_stim.csv,JOL_H_VersionB.csv,"Highlight vs normal B","Highlight vs normal",FURRY,DOG,Study2,F,102,122,JOL,User,-,"How likely are you to correctly recall the second item in the pair?|Type your response on a scale from 0-100 and then press Enter.",Study/JOL,"Study Phase",2287,,,2191,2192,,,,5,1
5eff3dd10265064a3cf565d0,myrqe4yz7f,Trevor-ex1,1,71,2020-07-17T09:57:15-07:00,2.9730651378632,6,versionA_stim.csv,JOL_H_VersionB.csv,"Highlight vs normal B","Highlight vs normal",GLASS,BREAKABLE,Study2,B,127,127,JOL,User,-,"How likely are you to correctly recall the second item in the pair?|Type your response on a scale from 0-100 and then press Enter.",Study/JOL,"Study Phase",2475,,,2068,2167,,,,40,1
5eff3dd10265064a3cf565d0,myrqe4yz7f,Trevor-ex1,1,72,2020-07-17T09:57:18-07:00,2.8852589130402,6,versionA_stim.csv,JOL_H_VersionB.csv,"Highlight vs normal B","Highlight vs normal",FUZZY,BANG,Study2,U,168,143,JOL_H,User,-,"How likely are you to correctly recall the second item in the pair?|Type your response on a scale from 0-100 and then press Enter.",Study/JOL,"Study Phase",2355,,,1700,2192,,,,10,1
5eff3dd10265064a3cf565d0,myrqe4yz7f,Trevor-ex1,1,73,2020-07-17T09:57:20-07:00,2.1147019863129,6,versionA_stim.csv,JOL_H_VersionB.csv,"Highlight vs normal B","Highlight vs normal",RIGHTS,EQUAL,Study2,S,137,130,JOL,User,-,"How likely are you to correctly recall the second item in the pair?|Type your response on a scale from 0-100 and then press Enter.",Study/JOL,"Study Phase",1709,,,1546,1610,,,,60,1
5eff3dd10265064a3cf565d0,myrqe4yz7f,Trevor-ex1,1,74,2020-07-17T09:57:23-07:00,2.9848830699921,6,versionA_stim.csv,JOL_H_VersionB.csv,"Highlight vs normal B","Highlight vs normal",LOAN,SIGN,Study2,U,171,107,JOL,User,-,"How likely are you to correctly recall the second item in the pair?|Type your response on a scale from 0-100 and then press Enter.",Study/JOL,"Study Phase",2245,,,2103,2161,,,,20,1
5eff3dd10265064a3cf565d0,myrqe4yz7f,Trevor-ex1,1,75,2020-07-17T09:57:25-07:00,2.3994090557098,6,versionA_stim.csv,JOL_H_VersionB.csv,"Highlight vs normal B","Highlight vs normal",FRUIT,STRAWBERRY,Study2,B,124,100,JOL,User,-,"How likely are you to correctly recall the second item in the pair?|Type your response on a scale from 0-100 and then press Enter.",Study/JOL,"Study Phase",1850,,,1680,1765,,,,60,1
5eff3dd10265064a3cf565d0,myrqe4yz7f,Trevor-ex1,1,76,2020-07-17T09:57:31-07:00,5.9586009979248,6,versionA_stim.csv,JOL_H_VersionB.csv,"Highlight vs normal B","Highlight vs normal",WATER,DRINK,Study2,S,143,160,JOL_H,User,-,"How likely are you to correctly recall the second item in the pair?|Type your response on a scale from 0-100 and then press Enter.",Study/JOL,"Study Phase",5445,,,1789,5205,,,,90,1
5eff3dd10265064a3cf565d0,myrqe4yz7f,Trevor-ex1,1,77,2020-07-17T09:57:34-07:00,2.3849999904633,6,versionA_stim.csv,JOL_H_VersionB.csv,"Highlight vs normal B","Highlight vs normal",DOCUMENT,PAPER,Study2,F,109,124,JOL,User,-,"How likely are you to correctly recall the second item in the pair?|Type your response on a scale from 0-100 and then press Enter.",Study/JOL,"Study Phase",1858,,,1748,1799,,,,60,1
5eff3dd10265064a3cf565d0,myrqe4yz7f,Trevor-ex1,1,78,2020-07-17T09:57:36-07:00,2.4881238937378,6,versionA_stim.csv,JOL_H_VersionB.csv,"Highlight vs normal B","Highlight vs normal",SHELL,SHAKE,Study2,U,163,164,JOL_H,User,-,"How likely are you to correctly recall the second item in the pair?|Type your response on a scale from 0-100 and then press Enter.",Study/JOL,"Study Phase",1962,,,1874,1874,,,,5,1
5eff3dd10265064a3cf565d0,myrqe4yz7f,Trevor-ex1,1,79,2020-07-17T09:57:45-07:00,8.3418869972229,6,versionA_stim.csv,JOL_H_VersionB.csv,"Highlight vs normal B","Highlight vs normal",LITTER,TRASH,Study2,F,103,158,JOL_H,User,-,"How likely are you to correctly recall the second item in the pair?|Type your response on a scale from 0-100 and then press Enter.",Study/JOL,"Study Phase",7835,,,7699,7759,,,,60,1
5eff3dd10265064a3cf565d0,myrqe4yz7f,Trevor-ex1,1,80,2020-07-17T09:57:47-07:00,1.9524250030518,6,versionA_stim.csv,JOL_H_VersionB.csv,"Highlight vs normal B","Highlight vs normal",HONEST,TRUTHFUL,Study2,B,133,153,JOL_H,User,-,"How likely are you to correctly recall the second item in the pair?|Type your response on a scale from 0-100 and then press Enter.",Study/JOL,"Study Phase",1526,,,1423,1459,,,,60,1
5eff3dd10265064a3cf565d0,myrqe4yz7f,Trevor-ex1,1,81,2020-07-17T09:57:50-07:00,3.4534029960632,6,versionA_stim.csv,JOL_H_VersionB.csv,"Highlight vs normal B","Highlight vs normal",THREAD,THIMBLE,Study2,B,121,167,JOL_H,User,-,"How likely are you to correctly recall the second item in the pair?|Type your response on a scale from 0-100 and then press Enter.",Study/JOL,"Study Phase",3006,,,1906,2921,,,,15,1
5eff3dd10265064a3cf565d0,myrqe4yz7f,Trevor-ex1,1,82,2020-07-17T09:57:55-07:00,5.089821100235,6,versionA_stim.csv,JOL_H_VersionB.csv,"Highlight vs normal B","Highlight vs normal",SHEARS,SCISSORS,Study2,F,112,105,JOL,User,-,"How likely are you to correctly recall the second item in the pair?|Type your response on a scale from 0-100 and then press Enter.",Study/JOL,"Study Phase",3608,,,3461,3523,,,,60,1
5eff3dd10265064a3cf565d0,myrqe4yz7f,Trevor-ex1,1,83,2020-07-17T09:57:58-07:00,2.6774718761444,6,versionA_stim.csv,JOL_H_VersionB.csv,"Highlight vs normal B","Highlight vs normal",TRUTH,LIE,Study2,S,148,152,JOL_H,User,-,"How likely are you to correctly recall the second item in the pair?|Type your response on a scale from 0-100 and then press Enter.",Study/JOL,"Study Phase",2147,,,1992,2065,,,,90,1
5eff3dd10265064a3cf565d0,myrqe4yz7f,Trevor-ex1,1,84,2020-07-17T09:58:01-07:00,3.441545009613,6,versionA_stim.csv,JOL_H_VersionB.csv,"Highlight vs normal B","Highlight vs normal",MIRROR,CHILDREN,Study2,U,174,140,JOL_H,User,-,"How likely are you to correctly recall the second item in the pair?|Type your response on a scale from 0-100 and then press Enter.",Study/JOL,"Study Phase",2898,,,2755,2809,,,,30,1
5eff3dd10265064a3cf565d0,myrqe4yz7f,Trevor-ex1,1,85,2020-07-17T09:58:04-07:00,2.6937260627747,6,versionA_stim.csv,JOL_H_VersionB.csv,"Highlight vs normal B","Highlight vs normal",SLEEP,NAP,Study2,B,134,157,JOL_H,User,-,"How likely are you to correctly recall the second item in the pair?|Type your response on a scale from 0-100 and then press Enter.",Study/JOL,"Study Phase",2155,,,2033,2082,,,,30,1
5eff3dd10265064a3cf565d0,myrqe4yz7f,Trevor-ex1,1,86,2020-07-17T09:58:08-07:00,3.8707690238953,6,versionA_stim.csv,JOL_H_VersionB.csv,"Highlight vs normal B","Highlight vs normal",MAZE,ELECTION,Study2,U,159,166,JOL_H,User,-,"How likely are you to correctly recall the second item in the pair?|Type your response on a scale from 0-100 and then press Enter.",Study/JOL,"Study Phase",3343,,,1372,3224,,,,10,1
5eff3dd10265064a3cf565d0,myrqe4yz7f,Trevor-ex1,1,87,2020-07-17T09:58:10-07:00,1.7331330776215,6,versionA_stim.csv,JOL_H_VersionB.csv,"Highlight vs normal B","Highlight vs normal",MOAT,CLEAR,Study2,U,169,120,JOL,User,-,"How likely are you to correctly recall the second item in the pair?|Type your response on a scale from 0-100 and then press Enter.",Study/JOL,"Study Phase",1300,,,1145,1227,,,,10,1
5eff3dd10265064a3cf565d0,myrqe4yz7f,Trevor-ex1,1,88,2020-07-17T09:58:14-07:00,4.0758059024811,6,versionA_stim.csv,JOL_H_VersionB.csv,"Highlight vs normal B","Highlight vs normal",LOUD,NOISE,Study2,S,152,110,JOL,User,-,"How likely are you to correctly recall the second item in the pair?|Type your response on a scale from 0-100 and then press Enter.",Study/JOL,"Study Phase",2657,,,2524,2574,,,,50,1
5eff3dd10265064a3cf565d0,myrqe4yz7f,Trevor-ex1,1,89,2020-07-17T09:58:16-07:00,2.6009120941162,6,versionA_stim.csv,JOL_H_VersionB.csv,"Highlight vs normal B","Highlight vs normal",PLANE,AIRCRAFT,Study2,B,129,97,JOL,User,-,"How likely are you to correctly recall the second item in the pair?|Type your response on a scale from 0-100 and then press Enter.",Study/JOL,"Study Phase",2057,,,1880,1969,,,,60,1
5eff3dd10265064a3cf565d0,myrqe4yz7f,Trevor-ex1,1,90,2020-07-17T09:58:19-07:00,3.1776099205017,6,versionA_stim.csv,JOL_H_VersionB.csv,"Highlight vs normal B","Highlight vs normal",LISTEN,FICTION,Study2,U,164,159,JOL_H,User,-,"How likely are you to correctly recall the second item in the pair?|Type your response on a scale from 0-100 and then press Enter.",Study/JOL,"Study Phase",2592,,,2415,2478,,,,10,1
5eff3dd10265064a3cf565d0,myrqe4yz7f,Trevor-ex1,1,91,2020-07-17T09:58:22-07:00,2.9010229110718,6,versionA_stim.csv,JOL_H_VersionB.csv,"Highlight vs normal B","Highlight vs normal",OCTOBER,SPOOKY,BUFFER4,Buffer,180,180,JOL,User,-,"How likely are you to correctly recall the second item in the pair?|Type your response on a scale from 0-100 and then press Enter.",Study/JOL,BUFFER2,2383,,,2247,2310,,,,70,1
5eff3dd10265064a3cf565d0,myrqe4yz7f,Trevor-ex1,1,92,2020-07-17T09:58:24-07:00,2.1283850669861,6,versionA_stim.csv,JOL_H_VersionB.csv,"Highlight vs normal B","Highlight vs normal",DAYS,WEEKS,BUFFER4,Buffer,176,178,JOL_H,User,-,"How likely are you to correctly recall the second item in the pair?|Type your response on a scale from 0-100 and then press Enter.",Study/JOL,BUFFER2,1639,,,1524,1573,,,,70,1
5eff3dd10265064a3cf565d0,myrqe4yz7f,Trevor-ex1,1,93,2020-07-17T09:58:28-07:00,3.2754530906677,6,versionA_stim.csv,JOL_H_VersionB.csv,"Highlight vs normal B","Highlight vs normal",MONTH,YEAR,BUFFER4,Buffer,177,179,JOL,User,-,"How likely are you to correctly recall the second item in the pair?|Type your response on a scale from 0-100 and then press Enter.",Study/JOL,BUFFER2,2777,,,2218,2623,,,,75,1
5eff3dd10265064a3cf565d0,myrqe4yz7f,Trevor-ex1,1,94,2020-07-17T09:58:31-07:00,3.2672898769379,6,versionA_stim.csv,JOL_H_VersionB.csv,"Highlight vs normal B","Highlight vs normal",TOOL,SHED,BUFFER4,Buffer,178,177,JOL_H,User,-,"How likely are you to correctly recall the second item in the pair?|Type your response on a scale from 0-100 and then press Enter.",Study/JOL,BUFFER2,2733,,,2585,2659,,,,50,1
5eff3dd10265064a3cf565d0,myrqe4yz7f,Trevor-ex1,1,95,2020-07-17T09:58:35-07:00,4.0205240249634,6,versionA_stim.csv,JOL_H_VersionB.csv,"Highlight vs normal B","Highlight vs normal",SPRING,MARCH,BUFFER4,Buffer,179,181,JOL,User,-,"How likely are you to correctly recall the second item in the pair?|Type your response on a scale from 0-100 and then press Enter.",Study/JOL,BUFFER2,3590,,,3339,3498,,,,45,1
5eff3dd10265064a3cf565d0,myrqe4yz7f,Trevor-ex1,1,96,2020-07-17T09:58:36-07:00,1.3186841011047,6,versionA_stim.csv,JOL_H_VersionB.csv,"Highlight vs normal B","Highlight vs normal",,,,,,0,Instruct,User,-,"You have completed this section. Please press Enter.",Filler_Instruction,Instruct2,909,,,-1,-1,,,,,1
5eff3dd10265064a3cf565d0,myrqe4yz7f,Trevor-ex1,1,97,2020-07-17T10:00:37-07:00,120.55086684227,6,versionA_stim.csv,JOL_H_VersionB.csv,"Highlight vs normal B","Highlight vs normal",,,,,,0,FreeRecall,120,120,"Please list the 50 US states in alphabetical order. The task will automatically advance to the next screen after two minutes.",,Filler1,120018," Alabama Alaska Arizona Arkansas California Colorado Connecticut Delaware Florida Georgia Hawaii Idaho Illinois Indiana Iowa Kansas Kentucky Louisiana Maine Maryland Massachusetts Michigan Minnesota Mississippi Missouri Montana Nebraska Nevada New Hampshire New Jersey New Mexico New York North Carolina North Dakota Ohio Oklahoma Oregon Pennsylvania Rhode Island South Carolina South Dakota Tennessee Texas Utah Vermont Virginia Washington West Virginia Wisconsin Wyoming ",0,23191,35725,0,0,,,0.891
5eff3dd10265064a3cf565d0,myrqe4yz7f,Trevor-ex1,1,98,2020-07-17T10:00:49-07:00,11.882240056992,6,versionA_stim.csv,JOL_H_VersionB.csv,"Highlight vs normal B","Highlight vs normal",,,,,,0,Instruct,-,10,"You will now be presented with the first word from each of the previously studied item pairs. Please type the missing word. If you do not know the word, you may guess or press Enter to skip forward to the next pair.",,Instruct3,11356,,,-1,-1,,,,,1
5eff3dd10265064a3cf565d0,myrqe4yz7f,Trevor-ex1,1,99,2020-07-17T10:00:54-07:00,5.4355239868164,6,versionA_stim.csv,JOL_H_VersionB.csv,"Highlight vs normal B","Highlight vs normal",GONE,AWAY,Study2,S,142,170,Test,User,-,,Recall,Recall1,4999,AWAY,100,2475,4633,1,1,,,1
5eff3dd10265064a3cf565d0,myrqe4yz7f,Trevor-ex1,1,100,2020-07-17T10:00:58-07:00,3.9113039970398,6,versionA_stim.csv,JOL_H_VersionB.csv,"Highlight vs normal B","Highlight vs normal",GLASS,BREAKABLE,Study2,B,127,127,Test,User,-,,Recall,Recall1,3245,SHATTER,25,1902,3125,0,0,,,1
5eff3dd10265064a3cf565d0,myrqe4yz7f,Trevor-ex1,1,101,2020-07-17T10:01:01-07:00,2.8869330883026,6,versionA_stim.csv,JOL_H_VersionB.csv,"Highlight vs normal B","Highlight vs normal",EARTH,GROUND,Study2,S,144,173,Test,User,-,,Recall,Recall1,2367,GROUND,100,1463,2224,1,1,,,1
5eff3dd10265064a3cf565d0,myrqe4yz7f,Trevor-ex1,1,102,2020-07-17T10:01:05-07:00,3.7269020080566,6,versionA_stim.csv,JOL_H_VersionB.csv,"Highlight vs normal B","Highlight vs normal",KEYS,JOKE,Study2,U,165,109,Test,User,-,,Recall,Recall1,3194,,0,-1,-1,0,0,,,1
5eff3dd10265064a3cf565d0,myrqe4yz7f,Trevor-ex1,1,103,2020-07-17T10:01:07-07:00,2.7014348506927,6,versionA_stim.csv,JOL_H_VersionB.csv,"Highlight vs normal B","Highlight vs normal",WATER,DRINK,Study2,S,143,160,Test,User,-,,Recall,Recall1,2201,,0,-1,-1,0,0,,,1
5eff3dd10265064a3cf565d0,myrqe4yz7f,Trevor-ex1,1,104,2020-07-17T10:01:10-07:00,3.0826411247253,6,versionA_stim.csv,JOL_H_VersionB.csv,"Highlight vs normal B","Highlight vs normal",LOAN,SIGN,Study2,U,171,107,Test,User,-,,Recall,Recall1,2538,PAY,0,2101,2422,0,0,,,1
5eff3dd10265064a3cf565d0,myrqe4yz7f,Trevor-ex1,1,105,2020-07-17T10:01:15-07:00,4.8822748661041,6,versionA_stim.csv,JOL_H_VersionB.csv,"Highlight vs normal B","Highlight vs normal",CLUE,GAME,Study2,F,97,132,Test,User,-,,Recall,Recall1,3454,DETECTIVE,15.384615384615,1980,3333,0,0,,,1
5eff3dd10265064a3cf565d0,myrqe4yz7f,Trevor-ex1,1,106,2020-07-17T10:01:18-07:00,2.3881440162659,6,versionA_stim.csv,JOL_H_VersionB.csv,"Highlight vs normal B","Highlight vs normal",EVEN,REVENGE,Study2,B,122,104,Test,User,-,,Recall,Recall1,1797,,0,-1,-1,0,0,,,1
5eff3dd10265064a3cf565d0,myrqe4yz7f,Trevor-ex1,1,107,2020-07-17T10:01:23-07:00,5.3565270900726,6,versionA_stim.csv,JOL_H_VersionB.csv,"Highlight vs normal B","Highlight vs normal",SAFETY,SEATBELT,Study2,S,147,162,Test,User,-,,Recall,Recall1,4843,SEATBELT,100,1403,4408,1,1,,,1
5eff3dd10265064a3cf565d0,myrqe4yz7f,Trevor-ex1,1,108,2020-07-17T10:01:25-07:00,1.8722479343414,6,versionA_stim.csv,JOL_H_VersionB.csv,"Highlight vs normal B","Highlight vs normal",ROD,REEL,Study2,S,150,161,Test,User,-,,Recall,Recall1,1462,,0,-1,-1,0,0,,,1
5eff3dd10265064a3cf565d0,myrqe4yz7f,Trevor-ex1,1,109,2020-07-17T10:01:34-07:00,8.6602261066437,6,versionA_stim.csv,JOL_H_VersionB.csv,"Highlight vs normal B","Highlight vs normal",TRUTH,LIE,Study2,S,148,152,Test,User,-,,Recall,Recall1,7103,LIE,100,2029,7018,1,1,,,1
5eff3dd10265064a3cf565d0,myrqe4yz7f,Trevor-ex1,1,110,2020-07-17T10:01:42-07:00,8.451192855835,6,versionA_stim.csv,JOL_H_VersionB.csv,"Highlight vs normal B","Highlight vs normal",BASEBALL,LEAGUE,Study2,B,131,147,Test,User,-,,Recall,Recall1,7909,SPORT,0,2836,7341,0,0,,,1
5eff3dd10265064a3cf565d0,myrqe4yz7f,Trevor-ex1,1,111,2020-07-17T10:01:46-07:00,3.5333771705627,6,versionA_stim.csv,JOL_H_VersionB.csv,"Highlight vs normal B","Highlight vs normal",FRUIT,STRAWBERRY,Study2,B,124,100,Test,User,-,,Recall,Recall1,3023,STRAWBERRY,100,1195,2942,1,1,,,1
5eff3dd10265064a3cf565d0,myrqe4yz7f,Trevor-ex1,1,112,2020-07-17T10:01:48-07:00,2.4844598770142,6,versionA_stim.csv,JOL_H_VersionB.csv,"Highlight vs normal B","Highlight vs normal",THREAD,THIMBLE,Study2,B,121,167,Test,User,-,,Recall,Recall1,2001,NEEDLE,30.769230769231,1296,1893,0,0,,,1
5eff3dd10265064a3cf565d0,myrqe4yz7f,Trevor-ex1,1,113,2020-07-17T10:01:50-07:00,1.5563590526581,6,versionA_stim.csv,JOL_H_VersionB.csv,"Highlight vs normal B","Highlight vs normal",STAR,ACTRESS,Study2,B,120,131,Test,User,-,,Recall,Recall1,1129,,0,-1,-1,0,0,,,1
5eff3dd10265064a3cf565d0,myrqe4yz7f,Trevor-ex1,1,114,2020-07-17T10:01:51-07:00,1.6101429462433,6,versionA_stim.csv,JOL_H_VersionB.csv,"Highlight vs normal B","Highlight vs normal",NAME,HATE,Study2,U,167,175,Test,User,-,,Recall,Recall1,1177,,0,-1,-1,0,0,,,1
5eff3dd10265064a3cf565d0,myrqe4yz7f,Trevor-ex1,1,115,2020-07-17T10:01:55-07:00,3.5212371349335,6,versionA_stim.csv,JOL_H_VersionB.csv,"Highlight vs normal B","Highlight vs normal",BEST,FAVORITE,Study2,B,125,135,Test,User,-,,Recall,Recall1,3026,WORST,46.153846153846,2377,2875,0,0,,,1
5eff3dd10265064a3cf565d0,myrqe4yz7f,Trevor-ex1,1,116,2020-07-17T10:01:56-07:00,1.5458579063416,6,versionA_stim.csv,JOL_H_VersionB.csv,"Highlight vs normal B","Highlight vs normal",FURRY,DOG,Study2,F,102,122,Test,User,-,,Recall,Recall1,1141,,0,-1,-1,0,0,,,1
5eff3dd10265064a3cf565d0,myrqe4yz7f,Trevor-ex1,1,117,2020-07-17T10:01:59-07:00,2.1649980545044,6,versionA_stim.csv,JOL_H_VersionB.csv,"Highlight vs normal B","Highlight vs normal",LISTEN,FICTION,Study2,U,164,159,Test,User,-,,Recall,Recall1,1734,,0,-1,-1,0,0,,,1
5eff3dd10265064a3cf565d0,myrqe4yz7f,Trevor-ex1,1,118,2020-07-17T10:02:07-07:00,8.490574836731,6,versionA_stim.csv,JOL_H_VersionB.csv,"Highlight vs normal B","Highlight vs normal",SHELL,SHAKE,Study2,U,163,164,Test,User,-,,Recall,Recall1,7999,SHRIMP,36.363636363636,7038,7753,0,0,,,1
5eff3dd10265064a3cf565d0,myrqe4yz7f,Trevor-ex1,1,119,2020-07-17T10:02:10-07:00,3.4227511882782,6,versionA_stim.csv,JOL_H_VersionB.csv,"Highlight vs normal B","Highlight vs normal",MAZE,ELECTION,Study2,U,159,166,Test,User,-,,Recall,Recall1,2842,RUN,18.181818181818,2242,2604,0,0,,,1
5eff3dd10265064a3cf565d0,myrqe4yz7f,Trevor-ex1,1,120,2020-07-17T10:02:14-07:00,3.3094120025635,6,versionA_stim.csv,JOL_H_VersionB.csv,"Highlight vs normal B","Highlight vs normal",GIVE,STEAK,Study2,U,158,168,Test,User,-,,Recall,Recall1,2824,RETURN,18.181818181818,2157,2693,0,0,,,1
5eff3dd10265064a3cf565d0,myrqe4yz7f,Trevor-ex1,1,121,2020-07-17T10:02:21-07:00,6.9423499107361,6,versionA_stim.csv,JOL_H_VersionB.csv,"Highlight vs normal B","Highlight vs normal",HONEST,TRUTHFUL,Study2,B,133,153,Test,User,-,,Recall,Recall1,5419,TRUTHFUL,100,3870,5237,1,1,,,1
5eff3dd10265064a3cf565d0,myrqe4yz7f,Trevor-ex1,1,122,2020-07-17T10:02:26-07:00,4.9854559898376,6,versionA_stim.csv,JOL_H_VersionB.csv,"Highlight vs normal B","Highlight vs normal",PLANE,AIRCRAFT,Study2,B,129,97,Test,User,-,,Recall,Recall1,4483,AIRCRAFT,100,1832,4354,1,1,,,1
5eff3dd10265064a3cf565d0,myrqe4yz7f,Trevor-ex1,1,123,2020-07-17T10:02:29-07:00,3.1673069000244,6,versionA_stim.csv,JOL_H_VersionB.csv,"Highlight vs normal B","Highlight vs normal",SUN,TAN,Study2,S,155,137,Test,User,-,,Recall,Recall1,2668,TAN,100,2244,2495,1,1,,,1
5eff3dd10265064a3cf565d0,myrqe4yz7f,Trevor-ex1,1,124,2020-07-17T10:02:33-07:00,4.3351521492004,6,versionA_stim.csv,JOL_H_VersionB.csv,"Highlight vs normal B","Highlight vs normal",ALONE,LONELY,Study2,S,145,141,Test,User,-,,Recall,Recall1,3844,AWAY,20,3051,3483,0,0,,,1
5eff3dd10265064a3cf565d0,myrqe4yz7f,Trevor-ex1,1,125,2020-07-17T10:02:36-07:00,2.3778989315033,6,versionA_stim.csv,JOL_H_VersionB.csv,"Highlight vs normal B","Highlight vs normal",SHOELACE,TIE,Study2,F,99,118,Test,User,-,,Recall,Recall1,1717,TIE,100,1405,1590,1,1,,,1
5eff3dd10265064a3cf565d0,myrqe4yz7f,Trevor-ex1,1,126,2020-07-17T10:02:37-07:00,1.8314530849457,6,versionA_stim.csv,JOL_H_VersionB.csv,"Highlight vs normal B","Highlight vs normal",MAIN,SCAR,Study2,U,175,103,Test,User,-,,Recall,Recall1,1400,,0,-1,-1,0,0,,,1
5eff3dd10265064a3cf565d0,myrqe4yz7f,Trevor-ex1,1,127,2020-07-17T10:02:39-07:00,2.0070929527283,6,versionA_stim.csv,JOL_H_VersionB.csv,"Highlight vs normal B","Highlight vs normal",AFFECTION,LOVE,Study2,F,115,136,Test,User,-,,Recall,Recall1,1583,LOVE,100,1092,1452,1,1,,,1
5eff3dd10265064a3cf565d0,myrqe4yz7f,Trevor-ex1,1,128,2020-07-17T10:02:41-07:00,1.9376358985901,6,versionA_stim.csv,JOL_H_VersionB.csv,"Highlight vs normal B","Highlight vs normal",CHOP,CUT,Study2,F,107,154,Test,User,-,,Recall,Recall1,1520,,0,-1,-1,0,0,,,1
5eff3dd10265064a3cf565d0,myrqe4yz7f,Trevor-ex1,1,129,2020-07-17T10:02:43-07:00,1.5667099952698,6,versionA_stim.csv,JOL_H_VersionB.csv,"Highlight vs normal B","Highlight vs normal",JUSTICE,MAROON,Study2,U,156,115,Test,User,-,,Recall,Recall1,1172,,0,-1,-1,0,0,,,1
5eff3dd10265064a3cf565d0,myrqe4yz7f,Trevor-ex1,1,130,2020-07-17T10:02:44-07:00,1.2117080688477,6,versionA_stim.csv,JOL_H_VersionB.csv,"Highlight vs normal B","Highlight vs normal",MASON,JAR,Study2,S,138,174,Test,User,-,,Recall,Recall1,827,,0,-1,-1,0,0,,,1
5eff3dd10265064a3cf565d0,myrqe4yz7f,Trevor-ex1,1,131,2020-07-17T10:02:48-07:00,3.7811081409454,6,versionA_stim.csv,JOL_H_VersionB.csv,"Highlight vs normal B","Highlight vs normal",FEUD,FIGHT,Study2,F,113,125,Test,User,-,,Recall,Recall1,3283,FIGHT,100,1982,2528,1,1,,,1
5eff3dd10265064a3cf565d0,myrqe4yz7f,Trevor-ex1,1,132,2020-07-17T10:02:52-07:00,4.1581718921661,6,versionA_stim.csv,JOL_H_VersionB.csv,"Highlight vs normal B","Highlight vs normal",MIRROR,CHILDREN,Study2,U,174,140,Test,User,-,,Recall,Recall1,2662,SHATTER,26.666666666667,1492,2233,0,0,,,1
5eff3dd10265064a3cf565d0,myrqe4yz7f,Trevor-ex1,1,133,2020-07-17T10:02:54-07:00,1.899612903595,6,versionA_stim.csv,JOL_H_VersionB.csv,"Highlight vs normal B","Highlight vs normal",CAKE,CLOTHES,Study2,U,166,150,Test,User,-,,Recall,Recall1,1452,,0,-1,-1,0,0,,,1
5eff3dd10265064a3cf565d0,myrqe4yz7f,Trevor-ex1,1,134,2020-07-17T10:02:58-07:00,3.6928651332855,6,versionA_stim.csv,JOL_H_VersionB.csv,"Highlight vs normal B","Highlight vs normal",VEHICLE,CHARM,Study2,U,160,138,Test,User,-,,Recall,Recall1,3099,CAR,75,2095,2970,0,1,,,1
5eff3dd10265064a3cf565d0,myrqe4yz7f,Trevor-ex1,1,135,2020-07-17T10:03:00-07:00,2.1232390403748,6,versionA_stim.csv,JOL_H_VersionB.csv,"Highlight vs normal B","Highlight vs normal",DEAD,COFFIN,Study2,B,128,117,Test,User,-,,Recall,Recall1,1665,ALIVE,18.181818181818,1029,1511,0,0,,,1
5eff3dd10265064a3cf565d0,myrqe4yz7f,Trevor-ex1,1,136,2020-07-17T10:03:02-07:00,2.4866178035736,6,versionA_stim.csv,JOL_H_VersionB.csv,"Highlight vs normal B","Highlight vs normal",DOCUMENT,PAPER,Study2,F,109,124,Test,User,-,,Recall,Recall1,1976,PAPERS,90.909090909091,1332,1884,0,1,,,1
5eff3dd10265064a3cf565d0,myrqe4yz7f,Trevor-ex1,1,137,2020-07-17T10:03:04-07:00,1.385840177536,6,versionA_stim.csv,JOL_H_VersionB.csv,"Highlight vs normal B","Highlight vs normal",MOAT,CLEAR,Study2,U,169,120,Test,User,-,,Recall,Recall1,992,,0,-1,-1,0,0,,,1
5eff3dd10265064a3cf565d0,myrqe4yz7f,Trevor-ex1,1,138,2020-07-17T10:03:08-07:00,4.5282869338989,6,versionA_stim.csv,JOL_H_VersionB.csv,"Highlight vs normal B","Highlight vs normal",CAR,WINDSHIELD,Study2,B,117,114,Test,User,-,,Recall,Recall1,4012,SEATBELT,33.333333333333,2091,3882,0,0,,,1
5eff3dd10265064a3cf565d0,myrqe4yz7f,Trevor-ex1,1,139,2020-07-17T10:03:10-07:00,2.0917139053345,6,versionA_stim.csv,JOL_H_VersionB.csv,"Highlight vs normal B","Highlight vs normal",LITTER,TRASH,Study2,F,103,158,Test,User,-,,Recall,Recall1,1676,BIN,0,1460,1610,0,0,,,1
5eff3dd10265064a3cf565d0,myrqe4yz7f,Trevor-ex1,1,140,2020-07-17T10:03:12-07:00,1.7338411808014,6,versionA_stim.csv,JOL_H_VersionB.csv,"Highlight vs normal B","Highlight vs normal",DRY,WET,Study2,S,146,171,Test,User,-,,Recall,Recall1,1341,WET,100,936,1221,1,1,,,1
5eff3dd10265064a3cf565d0,myrqe4yz7f,Trevor-ex1,1,141,2020-07-17T10:03:14-07:00,1.6376678943634,6,versionA_stim.csv,JOL_H_VersionB.csv,"Highlight vs normal B","Highlight vs normal",FUZZY,BANG,Study2,U,168,143,Test,User,-,,Recall,Recall1,1253,,0,-1,-1,0,0,,,1
5eff3dd10265064a3cf565d0,myrqe4yz7f,Trevor-ex1,1,142,2020-07-17T10:03:15-07:00,1.5186579227448,6,versionA_stim.csv,JOL_H_VersionB.csv,"Highlight vs normal B","Highlight vs normal",DINE,EAT,Study2,F,111,101,Test,User,-,,Recall,Recall1,1134,,0,-1,-1,0,0,,,1
5eff3dd10265064a3cf565d0,myrqe4yz7f,Trevor-ex1,1,143,2020-07-17T10:03:17-07:00,1.9735040664673,6,versionA_stim.csv,JOL_H_VersionB.csv,"Highlight vs normal B","Highlight vs normal",RAZOR,SHAVE,Study2,S,136,163,Test,User,-,,Recall,Recall1,1582,SHAVE,100,1088,1443,1,1,,,1
5eff3dd10265064a3cf565d0,myrqe4yz7f,Trevor-ex1,1,144,2020-07-17T10:03:19-07:00,1.5987250804901,6,versionA_stim.csv,JOL_H_VersionB.csv,"Highlight vs normal B","Highlight vs normal",ADJOURN,END,Study2,F,101,121,Test,User,-,,Recall,Recall1,1214,,0,-1,-1,0,0,,,1
5eff3dd10265064a3cf565d0,myrqe4yz7f,Trevor-ex1,1,145,2020-07-17T10:03:21-07:00,2.3692078590393,6,versionA_stim.csv,JOL_H_VersionB.csv,"Highlight vs normal B","Highlight vs normal",WRIST,BRACELET,Study2,S,140,142,Test,User,-,,Recall,Recall1,1149,,0,-1,-1,0,0,,,1
5eff3dd10265064a3cf565d0,myrqe4yz7f,Trevor-ex1,1,146,2020-07-17T10:03:24-07:00,2.9740080833435,6,versionA_stim.csv,JOL_H_VersionB.csv,"Highlight vs normal B","Highlight vs normal",INCENSE,SMELL,Study2,F,110,148,Test,User,-,,Recall,Recall1,2490,SMELL,100,1803,2261,1,1,,,1
5eff3dd10265064a3cf565d0,myrqe4yz7f,Trevor-ex1,1,147,2020-07-17T10:03:25-07:00,1.3545999526978,6,versionA_stim.csv,JOL_H_VersionB.csv,"Highlight vs normal B","Highlight vs normal",TURN,FLIP,Study2,B,116,149,Test,User,-,,Recall,Recall1,970,,0,-1,-1,0,0,,,1
5eff3dd10265064a3cf565d0,myrqe4yz7f,Trevor-ex1,1,148,2020-07-17T10:03:27-07:00,2.0590510368347,6,versionA_stim.csv,JOL_H_VersionB.csv,"Highlight vs normal B","Highlight vs normal",PHONE,COMMUNICATION,Study2,S,149,146,Test,User,-,,Recall,Recall1,1638,,0,-1,-1,0,0,,,1
5eff3dd10265064a3cf565d0,myrqe4yz7f,Trevor-ex1,1,149,2020-07-17T10:03:29-07:00,1.3041241168976,6,versionA_stim.csv,JOL_H_VersionB.csv,"Highlight vs normal B","Highlight vs normal",MULE,DONKEY,Study2,F,108,129,Test,User,-,,Recall,Recall1,811,,0,-1,-1,0,0,,,1
5eff3dd10265064a3cf565d0,myrqe4yz7f,Trevor-ex1,1,150,2020-07-17T10:03:33-07:00,3.8068919181824,6,versionA_stim.csv,JOL_H_VersionB.csv,"Highlight vs normal B","Highlight vs normal",TEMPERATURE,MORNING,Study2,U,173,139,Test,User,-,,Recall,Recall1,3203,MORNING,100,2472,3094,1,1,,,1
5eff3dd10265064a3cf565d0,myrqe4yz7f,Trevor-ex1,1,151,2020-07-17T10:03:34-07:00,1.5538680553436,6,versionA_stim.csv,JOL_H_VersionB.csv,"Highlight vs normal B","Highlight vs normal",EXTENSION,LONG,Study2,F,96,119,Test,User,-,,Recall,Recall1,1141,,0,-1,-1,0,0,,,1
5eff3dd10265064a3cf565d0,myrqe4yz7f,Trevor-ex1,1,152,2020-07-17T10:03:37-07:00,2.7284729480743,6,versionA_stim.csv,JOL_H_VersionB.csv,"Highlight vs normal B","Highlight vs normal",CRACKLE,ABLE,Study2,U,162,113,Test,User,-,,Recall,Recall1,2232,FIRE,25,1811,2120,0,0,,,1
5eff3dd10265064a3cf565d0,myrqe4yz7f,Trevor-ex1,1,153,2020-07-17T10:03:39-07:00,2.4699990749359,6,versionA_stim.csv,JOL_H_VersionB.csv,"Highlight vs normal B","Highlight vs normal",DRIVER,CAR,Study2,F,106,145,Test,User,-,,Recall,Recall1,1817,,0,-1,-1,0,0,,,1
5eff3dd10265064a3cf565d0,myrqe4yz7f,Trevor-ex1,1,154,2020-07-17T10:03:41-07:00,1.9390788078308,6,versionA_stim.csv,JOL_H_VersionB.csv,"Highlight vs normal B","Highlight vs normal",BAD,VILLAIN,Study2,B,118,134,Test,User,-,,Recall,Recall1,1506,GOOD,0,1113,1372,0,0,,,1
5eff3dd10265064a3cf565d0,myrqe4yz7f,Trevor-ex1,1,155,2020-07-17T10:03:44-07:00,2.4983751773834,6,versionA_stim.csv,JOL_H_VersionB.csv,"Highlight vs normal B","Highlight vs normal",TANTRUM,TEMPER,Study2,S,154,123,Test,User,-,,Recall,Recall1,1922,,0,-1,-1,0,0,,,1
5eff3dd10265064a3cf565d0,myrqe4yz7f,Trevor-ex1,1,156,2020-07-17T10:03:53-07:00,9.681914806366,6,versionA_stim.csv,JOL_H_VersionB.csv,"Highlight vs normal B","Highlight vs normal",FISH,SARDINE,Study2,B,130,156,Test,User,-,,Recall,Recall1,9181,SHRIMP,46.153846153846,8202,9036,0,0,,,1
5eff3dd10265064a3cf565d0,myrqe4yz7f,Trevor-ex1,1,157,2020-07-17T10:03:55-07:00,1.8880000114441,6,versionA_stim.csv,JOL_H_VersionB.csv,"Highlight vs normal B","Highlight vs normal",BOTH,OUNCE,Study2,U,172,99,Test,User,-,,Recall,Recall1,1470,,0,-1,-1,0,0,,,1
5eff3dd10265064a3cf565d0,myrqe4yz7f,Trevor-ex1,1,158,2020-07-17T10:03:57-07:00,2.0078480243683,6,versionA_stim.csv,JOL_H_VersionB.csv,"Highlight vs normal B","Highlight vs normal",SCALP,HEAD,Study2,F,105,126,Test,User,-,,Recall,Recall1,1612,HEAD,100,1133,1498,1,1,,,1
5eff3dd10265064a3cf565d0,myrqe4yz7f,Trevor-ex1,1,159,2020-07-17T10:04:02-07:00,4.4182281494141,6,versionA_stim.csv,JOL_H_VersionB.csv,"Highlight vs normal B","Highlight vs normal",ELEMENT,CARBON,Study2,S,141,102,Test,User,-,,Recall,Recall1,3930,CARBON,100,1831,3800,1,1,,,1
5eff3dd10265064a3cf565d0,myrqe4yz7f,Trevor-ex1,1,160,2020-07-17T10:04:03-07:00,1.4189009666443,6,versionA_stim.csv,JOL_H_VersionB.csv,"Highlight vs normal B","Highlight vs normal",SLEEP,NAP,Study2,B,134,157,Test,User,-,,Recall,Recall1,1001,,0,-1,-1,0,0,,,1
5eff3dd10265064a3cf565d0,myrqe4yz7f,Trevor-ex1,1,161,2020-07-17T10:04:04-07:00,1.1581029891968,6,versionA_stim.csv,JOL_H_VersionB.csv,"Highlight vs normal B","Highlight vs normal",LEASE,TOIL,Study2,U,170,144,Test,User,-,,Recall,Recall1,757,,0,-1,-1,0,0,,,1
5eff3dd10265064a3cf565d0,myrqe4yz7f,Trevor-ex1,1,162,2020-07-17T10:04:07-07:00,2.6714918613434,6,versionA_stim.csv,JOL_H_VersionB.csv,"Highlight vs normal B","Highlight vs normal",POP,BALLOON,Study2,B,123,116,Test,User,-,,Recall,Recall1,2159,CRACKLE,28.571428571429,1137,2049,0,0,,,1
5eff3dd10265064a3cf565d0,myrqe4yz7f,Trevor-ex1,1,163,2020-07-17T10:04:08-07:00,1.2594981193542,6,versionA_stim.csv,JOL_H_VersionB.csv,"Highlight vs normal B","Highlight vs normal",OWN,HAVE,Study2,S,153,133,Test,User,-,,Recall,Recall1,859,,0,-1,-1,0,0,,,1
5eff3dd10265064a3cf565d0,myrqe4yz7f,Trevor-ex1,1,164,2020-07-17T10:04:12-07:00,3.5109980106354,6,versionA_stim.csv,JOL_H_VersionB.csv,"Highlight vs normal B","Highlight vs normal",CACTUS,PLANT,Study2,F,98,108,Test,User,-,,Recall,Recall1,1960,PLANT,100,1352,1854,1,1,,,1
5eff3dd10265064a3cf565d0,myrqe4yz7f,Trevor-ex1,1,165,2020-07-17T10:04:13-07:00,1.5642919540405,6,versionA_stim.csv,JOL_H_VersionB.csv,"Highlight vs normal B","Highlight vs normal",MEAT,OBTAIN,Study2,U,161,151,Test,User,-,,Recall,Recall1,1161,,0,-1,-1,0,0,,,1
5eff3dd10265064a3cf565d0,myrqe4yz7f,Trevor-ex1,1,166,2020-07-17T10:04:19-07:00,5.4474620819092,6,versionA_stim.csv,JOL_H_VersionB.csv,"Highlight vs normal B","Highlight vs normal",BIRD,PENGUIN,Study2,B,119,169,Test,User,-,,Recall,Recall1,4944,,0,-1,-1,0,0,,,1
5eff3dd10265064a3cf565d0,myrqe4yz7f,Trevor-ex1,1,167,2020-07-17T10:04:21-07:00,1.8792400360107,6,versionA_stim.csv,JOL_H_VersionB.csv,"Highlight vs normal B","Highlight vs normal",FLEA,TICK,Study2,S,151,128,Test,User,-,,Recall,Recall1,1488,,0,-1,-1,0,0,,,1
5eff3dd10265064a3cf565d0,myrqe4yz7f,Trevor-ex1,1,168,2020-07-17T10:04:25-07:00,3.8968608379364,6,versionA_stim.csv,JOL_H_VersionB.csv,"Highlight vs normal B","Highlight vs normal",FIGHT,BRAWL,Study2,B,135,165,Test,User,-,,Recall,Recall1,2330,BRAWL,100,1557,2080,1,1,,,1
5eff3dd10265064a3cf565d0,myrqe4yz7f,Trevor-ex1,1,169,2020-07-17T10:04:26-07:00,1.1716930866241,6,versionA_stim.csv,JOL_H_VersionB.csv,"Highlight vs normal B","Highlight vs normal",CHILL,COLD,Study2,F,114,176,Test,User,-,,Recall,Recall1,767,,0,-1,-1,0,0,,,1
5eff3dd10265064a3cf565d0,myrqe4yz7f,Trevor-ex1,1,170,2020-07-17T10:04:29-07:00,3.4570369720459,6,versionA_stim.csv,JOL_H_VersionB.csv,"Highlight vs normal B","Highlight vs normal",CHERRY,RED,Study2,F,104,98,Test,User,-,,Recall,Recall1,2941,RED,100,2582,2852,1,1,,,1
5eff3dd10265064a3cf565d0,myrqe4yz7f,Trevor-ex1,1,171,2020-07-17T10:04:35-07:00,5.2949590682983,6,versionA_stim.csv,JOL_H_VersionB.csv,"Highlight vs normal B","Highlight vs normal",DETECTIVE,MYSTERY,Study2,F,100,106,Test,User,-,,Recall,Recall1,4803,CASE,36.363636363636,3827,4667,0,0,,,1
5eff3dd10265064a3cf565d0,myrqe4yz7f,Trevor-ex1,1,172,2020-07-17T10:04:37-07:00,2.6835448741913,6,versionA_stim.csv,JOL_H_VersionB.csv,"Highlight vs normal B","Highlight vs normal",LOUD,NOISE,Study2,S,152,110,Test,User,-,,Recall,Recall1,2174,NOISE,100,1556,2038,1,1,,,1
5eff3dd10265064a3cf565d0,myrqe4yz7f,Trevor-ex1,1,173,2020-07-17T10:04:39-07:00,1.6883940696716,6,versionA_stim.csv,JOL_H_VersionB.csv,"Highlight vs normal B","Highlight vs normal",SHEARS,SCISSORS,Study2,F,112,105,Test,User,-,,Recall,Recall1,1295,,0,-1,-1,0,0,,,1
5eff3dd10265064a3cf565d0,myrqe4yz7f,Trevor-ex1,1,174,2020-07-17T10:04:41-07:00,1.7558400630951,6,versionA_stim.csv,JOL_H_VersionB.csv,"Highlight vs normal B","Highlight vs normal",MONEY,BANKER,Study2,B,132,155,Test,User,-,,Recall,Recall1,1354,,0,-1,-1,0,0,,,1
5eff3dd10265064a3cf565d0,myrqe4yz7f,Trevor-ex1,1,175,2020-07-17T10:04:42-07:00,1.5888919830322,6,versionA_stim.csv,JOL_H_VersionB.csv,"Highlight vs normal B","Highlight vs normal",STRETCH,CLOTH,Study2,U,157,112,Test,User,-,,Recall,Recall1,1183,,0,-1,-1,0,0,,,1
5eff3dd10265064a3cf565d0,myrqe4yz7f,Trevor-ex1,1,176,2020-07-17T10:04:44-07:00,1.5642249584198,6,versionA_stim.csv,JOL_H_VersionB.csv,"Highlight vs normal B","Highlight vs normal",CANDLE,WAX,Study2,S,139,111,Test,User,-,,Recall,Recall1,1135,,0,-1,-1,0,0,,,1
5eff3dd10265064a3cf565d0,myrqe4yz7f,Trevor-ex1,1,177,2020-07-17T10:04:45-07:00,1.4531490802765,6,versionA_stim.csv,JOL_H_VersionB.csv,"Highlight vs normal B","Highlight vs normal",RIGHTS,EQUAL,Study2,S,137,130,Test,User,-,,Recall,Recall1,1024,,0,-1,-1,0,0,,,1
5eff3dd10265064a3cf565d0,myrqe4yz7f,Trevor-ex1,1,178,2020-07-17T10:04:48-07:00,2.6747529506683,6,versionA_stim.csv,JOL_H_VersionB.csv,"Highlight vs normal B","Highlight vs normal",CAT,PANTHER,Study2,B,126,172,Test,User,-,,Recall,Recall1,2107,DOG,0,1460,1691,0,0,,,1
5eff3dd10265064a3cf565d0,myrqe4yz7f,Trevor-ex1,1,179,2020-07-17T10:05:16-07:00,28.388262987137,6,versionA_stim.csv,JOL_H_VersionB.csv,"Highlight vs normal B","Highlight vs normal",,,,,,0,Instruct,-,10,"You will now be presented with a new set of word pairs. Please study each pair. Remember that your memory will be tested! When finished, press Enter to move to the next pair.",Initial_Instruct,Instruct4,27911,,,-1,-1,,,,,0.642
5eff3dd10265064a3cf565d0,myrqe4yz7f,Trevor-ex1,1,180,2020-07-17T10:05:30-07:00,13.772834062576,6,versionA_stim.csv,JOL_H_VersionB.csv,"Highlight vs normal B","Highlight vs normal",,,,,,0,Instruct,,10,"You will again be asked to rate your ability to remember these items using a 0 to 100 scale. Remember to use the full range of the scale!",,Instruct10,13260,,,-1,-1,,,,,1
5eff3dd10265064a3cf565d0,myrqe4yz7f,Trevor-ex1,1,181,2020-07-17T10:05:32-07:00,2.0745007991791,6,versionA_stim.csv,JOL_H_VersionB.csv,"Highlight vs normal B","Highlight vs normal",,,,,,0,Instruct,User,-,"Press Enter when you are readty to begin",,Instruct11,1638,,,-1,-1,,,,,1
5eff3dd10265064a3cf565d0,myrqe4yz7f,Trevor-ex1,1,182,2020-07-17T10:05:35-07:00,2.922208070755,6,versionA_stim.csv,JOL_H_VersionB.csv,"Highlight vs normal B","Highlight vs normal",SPACE,JAM,BUFFER1,Buffer,5,5,JOL_H,User,-,"How likely are you to correctly recall the second item in the pair?|Type your response on a scale from 0-100 and then press Enter.",Study/JOL,BUFFER3,2413,,,2260,2325,,,,10,1
5eff3dd10265064a3cf565d0,myrqe4yz7f,Trevor-ex1,1,183,2020-07-17T10:05:38-07:00,3.2195620536804,6,versionA_stim.csv,JOL_H_VersionB.csv,"Highlight vs normal B","Highlight vs normal",SCARE,HIDE,BUFFER1,Buffer,4,6,JOL_H,User,-,"How likely are you to correctly recall the second item in the pair?|Type your response on a scale from 0-100 and then press Enter.",Study/JOL,BUFFER3,2666,,,2554,2578,,,,50,1
5eff3dd10265064a3cf565d0,myrqe4yz7f,Trevor-ex1,1,184,2020-07-17T10:05:41-07:00,2.7894260883331,6,versionA_stim.csv,JOL_H_VersionB.csv,"Highlight vs normal B","Highlight vs normal",BASEBALL,CATCHER,BUFFER1,Buffer,2,3,JOL,User,-,"How likely are you to correctly recall the second item in the pair?|Type your response on a scale from 0-100 and then press Enter.",Study/JOL,BUFFER3,2311,,,2203,2243,,,,60,1
5eff3dd10265064a3cf565d0,myrqe4yz7f,Trevor-ex1,1,185,2020-07-17T10:05:44-07:00,2.4607830047607,6,versionA_stim.csv,JOL_H_VersionB.csv,"Highlight vs normal B","Highlight vs normal",TREES,GREEN,BUFFER1,Buffer,1,2,JOL,User,-,"How likely are you to correctly recall the second item in the pair?|Type your response on a scale from 0-100 and then press Enter.",Study/JOL,BUFFER3,1973,,,1840,1889,,,,60,1
5eff3dd10265064a3cf565d0,myrqe4yz7f,Trevor-ex1,1,186,2020-07-17T10:05:46-07:00,2.5960319042206,6,versionA_stim.csv,JOL_H_VersionB.csv,"Highlight vs normal B","Highlight vs normal",PEANUT,BUTTER,BUFFER1,Buffer,3,4,JOL_H,User,-,"How likely are you to correctly recall the second item in the pair?|Type your response on a scale from 0-100 and then press Enter.",Study/JOL,BUFFER3,2114,,,1989,2061,,,,80,1
5eff3dd10265064a3cf565d0,myrqe4yz7f,Trevor-ex1,1,187,2020-07-17T10:05:49-07:00,2.7258160114288,6,versionA_stim.csv,JOL_H_VersionB.csv,"Highlight vs normal B","Highlight vs normal",SMELL,STENCH,Study1,B,42,38,JOL,User,-,"How likely are you to correctly recall the second item in the pair?|Type your response on a scale from 0-100 and then press Enter.",Study/JOL,"Study Phase2",2222,,,2091,2154,,,,40,1
5eff3dd10265064a3cf565d0,myrqe4yz7f,Trevor-ex1,1,188,2020-07-17T10:05:51-07:00,2.509213924408,6,versionA_stim.csv,JOL_H_VersionB.csv,"Highlight vs normal B","Highlight vs normal",BITTER,COLD,Study1,F,12,53,JOL_H,User,-,"How likely are you to correctly recall the second item in the pair?|Type your response on a scale from 0-100 and then press Enter.",Study/JOL,"Study Phase2",1995,,,1879,1941,,,,20,1
5eff3dd10265064a3cf565d0,myrqe4yz7f,Trevor-ex1,1,189,2020-07-17T10:05:59-07:00,7.167051076889,6,versionA_stim.csv,JOL_H_VersionB.csv,"Highlight vs normal B","Highlight vs normal",HERD,COW,Study1,F,22,66,JOL_H,User,-,"How likely are you to correctly recall the second item in the pair?|Type your response on a scale from 0-100 and then press Enter.",Study/JOL,"Study Phase2",6636,,,6498,6547,,,,40,1
5eff3dd10265064a3cf565d0,myrqe4yz7f,Trevor-ex1,1,190,2020-07-17T10:06:01-07:00,2.4067549705505,6,versionA_stim.csv,JOL_H_VersionB.csv,"Highlight vs normal B","Highlight vs normal",CLOTHES,ATTIRE,Study1,B,43,68,JOL_H,User,-,"How likely are you to correctly recall the second item in the pair?|Type your response on a scale from 0-100 and then press Enter.",Study/JOL,"Study Phase2",1768,,,1660,1705,,,,40,1
5eff3dd10265064a3cf565d0,myrqe4yz7f,Trevor-ex1,1,191,2020-07-17T10:06:04-07:00,3.1737279891968,6,versionA_stim.csv,JOL_H_VersionB.csv,"Highlight vs normal B","Highlight vs normal",BUG,WASP,Study1,B,32,31,JOL,User,-,"How likely are you to correctly recall the second item in the pair?|Type your response on a scale from 0-100 and then press Enter.",Study/JOL,"Study Phase2",2633,,,2520,2541,,,,60,1
5eff3dd10265064a3cf565d0,myrqe4yz7f,Trevor-ex1,1,192,2020-07-17T10:06:06-07:00,1.8000419139862,6,versionA_stim.csv,JOL_H_VersionB.csv,"Highlight vs normal B","Highlight vs normal",SHOE,FOOT,Study1,S,60,55,JOL_H,User,-,"How likely are you to correctly recall the second item in the pair?|Type your response on a scale from 0-100 and then press Enter.",Study/JOL,"Study Phase2",1389,,,1279,1321,,,,70,1
5eff3dd10265064a3cf565d0,myrqe4yz7f,Trevor-ex1,1,193,2020-07-17T10:06:08-07:00,1.876570224762,6,versionA_stim.csv,JOL_H_VersionB.csv,"Highlight vs normal B","Highlight vs normal",CREDIT,CARD,Study1,F,23,30,JOL,User,-,"How likely are you to correctly recall the second item in the pair?|Type your response on a scale from 0-100 and then press Enter.",Study/JOL,"Study Phase2",1475,,,1358,1432,,,,80,1
5eff3dd10265064a3cf565d0,myrqe4yz7f,Trevor-ex1,1,194,2020-07-17T10:06:11-07:00,2.8232939243317,6,versionA_stim.csv,JOL_H_VersionB.csv,"Highlight vs normal B","Highlight vs normal",ARCHITECTURE,DESIGN,Study1,S,51,25,JOL,User,-,"How likely are you to correctly recall the second item in the pair?|Type your response on a scale from 0-100 and then press Enter.",Study/JOL,"Study Phase2",2308,,,2159,2208,,,,80,1
5eff3dd10265064a3cf565d0,myrqe4yz7f,Trevor-ex1,1,195,2020-07-17T10:06:13-07:00,2.4176728725433,6,versionA_stim.csv,JOL_H_VersionB.csv,"Highlight vs normal B","Highlight vs normal",TAKE,SEIZE,Study1,B,29,16,JOL,User,-,"How likely are you to correctly recall the second item in the pair?|Type your response on a scale from 0-100 and then press Enter.",Study/JOL,"Study Phase2",1926,,,1819,1884,,,,60,1
5eff3dd10265064a3cf565d0,myrqe4yz7f,Trevor-ex1,1,196,2020-07-17T10:06:17-07:00,4.4115600585938,6,versionA_stim.csv,JOL_H_VersionB.csv,"Highlight vs normal B","Highlight vs normal",DISCUSSION,TALK,Study1,F,21,65,JOL_H,User,-,"How likely are you to correctly recall the second item in the pair?|Type your response on a scale from 0-100 and then press Enter.",Study/JOL,"Study Phase2",3876,,,3730,3824,,,,30,1
5eff3dd10265064a3cf565d0,myrqe4yz7f,Trevor-ex1,1,197,2020-07-17T10:06:19-07:00,1.7338559627533,6,versionA_stim.csv,JOL_H_VersionB.csv,"Highlight vs normal B","Highlight vs normal",ROOT,PLANT,Study1,F,13,13,JOL,User,-,"How likely are you to correctly recall the second item in the pair?|Type your response on a scale from 0-100 and then press Enter.",Study/JOL,"Study Phase2",1318,,,1195,1249,,,,30,1
5eff3dd10265064a3cf565d0,myrqe4yz7f,Trevor-ex1,1,198,2020-07-17T10:06:22-07:00,2.9117431640625,6,versionA_stim.csv,JOL_H_VersionB.csv,"Highlight vs normal B","Highlight vs normal",MACHINE,POSITION,Study1,U,76,47,JOL_H,User,-,"How likely are you to correctly recall the second item in the pair?|Type your response on a scale from 0-100 and then press Enter.",Study/JOL,"Study Phase2",2422,,,2330,2331,,,,5,1
5eff3dd10265064a3cf565d0,myrqe4yz7f,Trevor-ex1,1,199,2020-07-17T10:06:27-07:00,4.6791718006134,6,versionA_stim.csv,JOL_H_VersionB.csv,"Highlight vs normal B","Highlight vs normal",DELINQUENT,BAD,Study1,F,6,33,JOL,User,-,"How likely are you to correctly recall the second item in the pair?|Type your response on a scale from 0-100 and then press Enter.",Study/JOL,"Study Phase2",4181,,,4028,4087,,,,80,1
5eff3dd10265064a3cf565d0,myrqe4yz7f,Trevor-ex1,1,200,2020-07-17T10:06:30-07:00,2.8033452033997,6,versionA_stim.csv,JOL_H_VersionB.csv,"Highlight vs normal B","Highlight vs normal",BALL,RACKET,Study1,B,38,12,JOL,User,-,"How likely are you to correctly recall the second item in the pair?|Type your response on a scale from 0-100 and then press Enter.",Study/JOL,"Study Phase2",2301,,,2206,2250,,,,30,1
5eff3dd10265064a3cf565d0,myrqe4yz7f,Trevor-ex1,1,201,2020-07-17T10:06:32-07:00,2.4194920063019,6,versionA_stim.csv,JOL_H_VersionB.csv,"Highlight vs normal B","Highlight vs normal",BABY,CHILD,Study1,S,64,69,JOL_H,User,-,"How likely are you to correctly recall the second item in the pair?|Type your response on a scale from 0-100 and then press Enter.",Study/JOL,"Study Phase2",1934,,,1857,1871,,,,50,1
5eff3dd10265064a3cf565d0,myrqe4yz7f,Trevor-ex1,1,202,2020-07-17T10:06:34-07:00,2.0541307926178,6,versionA_stim.csv,JOL_H_VersionB.csv,"Highlight vs normal B","Highlight vs normal",GREAT,FANTASTIC,Study1,B,35,64,JOL_H,User,-,"How likely are you to correctly recall the second item in the pair?|Type your response on a scale from 0-100 and then press Enter.",Study/JOL,"Study Phase2",1637,,,1537,1570,,,,50,1
5eff3dd10265064a3cf565d0,myrqe4yz7f,Trevor-ex1,1,203,2020-07-17T10:06:36-07:00,1.8150300979614,6,versionA_stim.csv,JOL_H_VersionB.csv,"Highlight vs normal B","Highlight vs normal",KEY,LATCH,Study1,B,36,77,JOL_H,User,-,"How likely are you to correctly recall the second item in the pair?|Type your response on a scale from 0-100 and then press Enter.",Study/JOL,"Study Phase2",1391,,,1277,1337,,,,10,1
5eff3dd10265064a3cf565d0,myrqe4yz7f,Trevor-ex1,1,204,2020-07-17T10:06:38-07:00,1.7523999214172,6,versionA_stim.csv,JOL_H_VersionB.csv,"Highlight vs normal B","Highlight vs normal",SOON,BELT,Study1,U,70,18,JOL,User,-,"How likely are you to correctly recall the second item in the pair?|Type your response on a scale from 0-100 and then press Enter.",Study/JOL,"Study Phase2",1337,,,1266,1266,,,,5,1
5eff3dd10265064a3cf565d0,myrqe4yz7f,Trevor-ex1,1,205,2020-07-17T10:06:40-07:00,2.3410241603851,6,versionA_stim.csv,JOL_H_VersionB.csv,"Highlight vs normal B","Highlight vs normal",BLOW,WIND,Study1,S,55,62,JOL_H,User,-,"How likely are you to correctly recall the second item in the pair?|Type your response on a scale from 0-100 and then press Enter.",Study/JOL,"Study Phase2",1735,,,1610,1662,,,,40,1
5eff3dd10265064a3cf565d0,myrqe4yz7f,Trevor-ex1,1,206,2020-07-17T10:06:42-07:00,1.763240814209,6,versionA_stim.csv,JOL_H_VersionB.csv,"Highlight vs normal B","Highlight vs normal",VALLEY,ADD,Study1,U,82,80,JOL_H,User,-,"How likely are you to correctly recall the second item in the pair?|Type your response on a scale from 0-100 and then press Enter.",Study/JOL,"Study Phase2",1347,,,1208,1256,,,,20,1
5eff3dd10265064a3cf565d0,myrqe4yz7f,Trevor-ex1,1,207,2020-07-17T10:06:44-07:00,2.5511360168457,6,versionA_stim.csv,JOL_H_VersionB.csv,"Highlight vs normal B","Highlight vs normal",NUMBER,AMOUNT,Study1,S,47,83,JOL_H,User,-,"How likely are you to correctly recall the second item in the pair?|Type your response on a scale from 0-100 and then press Enter.",Study/JOL,"Study Phase2",2018,,,1891,1914,,,,30,1
5eff3dd10265064a3cf565d0,myrqe4yz7f,Trevor-ex1,1,208,2020-07-17T10:06:46-07:00,2.1599271297455,6,versionA_stim.csv,JOL_H_VersionB.csv,"Highlight vs normal B","Highlight vs normal",KIDNEY,LIVER,Study1,S,53,39,JOL,User,-,"How likely are you to correctly recall the second item in the pair?|Type your response on a scale from 0-100 and then press Enter.",Study/JOL,"Study Phase2",1701,,,1572,1645,,,,40,1
5eff3dd10265064a3cf565d0,myrqe4yz7f,Trevor-ex1,1,209,2020-07-17T10:06:48-07:00,1.8304920196533,6,versionA_stim.csv,JOL_H_VersionB.csv,"Highlight vs normal B","Highlight vs normal",POP,SODA,Study1,S,56,26,JOL,User,-,"How likely are you to correctly recall the second item in the pair?|Type your response on a scale from 0-100 and then press Enter.",Study/JOL,"Study Phase2",1436,,,1263,1327,,,,50,1
5eff3dd10265064a3cf565d0,myrqe4yz7f,Trevor-ex1,1,210,2020-07-17T10:06:51-07:00,2.3350689411163,6,versionA_stim.csv,JOL_H_VersionB.csv,"Highlight vs normal B","Highlight vs normal",ORCHID,FLOWER,Study1,F,24,36,JOL,User,-,"How likely are you to correctly recall the second item in the pair?|Type your response on a scale from 0-100 and then press Enter.",Study/JOL,"Study Phase2",1782,,,1637,1684,,,,40,1
5eff3dd10265064a3cf565d0,myrqe4yz7f,Trevor-ex1,1,211,2020-07-17T10:06:54-07:00,3.3369529247284,6,versionA_stim.csv,JOL_H_VersionB.csv,"Highlight vs normal B","Highlight vs normal",DRINK,SIP,Study1,B,27,10,JOL,User,-,"How likely are you to correctly recall the second item in the pair?|Type your response on a scale from 0-100 and then press Enter.",Study/JOL,"Study Phase2",2826,,,2713,2767,,,,20,1
5eff3dd10265064a3cf565d0,myrqe4yz7f,Trevor-ex1,1,212,2020-07-17T10:06:57-07:00,2.7767269611359,6,versionA_stim.csv,JOL_H_VersionB.csv,"Highlight vs normal B","Highlight vs normal",ART,LION,Study1,U,79,17,JOL,User,-,"How likely are you to correctly recall the second item in the pair?|Type your response on a scale from 0-100 and then press Enter.",Study/JOL,"Study Phase2",2282,,,2159,2198,,,,60,1
5eff3dd10265064a3cf565d0,myrqe4yz7f,Trevor-ex1,1,213,2020-07-17T10:06:59-07:00,2.1021630764008,6,versionA_stim.csv,JOL_H_VersionB.csv,"Highlight vs normal B","Highlight vs normal",REVOLUTION,WAR,Study1,F,20,28,JOL,User,-,"How likely are you to correctly recall the second item in the pair?|Type your response on a scale from 0-100 and then press Enter.",Study/JOL,"Study Phase2",1689,,,1586,1649,,,,40,1
5eff3dd10265064a3cf565d0,myrqe4yz7f,Trevor-ex1,1,214,2020-07-17T10:07:01-07:00,1.8293309211731,6,versionA_stim.csv,JOL_H_VersionB.csv,"Highlight vs normal B","Highlight vs normal",HONEY,BEE,Study1,S,63,63,JOL_H,User,-,"How likely are you to correctly recall the second item in the pair?|Type your response on a scale from 0-100 and then press Enter.",Study/JOL,"Study Phase2",1409,,,1283,1386,,,,40,1
5eff3dd10265064a3cf565d0,myrqe4yz7f,Trevor-ex1,1,215,2020-07-17T10:07:02-07:00,1.7897200584412,6,versionA_stim.csv,JOL_H_VersionB.csv,"Highlight vs normal B","Highlight vs normal",WAGE,MONEY,Study1,F,8,44,JOL,User,-,"How likely are you to correctly recall the second item in the pair?|Type your response on a scale from 0-100 and then press Enter.",Study/JOL,"Study Phase2",1375,,,1227,1292,,,,60,1
5eff3dd10265064a3cf565d0,myrqe4yz7f,Trevor-ex1,1,216,2020-07-17T10:07:04-07:00,1.6958000659943,6,versionA_stim.csv,JOL_H_VersionB.csv,"Highlight vs normal B","Highlight vs normal",SLEEP,DROWSY,Study1,B,41,67,JOL_H,User,-,"How likely are you to correctly recall the second item in the pair?|Type your response on a scale from 0-100 and then press Enter.",Study/JOL,"Study Phase2",1280,,,1143,1183,,,,60,1
5eff3dd10265064a3cf565d0,myrqe4yz7f,Trevor-ex1,1,217,2020-07-17T10:07:06-07:00,1.6146059036255,6,versionA_stim.csv,JOL_H_VersionB.csv,"Highlight vs normal B","Highlight vs normal",HUNGER,FAMINE,Study1,B,40,81,JOL_H,User,-,"How likely are you to correctly recall the second item in the pair?|Type your response on a scale from 0-100 and then press Enter.",Study/JOL,"Study Phase2",1186,,,1043,1077,,,,60,1
5eff3dd10265064a3cf565d0,myrqe4yz7f,Trevor-ex1,1,218,2020-07-17T10:07:07-07:00,1.5629751682281,6,versionA_stim.csv,JOL_H_VersionB.csv,"Highlight vs normal B","Highlight vs normal",HYGIENE,CLEAN,Study1,F,17,57,JOL_H,User,-,"How likely are you to correctly recall the second item in the pair?|Type your response on a scale from 0-100 and then press Enter.",Study/JOL,"Study Phase2",1153,,,973,1059,,,,60,1
5eff3dd10265064a3cf565d0,myrqe4yz7f,Trevor-ex1,1,219,2020-07-17T10:07:09-07:00,1.9684360027313,6,versionA_stim.csv,JOL_H_VersionB.csv,"Highlight vs normal B","Highlight vs normal",FIX,HAND,Study1,U,75,41,JOL,User,-,"How likely are you to correctly recall the second item in the pair?|Type your response on a scale from 0-100 and then press Enter.",Study/JOL,"Study Phase2",1405,,,1287,1348,,,,20,1
5eff3dd10265064a3cf565d0,myrqe4yz7f,Trevor-ex1,1,220,2020-07-17T10:07:12-07:00,2.7156949043274,6,versionA_stim.csv,JOL_H_VersionB.csv,"Highlight vs normal B","Highlight vs normal",STRONG,ACCIDENT,Study1,U,80,49,JOL_H,User,-,"How likely are you to correctly recall the second item in the pair?|Type your response on a scale from 0-100 and then press Enter.",Study/JOL,"Study Phase2",2177,,,2076,2115,,,,50,1
5eff3dd10265064a3cf565d0,myrqe4yz7f,Trevor-ex1,1,221,2020-07-17T10:07:14-07:00,1.8902449607849,6,versionA_stim.csv,JOL_H_VersionB.csv,"Highlight vs normal B","Highlight vs normal",ARTERY,BRONZE,Study1,U,74,32,JOL,User,-,"How likely are you to correctly recall the second item in the pair?|Type your response on a scale from 0-100 and then press Enter.",Study/JOL,"Study Phase2",1448,,,1360,1424,,,,20,1
5eff3dd10265064a3cf565d0,myrqe4yz7f,Trevor-ex1,1,222,2020-07-17T10:07:16-07:00,1.7357800006866,6,versionA_stim.csv,JOL_H_VersionB.csv,"Highlight vs normal B","Highlight vs normal",DEBATE,SIGHT,Study1,U,73,50,JOL_H,User,-,"How likely are you to correctly recall the second item in the pair?|Type your response on a scale from 0-100 and then press Enter.",Study/JOL,"Study Phase2",1325,,,1267,1267,,,,2,1
5eff3dd10265064a3cf565d0,myrqe4yz7f,Trevor-ex1,1,223,2020-07-17T10:07:19-07:00,3.4113991260529,6,versionA_stim.csv,JOL_H_VersionB.csv,"Highlight vs normal B","Highlight vs normal",ALLOW,TUCK,Study1,U,78,85,JOL_H,User,-,"How likely are you to correctly recall the second item in the pair?|Type your response on a scale from 0-100 and then press Enter.",Study/JOL,"Study Phase2",2895,,,2697,2776,,,,20,1
5eff3dd10265064a3cf565d0,myrqe4yz7f,Trevor-ex1,1,224,2020-07-17T10:07:21-07:00,1.53080701828,6,versionA_stim.csv,JOL_H_VersionB.csv,"Highlight vs normal B","Highlight vs normal",FIRE,BLAZE,Study1,B,45,82,JOL_H,User,-,"How likely are you to correctly recall the second item in the pair?|Type your response on a scale from 0-100 and then press Enter.",Study/JOL,"Study Phase2",1108,,,1020,1053,,,,60,1
5eff3dd10265064a3cf565d0,myrqe4yz7f,Trevor-ex1,1,225,2020-07-17T10:07:23-07:00,2.05508685112,6,versionA_stim.csv,JOL_H_VersionB.csv,"Highlight vs normal B","Highlight vs normal",PLANE,PILOT,Study1,B,44,14,JOL,User,-,"How likely are you to correctly recall the second item in the pair?|Type your response on a scale from 0-100 and then press Enter.",Study/JOL,"Study Phase2",1646,,,1533,1593,,,,70,1
5eff3dd10265064a3cf565d0,myrqe4yz7f,Trevor-ex1,1,226,2020-07-17T10:07:25-07:00,1.9982891082764,6,versionA_stim.csv,JOL_H_VersionB.csv,"Highlight vs normal B","Highlight vs normal",WAY,OUT,Study1,F,16,52,JOL_H,User,-,"How likely are you to correctly recall the second item in the pair?|Type your response on a scale from 0-100 and then press Enter.",Study/JOL,"Study Phase2",1594,,,1485,1516,,,,70,1
5eff3dd10265064a3cf565d0,myrqe4yz7f,Trevor-ex1,1,227,2020-07-17T10:07:26-07:00,1.8889529705048,6,versionA_stim.csv,JOL_H_VersionB.csv,"Highlight vs normal B","Highlight vs normal",LETTUCE,SALAD,Study1,S,59,61,JOL_H,User,-,"How likely are you to correctly recall the second item in the pair?|Type your response on a scale from 0-100 and then press Enter.",Study/JOL,"Study Phase2",1475,,,1372,1400,,,,70,1
5eff3dd10265064a3cf565d0,myrqe4yz7f,Trevor-ex1,1,228,2020-07-17T10:07:29-07:00,2.0448188781738,6,versionA_stim.csv,JOL_H_VersionB.csv,"Highlight vs normal B","Highlight vs normal",LOCATION,SITE,Study1,S,48,59,JOL_H,User,-,"How likely are you to correctly recall the second item in the pair?|Type your response on a scale from 0-100 and then press Enter.",Study/JOL,"Study Phase2",1498,,,1390,1433,,,,40,1
5eff3dd10265064a3cf565d0,myrqe4yz7f,Trevor-ex1,1,229,2020-07-17T10:07:31-07:00,2.4154081344604,6,versionA_stim.csv,JOL_H_VersionB.csv,"Highlight vs normal B","Highlight vs normal",SWAN,BIRD,Study1,F,14,86,JOL_H,User,-,"How likely are you to correctly recall the second item in the pair?|Type your response on a scale from 0-100 and then press Enter.",Study/JOL,"Study Phase2",1837,,,1732,1777,,,,50,1
5eff3dd10265064a3cf565d0,myrqe4yz7f,Trevor-ex1,1,230,2020-07-17T10:07:33-07:00,1.6850018501282,6,versionA_stim.csv,JOL_H_VersionB.csv,"Highlight vs normal B","Highlight vs normal",KING,VASE,Study1,U,85,84,JOL_H,User,-,"How likely are you to correctly recall the second item in the pair?|Type your response on a scale from 0-100 and then press Enter.",Study/JOL,"Study Phase2",1292,,,1234,1266,,,,20,1
5eff3dd10265064a3cf565d0,myrqe4yz7f,Trevor-ex1,1,231,2020-07-17T10:07:35-07:00,1.9449331760406,6,versionA_stim.csv,JOL_H_VersionB.csv,"Highlight vs normal B","Highlight vs normal",TRIAL,JURY,Study1,S,50,58,JOL_H,User,-,"How likely are you to correctly recall the second item in the pair?|Type your response on a scale from 0-100 and then press Enter.",Study/JOL,"Study Phase2",1554,,,1441,1489,,,,40,1
5eff3dd10265064a3cf565d0,myrqe4yz7f,Trevor-ex1,1,232,2020-07-17T10:07:37-07:00,2.126806974411,6,versionA_stim.csv,JOL_H_VersionB.csv,"Highlight vs normal B","Highlight vs normal",DARK,CAVE,Study1,B,28,43,JOL,User,-,"How likely are you to correctly recall the second item in the pair?|Type your response on a scale from 0-100 and then press Enter.",Study/JOL,"Study Phase2",1728,,,1609,1649,,,,20,1
5eff3dd10265064a3cf565d0,myrqe4yz7f,Trevor-ex1,1,233,2020-07-17T10:07:39-07:00,2.4362759590149,6,versionA_stim.csv,JOL_H_VersionB.csv,"Highlight vs normal B","Highlight vs normal",HORNET,STING,Study1,F,11,21,JOL,User,-,"How likely are you to correctly recall the second item in the pair?|Type your response on a scale from 0-100 and then press Enter.",Study/JOL,"Study Phase2",1909,,,1811,1845,,,,70,1
5eff3dd10265064a3cf565d0,myrqe4yz7f,Trevor-ex1,1,234,2020-07-17T10:07:42-07:00,2.8809180259705,6,versionA_stim.csv,JOL_H_VersionB.csv,"Highlight vs normal B","Highlight vs normal",FULL,ENOUGH,Study1,B,26,42,JOL,User,-,"How likely are you to correctly recall the second item in the pair?|Type your response on a scale from 0-100 and then press Enter.",Study/JOL,"Study Phase2",2398,,,2266,2336,,,,30,1
5eff3dd10265064a3cf565d0,myrqe4yz7f,Trevor-ex1,1,235,2020-07-17T10:07:44-07:00,2.4414229393005,6,versionA_stim.csv,JOL_H_VersionB.csv,"Highlight vs normal B","Highlight vs normal",HIDE,SICK,Study1,U,84,24,JOL,User,-,"How likely are you to correctly recall the second item in the pair?|Type your response on a scale from 0-100 and then press Enter.",Study/JOL,"Study Phase2",1943,,,1866,1867,,,,5,1
5eff3dd10265064a3cf565d0,myrqe4yz7f,Trevor-ex1,1,236,2020-07-17T10:07:48-07:00,3.8355779647827,6,versionA_stim.csv,JOL_H_VersionB.csv,"Highlight vs normal B","Highlight vs normal",GRILL,BAR,Study1,S,52,9,JOL,User,-,"How likely are you to correctly recall the second item in the pair?|Type your response on a scale from 0-100 and then press Enter.",Study/JOL,"Study Phase2",3291,,,2230,3166,,,,35,1
5eff3dd10265064a3cf565d0,myrqe4yz7f,Trevor-ex1,1,237,2020-07-17T10:07:51-07:00,2.4075260162354,6,versionA_stim.csv,JOL_H_VersionB.csv,"Highlight vs normal B","Highlight vs normal",LIFT,WOMAN,Study1,U,69,74,JOL_H,User,-,"How likely are you to correctly recall the second item in the pair?|Type your response on a scale from 0-100 and then press Enter.",Study/JOL,"Study Phase2",1924,,,1815,1854,,,,60,1
5eff3dd10265064a3cf565d0,myrqe4yz7f,Trevor-ex1,1,238,2020-07-17T10:07:52-07:00,1.7554819583893,6,versionA_stim.csv,JOL_H_VersionB.csv,"Highlight vs normal B","Highlight vs normal",LAW,ATTORNEY,Study1,B,34,7,JOL,User,-,"How likely are you to correctly recall the second item in the pair?|Type your response on a scale from 0-100 and then press Enter.",Study/JOL,"Study Phase2",1354,,,1226,1276,,,,60,1
5eff3dd10265064a3cf565d0,myrqe4yz7f,Trevor-ex1,1,239,2020-07-17T10:07:54-07:00,1.8334012031555,6,versionA_stim.csv,JOL_H_VersionB.csv,"Highlight vs normal B","Highlight vs normal",DIETARY,SACKING,Study1,U,67,19,JOL,User,-,"How likely are you to correctly recall the second item in the pair?|Type your response on a scale from 0-100 and then press Enter.",Study/JOL,"Study Phase2",1413,,,1276,1317,,,,20,1
5eff3dd10265064a3cf565d0,myrqe4yz7f,Trevor-ex1,1,240,2020-07-17T10:07:56-07:00,1.4956488609314,6,versionA_stim.csv,JOL_H_VersionB.csv,"Highlight vs normal B","Highlight vs normal",HOT,CHILI,Study1,B,37,45,JOL,User,-,"How likely are you to correctly recall the second item in the pair?|Type your response on a scale from 0-100 and then press Enter.",Study/JOL,"Study Phase2",1102,,,984,1042,,,,60,1
5eff3dd10265064a3cf565d0,myrqe4yz7f,Trevor-ex1,1,241,2020-07-17T10:07:58-07:00,2.3920609951019,6,versionA_stim.csv,JOL_H_VersionB.csv,"Highlight vs normal B","Highlight vs normal",BEGIN,END,Study1,S,54,54,JOL_H,User,-,"How likely are you to correctly recall the second item in the pair?|Type your response on a scale from 0-100 and then press Enter.",Study/JOL,"Study Phase2",1886,,,1771,1827,,,,90,1
5eff3dd10265064a3cf565d0,myrqe4yz7f,Trevor-ex1,1,242,2020-07-17T10:08:00-07:00,1.7035689353943,6,versionA_stim.csv,JOL_H_VersionB.csv,"Highlight vs normal B","Highlight vs normal",WINE,CHEESE,Study1,S,57,51,JOL_H,User,-,"How likely are you to correctly recall the second item in the pair?|Type your response on a scale from 0-100 and then press Enter.",Study/JOL,"Study Phase2",1295,,,1191,1255,,,,50,1
5eff3dd10265064a3cf565d0,myrqe4yz7f,Trevor-ex1,1,243,2020-07-17T10:08:02-07:00,1.6188449859619,6,versionA_stim.csv,JOL_H_VersionB.csv,"Highlight vs normal B","Highlight vs normal",DUE,ASSIGNMENT,Study1,S,46,78,JOL_H,User,-,"How likely are you to correctly recall the second item in the pair?|Type your response on a scale from 0-100 and then press Enter.",Study/JOL,"Study Phase2",1171,,,1086,1136,,,,50,1
5eff3dd10265064a3cf565d0,myrqe4yz7f,Trevor-ex1,1,244,2020-07-17T10:08:03-07:00,1.8015310764313,6,versionA_stim.csv,JOL_H_VersionB.csv,"Highlight vs normal B","Highlight vs normal",DIGESTION,STOMACH,Study1,F,7,48,JOL_H,User,-,"How likely are you to correctly recall the second item in the pair?|Type your response on a scale from 0-100 and then press Enter.",Study/JOL,"Study Phase2",1409,,,1333,1341,,,,50,1
5eff3dd10265064a3cf565d0,myrqe4yz7f,Trevor-ex1,1,245,2020-07-17T10:08:05-07:00,1.6528239250183,6,versionA_stim.csv,JOL_H_VersionB.csv,"Highlight vs normal B","Highlight vs normal",EDITOR,NEWS,Study1,F,10,71,JOL_H,User,-,"How likely are you to correctly recall the second item in the pair?|Type your response on a scale from 0-100 and then press Enter.",Study/JOL,"Study Phase2",1206,,,1111,1160,,,,50,1
5eff3dd10265064a3cf565d0,myrqe4yz7f,Trevor-ex1,1,246,2020-07-17T10:08:07-07:00,1.9291570186615,6,versionA_stim.csv,JOL_H_VersionB.csv,"Highlight vs normal B","Highlight vs normal",DISCOVER,FLOOR,Study1,U,71,23,JOL,User,-,"How likely are you to correctly recall the second item in the pair?|Type your response on a scale from 0-100 and then press Enter.",Study/JOL,"Study Phase2",1453,,,1376,1434,,,,30,1
5eff3dd10265064a3cf565d0,myrqe4yz7f,Trevor-ex1,1,247,2020-07-17T10:08:10-07:00,2.6161181926727,6,versionA_stim.csv,JOL_H_VersionB.csv,"Highlight vs normal B","Highlight vs normal",PAST,FUTURE,Study1,S,61,35,JOL,User,-,"How likely are you to correctly recall the second item in the pair?|Type your response on a scale from 0-100 and then press Enter.",Study/JOL,"Study Phase2",2079,,,1956,2015,,,,90,1
5eff3dd10265064a3cf565d0,myrqe4yz7f,Trevor-ex1,1,248,2020-07-17T10:08:12-07:00,2.3757638931274,6,versionA_stim.csv,JOL_H_VersionB.csv,"Highlight vs normal B","Highlight vs normal",WORK,CHORE,Study1,B,39,11,JOL,User,-,"How likely are you to correctly recall the second item in the pair?|Type your response on a scale from 0-100 and then press Enter.",Study/JOL,"Study Phase2",1756,,,1614,1681,,,,30,1
5eff3dd10265064a3cf565d0,myrqe4yz7f,Trevor-ex1,1,249,2020-07-17T10:08:14-07:00,2.3559029102325,6,versionA_stim.csv,JOL_H_VersionB.csv,"Highlight vs normal B","Highlight vs normal",DUMP,WASTE,Study1,S,49,8,JOL,User,-,"How likely are you to correctly recall the second item in the pair?|Type your response on a scale from 0-100 and then press Enter.",Study/JOL,"Study Phase2",1830,,,1154,1491,,,,20,1
5eff3dd10265064a3cf565d0,myrqe4yz7f,Trevor-ex1,1,250,2020-07-17T10:08:16-07:00,1.9923231601715,6,versionA_stim.csv,JOL_H_VersionB.csv,"Highlight vs normal B","Highlight vs normal",PARK,HUNGRY,Study1,U,68,15,JOL,User,-,"How likely are you to correctly recall the second item in the pair?|Type your response on a scale from 0-100 and then press Enter.",Study/JOL,"Study Phase2",1588,,,1333,1482,,,,10,1
5eff3dd10265064a3cf565d0,myrqe4yz7f,Trevor-ex1,1,251,2020-07-17T10:08:20-07:00,3.6614968776703,6,versionA_stim.csv,JOL_H_VersionB.csv,"Highlight vs normal B","Highlight vs normal",CHISEL,HAMMER,Study1,F,9,60,JOL_H,User,-,"How likely are you to correctly recall the second item in the pair?|Type your response on a scale from 0-100 and then press Enter.",Study/JOL,"Study Phase2",3148,,,2832,2993,,,,60,1
5eff3dd10265064a3cf565d0,myrqe4yz7f,Trevor-ex1,1,252,2020-07-17T10:08:22-07:00,2.0661170482635,6,versionA_stim.csv,JOL_H_VersionB.csv,"Highlight vs normal B","Highlight vs normal",CASH,WOULD,Study1,U,83,27,JOL,User,-,"How likely are you to correctly recall the second item in the pair?|Type your response on a scale from 0-100 and then press Enter.",Study/JOL,"Study Phase2",1635,,,1364,1486,,,,20,1
5eff3dd10265064a3cf565d0,myrqe4yz7f,Trevor-ex1,1,253,2020-07-17T10:08:26-07:00,3.9265711307526,6,versionA_stim.csv,JOL_H_VersionB.csv,"Highlight vs normal B","Highlight vs normal",CIRCLE,ROUND,Study1,S,65,75,JOL_H,User,-,"How likely are you to correctly recall the second item in the pair?|Type your response on a scale from 0-100 and then press Enter.",Study/JOL,"Study Phase2",2415,,,2149,2253,,,,50,1
5eff3dd10265064a3cf565d0,myrqe4yz7f,Trevor-ex1,1,254,2020-07-17T10:08:27-07:00,1.3457458019257,6,versionA_stim.csv,JOL_H_VersionB.csv,"Highlight vs normal B","Highlight vs normal",DEATH,BUSINESS,Study1,U,72,72,JOL_H,User,-,"How likely are you to correctly recall the second item in the pair?|Type your response on a scale from 0-100 and then press Enter.",Study/JOL,"Study Phase2",955,,,857,881,,,,50,1
5eff3dd10265064a3cf565d0,myrqe4yz7f,Trevor-ex1,1,255,2020-07-17T10:08:30-07:00,2.869873046875,6,versionA_stim.csv,JOL_H_VersionB.csv,"Highlight vs normal B","Highlight vs normal",SENTENCE,WORD,Study1,B,31,40,JOL,User,-,"How likely are you to correctly recall the second item in the pair?|Type your response on a scale from 0-100 and then press Enter.",Study/JOL,"Study Phase2",2302,,,2148,2258,,,,30,1
5eff3dd10265064a3cf565d0,myrqe4yz7f,Trevor-ex1,1,256,2020-07-17T10:08:35-07:00,4.5349171161652,6,versionA_stim.csv,JOL_H_VersionB.csv,"Highlight vs normal B","Highlight vs normal",BRIDGE,WATER,Study1,F,18,70,JOL_H,User,-,"How likely are you to correctly recall the second item in the pair?|Type your response on a scale from 0-100 and then press Enter.",Study/JOL,"Study Phase2",4028,,,3875,3928,,,,30,1
5eff3dd10265064a3cf565d0,myrqe4yz7f,Trevor-ex1,1,257,2020-07-17T10:08:37-07:00,2.0489139556885,6,versionA_stim.csv,JOL_H_VersionB.csv,"Highlight vs normal B","Highlight vs normal",MATH,DIVISION,Study1,B,33,34,JOL,User,-,"How likely are you to correctly recall the second item in the pair?|Type your response on a scale from 0-100 and then press Enter.",Study/JOL,"Study Phase2",1659,,,1517,1570,,,,70,1
5eff3dd10265064a3cf565d0,myrqe4yz7f,Trevor-ex1,1,258,2020-07-17T10:08:39-07:00,2.0439188480377,6,versionA_stim.csv,JOL_H_VersionB.csv,"Highlight vs normal B","Highlight vs normal",SUGAR,RIDDLE,Study1,U,81,22,JOL,User,-,"How likely are you to correctly recall the second item in the pair?|Type your response on a scale from 0-100 and then press Enter.",Study/JOL,"Study Phase2",1649,,,1509,1582,,,,30,1
5eff3dd10265064a3cf565d0,myrqe4yz7f,Trevor-ex1,1,259,2020-07-17T10:08:41-07:00,2.3862950801849,6,versionA_stim.csv,JOL_H_VersionB.csv,"Highlight vs normal B","Highlight vs normal",PUSHER,CLUTTER,Study1,U,66,73,JOL_H,User,-,"How likely are you to correctly recall the second item in the pair?|Type your response on a scale from 0-100 and then press Enter.",Study/JOL,"Study Phase2",1915,,,1652,1792,,,,10,1
5eff3dd10265064a3cf565d0,myrqe4yz7f,Trevor-ex1,1,260,2020-07-17T10:08:44-07:00,2.6634421348572,6,versionA_stim.csv,JOL_H_VersionB.csv,"Highlight vs normal B","Highlight vs normal",BATHROOM,TOILET,Study1,S,58,76,JOL_H,User,-,"How likely are you to correctly recall the second item in the pair?|Type your response on a scale from 0-100 and then press Enter.",Study/JOL,"Study Phase2",2163,,,1992,2061,,,,70,1
5eff3dd10265064a3cf565d0,myrqe4yz7f,Trevor-ex1,1,261,2020-07-17T10:08:46-07:00,2.0226140022278,6,versionA_stim.csv,JOL_H_VersionB.csv,"Highlight vs normal B","Highlight vs normal",GEOLOGY,ROCK,Study1,F,19,37,JOL,User,-,"How likely are you to correctly recall the second item in the pair?|Type your response on a scale from 0-100 and then press Enter.",Study/JOL,"Study Phase2",1573,,,1430,1514,,,,80,1
5eff3dd10265064a3cf565d0,myrqe4yz7f,Trevor-ex1,1,262,2020-07-17T10:08:48-07:00,2.454118013382,6,versionA_stim.csv,JOL_H_VersionB.csv,"Highlight vs normal B","Highlight vs normal",HEIGHT,GROWTH,Study1,B,30,56,JOL_H,User,-,"How likely are you to correctly recall the second item in the pair?|Type your response on a scale from 0-100 and then press Enter.",Study/JOL,"Study Phase2",1923,,,1802,1840,,,,50,1
5eff3dd10265064a3cf565d0,myrqe4yz7f,Trevor-ex1,1,263,2020-07-17T10:08:50-07:00,1.8001439571381,6,versionA_stim.csv,JOL_H_VersionB.csv,"Highlight vs normal B","Highlight vs normal",PAW,DOG,Study1,F,15,46,JOL,User,-,"How likely are you to correctly recall the second item in the pair?|Type your response on a scale from 0-100 and then press Enter.",Study/JOL,"Study Phase2",1390,,,1262,1338,,,,50,1
5eff3dd10265064a3cf565d0,myrqe4yz7f,Trevor-ex1,1,264,2020-07-17T10:08:52-07:00,1.670578956604,6,versionA_stim.csv,JOL_H_VersionB.csv,"Highlight vs normal B","Highlight vs normal",TUNA,FISH,Study1,F,25,20,JOL,User,-,"How likely are you to correctly recall the second item in the pair?|Type your response on a scale from 0-100 and then press Enter.",Study/JOL,"Study Phase2",1230,,,784,961,,,,50,1
5eff3dd10265064a3cf565d0,myrqe4yz7f,Trevor-ex1,1,265,2020-07-17T10:08:55-07:00,3.1005170345306,6,versionA_stim.csv,JOL_H_VersionB.csv,"Highlight vs normal B","Highlight vs normal",MEANING,DEFINITION,Study1,S,62,29,JOL,User,-,"How likely are you to correctly recall the second item in the pair?|Type your response on a scale from 0-100 and then press Enter.",Study/JOL,"Study Phase2",2594,,,1346,2424,,,,60,1
5eff3dd10265064a3cf565d0,myrqe4yz7f,Trevor-ex1,1,266,2020-07-17T10:08:57-07:00,2.5959470272064,6,versionA_stim.csv,JOL_H_VersionB.csv,"Highlight vs normal B","Highlight vs normal",HAPPY,CAR,Study1,U,77,79,JOL_H,User,-,"How likely are you to correctly recall the second item in the pair?|Type your response on a scale from 0-100 and then press Enter.",Study/JOL,"Study Phase2",2077,,,949,1959,,,,40,1
5eff3dd10265064a3cf565d0,myrqe4yz7f,Trevor-ex1,1,267,2020-07-17T10:09:01-07:00,3.2798779010773,6,versionA_stim.csv,JOL_H_VersionB.csv,"Highlight vs normal B","Highlight vs normal",GEESE,GOOSE,BUFFER2,Buffer,86,88,JOL_H,User,-,"How likely are you to correctly recall the second item in the pair?|Type your response on a scale from 0-100 and then press Enter.",Study/JOL,BUFFER4,2768,,,1978,2617,,,,85,1
5eff3dd10265064a3cf565d0,myrqe4yz7f,Trevor-ex1,1,268,2020-07-17T10:09:03-07:00,2.7316100597382,6,versionA_stim.csv,JOL_H_VersionB.csv,"Highlight vs normal B","Highlight vs normal",SHERRIF,POLICE,BUFFER2,Buffer,87,89,JOL,User,-,"How likely are you to correctly recall the second item in the pair?|Type your response on a scale from 0-100 and then press Enter.",Study/JOL,BUFFER4,2188,,,1980,2074,,,,50,1
5eff3dd10265064a3cf565d0,myrqe4yz7f,Trevor-ex1,1,269,2020-07-17T10:09:06-07:00,2.7112789154053,6,versionA_stim.csv,JOL_H_VersionB.csv,"Highlight vs normal B","Highlight vs normal",THING,STUFF,BUFFER2,Buffer,90,90,JOL,User,-,"How likely are you to correctly recall the second item in the pair?|Type your response on a scale from 0-100 and then press Enter.",Study/JOL,BUFFER4,2161,,,1378,2023,,,,20,1
5eff3dd10265064a3cf565d0,myrqe4yz7f,Trevor-ex1,1,270,2020-07-17T10:09:08-07:00,2.1021339893341,6,versionA_stim.csv,JOL_H_VersionB.csv,"Highlight vs normal B","Highlight vs normal",MOON,SPACE,BUFFER2,Buffer,89,91,JOL,User,-,"How likely are you to correctly recall the second item in the pair?|Type your response on a scale from 0-100 and then press Enter.",Study/JOL,BUFFER4,1626,,,1364,1472,,,,40,1
5eff3dd10265064a3cf565d0,myrqe4yz7f,Trevor-ex1,1,271,2020-07-17T10:09:10-07:00,2.0217840671539,6,versionA_stim.csv,JOL_H_VersionB.csv,"Highlight vs normal B","Highlight vs normal",MALT,CHOCOLATE,BUFFER2,Buffer,88,87,JOL_H,User,-,"How likely are you to correctly recall the second item in the pair?|Type your response on a scale from 0-100 and then press Enter.",Study/JOL,BUFFER4,1589,,,1402,1511,,,,30,1
5eff3dd10265064a3cf565d0,myrqe4yz7f,Trevor-ex1,1,272,2020-07-17T10:09:11-07:00,1.1893849372864,6,versionA_stim.csv,JOL_H_VersionB.csv,"Highlight vs normal B","Highlight vs normal",,,,,,0,Instruct,User,-,"You have completed this section. Please press Enter.",Filler_Instruction,Instruct5,742,,,-1,-1,,,,,1
5eff3dd10265064a3cf565d0,myrqe4yz7f,Trevor-ex1,1,273,2020-07-17T10:11:12-07:00,120.58198308945,6,versionA_stim.csv,JOL_H_VersionB.csv,"Highlight vs normal B","Highlight vs normal",,,,,,0,FreeRecall,120,120,"Please list the 50 US states in reverse alphabetical order (z - a). The task will automatically advance to the next screen after two minutes.",,Filler2,120022,"Wyoming Wisconsin West Viriginia Washington Virginia Vermont Utah Texas Tennesse South Dakota South Carl ",0,46128,119526,0,0,,,0.771
