Username,ID,ExperimentName,Session,Trial,Date,TimeDif,"Condition Number","Stimuli File","Order File","Condition Description","Condition Notes",Stimuli*Cue,Stimuli*Answer,Stimuli*Shuffle,"Stimuli*Stimuli Notes",Stimuli*Value,Procedure*Item,"Procedure*Trial Type","Procedure*Max Time","Procedure*Min Time",Procedure*Text,"Procedure*Procedure Notes",Procedure*Shuffle,Response*RT,Response*Response,Response*Accuracy,Response*RTfirst,Response*RTlast,Response*strictAcc,Response*lenientAcc,Response*focus,Response*JOL,Response*Focus
5e928bc7b4f9c10eeee9217b,uqri0simfr,Trevor_EX2,1,1,2020-07-23T14:22:30-07:00,6.1010570526123,1,Pure_Unrelated.csv,JOL_S_VersionA.csv,"Size U A","Size U A",,,,,,0,Instruct,-,5,"In this section, you will be presented with a series of word pairs.",Initial_Instruct,Instruct1,5879,,,-1,-1,,,,,1
5e928bc7b4f9c10eeee9217b,uqri0simfr,Trevor_EX2,1,2,2020-07-23T14:22:40-07:00,10.23385310173,1,Pure_Unrelated.csv,JOL_S_VersionA.csv,"Size U A","Size U A",,,,,,0,Instruct,-,5,"As you study, you will be asked to rate your ability to remember the second item in the pair if you were only shown the first at test. You will make these ratings using a 0 to 100 Scale.",,Instruct13,9044,,,-1,-1,,,,,1
5e928bc7b4f9c10eeee9217b,uqri0simfr,Trevor_EX2,1,3,2020-07-23T14:22:52-07:00,11.648414850235,1,Pure_Unrelated.csv,JOL_S_VersionA.csv,"Size U A","Size U A",,,,,,0,Instruct,-,10,"For example, if you are given the pair CAT - DOG, a rating of 0 indicates that you would not remember DOG at test, while a rating of 100 indicates full certainty that you would remember the word DOG at test.",,Instruct14,10359,,,-1,-1,,,,,1
5e928bc7b4f9c10eeee9217b,uqri0simfr,Trevor_EX2,1,4,2020-07-23T14:23:03-07:00,11.474804162979,1,Pure_Unrelated.csv,JOL_S_VersionA.csv,"Size U A","Size U A",,,,,,0,Instruct,-,10,"When making your ratings, it is criticial that you use the full range of the scale. You will be disqualified for only giving ratings of 0 or 100! After making your rating, press Enter to advance to the next pair.",,Instruct15,10933,,,-1,-1,,,,,1
5e928bc7b4f9c10eeee9217b,uqri0simfr,Trevor_EX2,1,5,2020-07-23T14:25:24-07:00,141.03626179695,1,Pure_Unrelated.csv,JOL_S_VersionA.csv,"Size U A","Size U A",,,,,,0,Instruct,User,-,"You will now begin the study. Press Enter when you are ready to begin.",,Instruct16,140624,,,-1,-1,,,,,1
5e928bc7b4f9c10eeee9217b,uqri0simfr,Trevor_EX2,1,6,2020-07-23T14:25:32-07:00,7.6334660053253,1,Pure_Unrelated.csv,JOL_S_VersionA.csv,"Size U A","Size U A",SCARE,HIDE,BUFFER1,Buffer,4,3,JOL_Small,User,-,"How likely are you to correctly recall the second item in the pair?|Type your response on a scale from 0-100 and then press Enter.",Study/JOL,BUFFER,7257,,,5431,5490,,,,80,1
5e928bc7b4f9c10eeee9217b,uqri0simfr,Trevor_EX2,1,7,2020-07-23T14:25:39-07:00,7.5560600757599,1,Pure_Unrelated.csv,JOL_S_VersionA.csv,"Size U A","Size U A",SPACE,JAM,BUFFER1,Buffer,5,4,JOL_Small,User,-,"How likely are you to correctly recall the second item in the pair?|Type your response on a scale from 0-100 and then press Enter.",Study/JOL,BUFFER,7174,,,6704,6883,,,,70,1
5e928bc7b4f9c10eeee9217b,uqri0simfr,Trevor_EX2,1,8,2020-07-23T14:25:43-07:00,3.1958351135254,1,Pure_Unrelated.csv,JOL_S_VersionA.csv,"Size U A","Size U A",BASEBALL,CATCHER,BUFFER1,Buffer,2,2,JOL_Small,User,-,"How likely are you to correctly recall the second item in the pair?|Type your response on a scale from 0-100 and then press Enter.",Study/JOL,BUFFER,2857,,,2197,2549,,,,40,1
5e928bc7b4f9c10eeee9217b,uqri0simfr,Trevor_EX2,1,9,2020-07-23T14:25:50-07:00,7.5572328567505,1,Pure_Unrelated.csv,JOL_S_VersionA.csv,"Size U A","Size U A",PEANUT,BUTTER,BUFFER1,Buffer,3,6,JOL_Large,User,-,"How likely are you to correctly recall the second item in the pair?|Type your response on a scale from 0-100 and then press Enter.",Study/JOL,BUFFER,7281,,,6815,6903,,,,45,1
5e928bc7b4f9c10eeee9217b,uqri0simfr,Trevor_EX2,1,10,2020-07-23T14:25:53-07:00,3.045333147049,1,Pure_Unrelated.csv,JOL_S_VersionA.csv,"Size U A","Size U A",TREES,GREEN,BUFFER1,Buffer,1,5,JOL_Large,User,-,"How likely are you to correctly recall the second item in the pair?|Type your response on a scale from 0-100 and then press Enter.",Study/JOL,BUFFER,2675,,,1880,2122,,,,60,1
5e928bc7b4f9c10eeee9217b,uqri0simfr,Trevor_EX2,1,11,2020-07-23T14:26:01-07:00,8.2439098358154,1,Pure_Unrelated.csv,JOL_S_VersionA.csv,"Size U A","Size U A",VEHICLE,CHARM,Study1,U,10,36,JOL_Small,User,-,"How likely are you to correctly recall the second item in the pair?|Type your response on a scale from 0-100 and then press Enter.",Study/JOL,"Study Phase",7969,,,7218,7327,,,,80,1
5e928bc7b4f9c10eeee9217b,uqri0simfr,Trevor_EX2,1,12,2020-07-23T14:26:05-07:00,3.1264040470123,1,Pure_Unrelated.csv,JOL_S_VersionA.csv,"Size U A","Size U A",DONKEY,LUSH,Study1,U,84,38,JOL_Small,User,-,"How likely are you to correctly recall the second item in the pair?|Type your response on a scale from 0-100 and then press Enter.",Study/JOL,"Study Phase",2858,,,2240,2593,,,,20,1
5e928bc7b4f9c10eeee9217b,uqri0simfr,Trevor_EX2,1,13,2020-07-23T14:26:08-07:00,3.3779799938202,1,Pure_Unrelated.csv,JOL_S_VersionA.csv,"Size U A","Size U A",MAIN,SCAR,Study1,U,25,13,JOL_Large,User,-,"How likely are you to correctly recall the second item in the pair?|Type your response on a scale from 0-100 and then press Enter.",Study/JOL,"Study Phase",3089,,,2387,2781,,,,40,1
5e928bc7b4f9c10eeee9217b,uqri0simfr,Trevor_EX2,1,14,2020-07-23T14:26:11-07:00,2.7041771411896,1,Pure_Unrelated.csv,JOL_S_VersionA.csv,"Size U A","Size U A",CRAYON,RATE,Study1,U,79,45,JOL_Small,User,-,"How likely are you to correctly recall the second item in the pair?|Type your response on a scale from 0-100 and then press Enter.",Study/JOL,"Study Phase",2380,,,1742,2093,,,,40,1
5e928bc7b4f9c10eeee9217b,uqri0simfr,Trevor_EX2,1,15,2020-07-23T14:26:14-07:00,3.3113927841187,1,Pure_Unrelated.csv,JOL_S_VersionA.csv,"Size U A","Size U A",MAZE,ELECTION,Study1,U,9,39,JOL_Small,User,-,"How likely are you to correctly recall the second item in the pair?|Type your response on a scale from 0-100 and then press Enter.",Study/JOL,"Study Phase",2961,,,2300,2454,,,,12,1
5e928bc7b4f9c10eeee9217b,uqri0simfr,Trevor_EX2,1,16,2020-07-23T14:26:18-07:00,3.6145040988922,1,Pure_Unrelated.csv,JOL_S_VersionA.csv,"Size U A","Size U A",STRESS,YAM,Study1,U,68,17,JOL_Large,User,-,"How likely are you to correctly recall the second item in the pair?|Type your response on a scale from 0-100 and then press Enter.",Study/JOL,"Study Phase",3293,,,2499,2565,,,,32,1
5e928bc7b4f9c10eeee9217b,uqri0simfr,Trevor_EX2,1,17,2020-07-23T14:26:22-07:00,4.3921530246735,1,Pure_Unrelated.csv,JOL_S_VersionA.csv,"Size U A","Size U A",MOAT,CLEAR,Study1,U,19,31,JOL_Small,User,-,"How likely are you to correctly recall the second item in the pair?|Type your response on a scale from 0-100 and then press Enter.",Study/JOL,"Study Phase",4140,,,1889,1934,,,,34,1
5e928bc7b4f9c10eeee9217b,uqri0simfr,Trevor_EX2,1,18,2020-07-23T14:26:25-07:00,3.1491219997406,1,Pure_Unrelated.csv,JOL_S_VersionA.csv,"Size U A","Size U A",BOTH,OUNCE,Study1,U,22,15,JOL_Large,User,-,"How likely are you to correctly recall the second item in the pair?|Type your response on a scale from 0-100 and then press Enter.",Study/JOL,"Study Phase",2779,,,2051,2097,,,,54,1
5e928bc7b4f9c10eeee9217b,uqri0simfr,Trevor_EX2,1,19,2020-07-23T14:26:29-07:00,4.0170669555664,1,Pure_Unrelated.csv,JOL_S_VersionA.csv,"Size U A","Size U A",THICK,CONTEST,Study1,U,73,14,JOL_Large,User,-,"How likely are you to correctly recall the second item in the pair?|Type your response on a scale from 0-100 and then press Enter.",Study/JOL,"Study Phase",3651,,,1359,3254,,,,45,1
5e928bc7b4f9c10eeee9217b,uqri0simfr,Trevor_EX2,1,20,2020-07-23T14:26:32-07:00,2.6837530136108,1,Pure_Unrelated.csv,JOL_S_VersionA.csv,"Size U A","Size U A",TAX,OWL,Study1,U,72,34,JOL_Small,User,-,"How likely are you to correctly recall the second item in the pair?|Type your response on a scale from 0-100 and then press Enter.",Study/JOL,"Study Phase",2387,,,1574,1615,,,,65,1
5e928bc7b4f9c10eeee9217b,uqri0simfr,Trevor_EX2,1,21,2020-07-23T14:26:37-07:00,5.6302490234375,1,Pure_Unrelated.csv,JOL_S_VersionA.csv,"Size U A","Size U A",JUSTICE,MAROON,Study1,U,6,20,JOL_Large,User,-,"How likely are you to correctly recall the second item in the pair?|Type your response on a scale from 0-100 and then press Enter.",Study/JOL,"Study Phase",5278,,,1578,4928,,,,74,1
5e928bc7b4f9c10eeee9217b,uqri0simfr,Trevor_EX2,1,22,2020-07-23T14:26:41-07:00,3.3386249542236,1,Pure_Unrelated.csv,JOL_S_VersionA.csv,"Size U A","Size U A",FUTURE,SINCERE,Study1,U,70,46,JOL_Small,User,-,"How likely are you to correctly recall the second item in the pair?|Type your response on a scale from 0-100 and then press Enter.",Study/JOL,"Study Phase",3030,,,2656,2774,,,,79,1
5e928bc7b4f9c10eeee9217b,uqri0simfr,Trevor_EX2,1,23,2020-07-23T14:26:44-07:00,3.0378620624542,1,Pure_Unrelated.csv,JOL_S_VersionA.csv,"Size U A","Size U A",LOAN,SIGN,Study1,U,21,25,JOL_Large,User,-,"How likely are you to correctly recall the second item in the pair?|Type your response on a scale from 0-100 and then press Enter.",Study/JOL,"Study Phase",2774,,,1644,1802,,,,34,1
5e928bc7b4f9c10eeee9217b,uqri0simfr,Trevor_EX2,1,24,2020-07-23T14:26:47-07:00,2.6957650184631,1,Pure_Unrelated.csv,JOL_S_VersionA.csv,"Size U A","Size U A",INFLATE,DISGUST,Study1,U,76,35,JOL_Small,User,-,"How likely are you to correctly recall the second item in the pair?|Type your response on a scale from 0-100 and then press Enter.",Study/JOL,"Study Phase",2344,,,1726,1862,,,,56,1
5e928bc7b4f9c10eeee9217b,uqri0simfr,Trevor_EX2,1,25,2020-07-23T14:26:51-07:00,4.6747460365295,1,Pure_Unrelated.csv,JOL_S_VersionA.csv,"Size U A","Size U A",CAKE,CLOTHES,Study1,U,16,24,JOL_Large,User,-,"How likely are you to correctly recall the second item in the pair?|Type your response on a scale from 0-100 and then press Enter.",Study/JOL,"Study Phase",4410,,,1058,3923,,,,62,1
5e928bc7b4f9c10eeee9217b,uqri0simfr,Trevor_EX2,1,26,2020-07-23T14:26:55-07:00,4.238273859024,1,Pure_Unrelated.csv,JOL_S_VersionA.csv,"Size U A","Size U A",BAT,SHAKY,Study1,U,66,27,JOL_Small,User,-,"How likely are you to correctly recall the second item in the pair?|Type your response on a scale from 0-100 and then press Enter.",Study/JOL,"Study Phase",3859,,,2383,3177,,,,48,1
5e928bc7b4f9c10eeee9217b,uqri0simfr,Trevor_EX2,1,27,2020-07-23T14:26:59-07:00,3.7642450332642,1,Pure_Unrelated.csv,JOL_S_VersionA.csv,"Size U A","Size U A",NUMBER,HARD,Study1,U,78,7,JOL_Large,User,-,"How likely are you to correctly recall the second item in the pair?|Type your response on a scale from 0-100 and then press Enter.",Study/JOL,"Study Phase",2602,,,1631,1676,,,,64,1
5e928bc7b4f9c10eeee9217b,uqri0simfr,Trevor_EX2,1,28,2020-07-23T14:27:04-07:00,4.5778279304504,1,Pure_Unrelated.csv,JOL_S_VersionA.csv,"Size U A","Size U A",NAME,HATE,Study1,U,17,29,JOL_Small,User,-,"How likely are you to correctly recall the second item in the pair?|Type your response on a scale from 0-100 and then press Enter.",Study/JOL,"Study Phase",4298,,,1283,3879,,,,41,1
5e928bc7b4f9c10eeee9217b,uqri0simfr,Trevor_EX2,1,29,2020-07-23T14:27:09-07:00,4.7878150939941,1,Pure_Unrelated.csv,JOL_S_VersionA.csv,"Size U A","Size U A",GRIND,STAND,Study1,U,85,10,JOL_Large,User,-,"How likely are you to correctly recall the second item in the pair?|Type your response on a scale from 0-100 and then press Enter.",Study/JOL,"Study Phase",4453,,,834,3611,,,,78,1
5e928bc7b4f9c10eeee9217b,uqri0simfr,Trevor_EX2,1,30,2020-07-23T14:27:12-07:00,3.1293768882751,1,Pure_Unrelated.csv,JOL_S_VersionA.csv,"Size U A","Size U A",DIZZY,SWEATER,Study1,U,77,28,JOL_Small,User,-,"How likely are you to correctly recall the second item in the pair?|Type your response on a scale from 0-100 and then press Enter.",Study/JOL,"Study Phase",2801,,,2272,2316,,,,32,1
5e928bc7b4f9c10eeee9217b,uqri0simfr,Trevor_EX2,1,31,2020-07-23T14:27:15-07:00,2.9748492240906,1,Pure_Unrelated.csv,JOL_S_VersionA.csv,"Size U A","Size U A",PARCEL,THROAT,Study1,U,67,16,JOL_Large,User,-,"How likely are you to correctly recall the second item in the pair?|Type your response on a scale from 0-100 and then press Enter.",Study/JOL,"Study Phase",2627,,,1876,1941,,,,56,1
5e928bc7b4f9c10eeee9217b,uqri0simfr,Trevor_EX2,1,32,2020-07-23T14:27:20-07:00,5.2826149463654,1,Pure_Unrelated.csv,JOL_S_VersionA.csv,"Size U A","Size U A",SHELL,SHAKE,Study1,U,13,11,JOL_Large,User,-,"How likely are you to correctly recall the second item in the pair?|Type your response on a scale from 0-100 and then press Enter.",Study/JOL,"Study Phase",4919,,,2080,4105,,,,42,1
5e928bc7b4f9c10eeee9217b,uqri0simfr,Trevor_EX2,1,33,2020-07-23T14:27:24-07:00,3.6370120048523,1,Pure_Unrelated.csv,JOL_S_VersionA.csv,"Size U A","Size U A",DEGREE,CHAIR,Study1,U,71,33,JOL_Small,User,-,"How likely are you to correctly recall the second item in the pair?|Type your response on a scale from 0-100 and then press Enter.",Study/JOL,"Study Phase",3355,,,1812,2736,,,,18,1
5e928bc7b4f9c10eeee9217b,uqri0simfr,Trevor_EX2,1,34,2020-07-23T14:27:27-07:00,2.9740009307861,1,Pure_Unrelated.csv,JOL_S_VersionA.csv,"Size U A","Size U A",STRETCH,CLOTH,Study1,U,7,43,JOL_Small,User,-,"How likely are you to correctly recall the second item in the pair?|Type your response on a scale from 0-100 and then press Enter.",Study/JOL,"Study Phase",2646,,,1061,2184,,,,14,1
5e928bc7b4f9c10eeee9217b,uqri0simfr,Trevor_EX2,1,35,2020-07-23T14:27:30-07:00,3.146378993988,1,Pure_Unrelated.csv,JOL_S_VersionA.csv,"Size U A","Size U A",KEYS,JOKE,Study1,U,15,41,JOL_Small,User,-,"How likely are you to correctly recall the second item in the pair?|Type your response on a scale from 0-100 and then press Enter.",Study/JOL,"Study Phase",2791,,,2219,2219,,,,6,1
5e928bc7b4f9c10eeee9217b,uqri0simfr,Trevor_EX2,1,36,2020-07-23T14:27:32-07:00,1.9103391170502,1,Pure_Unrelated.csv,JOL_S_VersionA.csv,"Size U A","Size U A",GIVE,STEAK,Study1,U,8,30,JOL_Small,User,-,"How likely are you to correctly recall the second item in the pair?|Type your response on a scale from 0-100 and then press Enter.",Study/JOL,"Study Phase",1566,,,1083,1148,,,,67,1
5e928bc7b4f9c10eeee9217b,uqri0simfr,Trevor_EX2,1,37,2020-07-23T14:27:34-07:00,1.9718108177185,1,Pure_Unrelated.csv,JOL_S_VersionA.csv,"Size U A","Size U A",BROAD,INFECT,Study1,U,75,26,JOL_Large,User,-,"How likely are you to correctly recall the second item in the pair?|Type your response on a scale from 0-100 and then press Enter.",Study/JOL,"Study Phase",1805,,,878,1054,,,,63,1
5e928bc7b4f9c10eeee9217b,uqri0simfr,Trevor_EX2,1,38,2020-07-23T14:27:36-07:00,1.9353501796722,1,Pure_Unrelated.csv,JOL_S_VersionA.csv,"Size U A","Size U A",TEMPERATURE,MORNING,Study1,U,23,32,JOL_Small,User,-,"How likely are you to correctly recall the second item in the pair?|Type your response on a scale from 0-100 and then press Enter.",Study/JOL,"Study Phase",1703,,,469,930,,,,52,1
5e928bc7b4f9c10eeee9217b,uqri0simfr,Trevor_EX2,1,39,2020-07-23T14:27:38-07:00,2.2674748897552,1,Pure_Unrelated.csv,JOL_S_VersionA.csv,"Size U A","Size U A",ROSE,NEGLECT,Study1,U,82,18,JOL_Large,User,-,"How likely are you to correctly recall the second item in the pair?|Type your response on a scale from 0-100 and then press Enter.",Study/JOL,"Study Phase",2061,,,630,762,,,,43,1
5e928bc7b4f9c10eeee9217b,uqri0simfr,Trevor_EX2,1,40,2020-07-23T14:27:42-07:00,4.3689188957214,1,Pure_Unrelated.csv,JOL_S_VersionA.csv,"Size U A","Size U A",LISTEN,FICTION,Study1,U,14,22,JOL_Large,User,-,"How likely are you to correctly recall the second item in the pair?|Type your response on a scale from 0-100 and then press Enter.",Study/JOL,"Study Phase",4050,,,1077,3406,,,,53,1
5e928bc7b4f9c10eeee9217b,uqri0simfr,Trevor_EX2,1,41,2020-07-23T14:27:47-07:00,4.712128162384,1,Pure_Unrelated.csv,JOL_S_VersionA.csv,"Size U A","Size U A",RIPE,VERIFY,Study1,U,83,44,JOL_Small,User,-,"How likely are you to correctly recall the second item in the pair?|Type your response on a scale from 0-100 and then press Enter.",Study/JOL,"Study Phase",4389,,,1702,4085,,,,20,1
5e928bc7b4f9c10eeee9217b,uqri0simfr,Trevor_EX2,1,42,2020-07-23T14:27:49-07:00,2.2981128692627,1,Pure_Unrelated.csv,JOL_S_VersionA.csv,"Size U A","Size U A",DIFFICULT,POOR,Study1,U,81,9,JOL_Large,User,-,"How likely are you to correctly recall the second item in the pair?|Type your response on a scale from 0-100 and then press Enter.",Study/JOL,"Study Phase",2048,,,1405,1764,,,,40,1
5e928bc7b4f9c10eeee9217b,uqri0simfr,Trevor_EX2,1,43,2020-07-23T14:27:53-07:00,3.725368976593,1,Pure_Unrelated.csv,JOL_S_VersionA.csv,"Size U A","Size U A",LEASE,TOIL,Study1,U,20,23,JOL_Large,User,-,"How likely are you to correctly recall the second item in the pair?|Type your response on a scale from 0-100 and then press Enter.",Study/JOL,"Study Phase",3439,,,2007,3130,,,,19,1
5e928bc7b4f9c10eeee9217b,uqri0simfr,Trevor_EX2,1,44,2020-07-23T14:27:56-07:00,3.5412640571594,1,Pure_Unrelated.csv,JOL_S_VersionA.csv,"Size U A","Size U A",PET,MOON,Study1,U,74,37,JOL_Small,User,-,"How likely are you to correctly recall the second item in the pair?|Type your response on a scale from 0-100 and then press Enter.",Study/JOL,"Study Phase",3172,,,660,2619,,,,52,1
5e928bc7b4f9c10eeee9217b,uqri0simfr,Trevor_EX2,1,45,2020-07-23T14:27:59-07:00,2.1613459587097,1,Pure_Unrelated.csv,JOL_S_VersionA.csv,"Size U A","Size U A",RESIST,GLUE,Study1,U,69,42,JOL_Small,User,-,"How likely are you to correctly recall the second item in the pair?|Type your response on a scale from 0-100 and then press Enter.",Study/JOL,"Study Phase",1775,,,1099,1334,,,,24,1
5e928bc7b4f9c10eeee9217b,uqri0simfr,Trevor_EX2,1,46,2020-07-23T14:28:01-07:00,2.313686132431,1,Pure_Unrelated.csv,JOL_S_VersionA.csv,"Size U A","Size U A",MIRROR,CHILDREN,Study1,U,24,21,JOL_Large,User,-,"How likely are you to correctly recall the second item in the pair?|Type your response on a scale from 0-100 and then press Enter.",Study/JOL,"Study Phase",2054,,,1190,1542,,,,52,1
5e928bc7b4f9c10eeee9217b,uqri0simfr,Trevor_EX2,1,47,2020-07-23T14:28:07-07:00,5.9582748413086,1,Pure_Unrelated.csv,JOL_S_VersionA.csv,"Size U A","Size U A",MEAT,OBTAIN,Study1,U,11,19,JOL_Large,User,-,"How likely are you to correctly recall the second item in the pair?|Type your response on a scale from 0-100 and then press Enter.",Study/JOL,"Study Phase",5676,,,2229,2602,,,,35,1
5e928bc7b4f9c10eeee9217b,uqri0simfr,Trevor_EX2,1,48,2020-07-23T14:28:12-07:00,4.6847801208496,1,Pure_Unrelated.csv,JOL_S_VersionA.csv,"Size U A","Size U A",CRACKLE,ABLE,Study1,U,12,12,JOL_Large,User,-,"How likely are you to correctly recall the second item in the pair?|Type your response on a scale from 0-100 and then press Enter.",Study/JOL,"Study Phase",4368,,,1168,2711,,,,31,1
5e928bc7b4f9c10eeee9217b,uqri0simfr,Trevor_EX2,1,49,2020-07-23T14:28:15-07:00,3.3898980617523,1,Pure_Unrelated.csv,JOL_S_VersionA.csv,"Size U A","Size U A",WARN,SEA,Study1,U,80,40,JOL_Small,User,-,"How likely are you to correctly recall the second item in the pair?|Type your response on a scale from 0-100 and then press Enter.",Study/JOL,"Study Phase",3112,,,1682,2076,,,,15,1
5e928bc7b4f9c10eeee9217b,uqri0simfr,Trevor_EX2,1,50,2020-07-23T14:28:17-07:00,2.4930770397186,1,Pure_Unrelated.csv,JOL_S_VersionA.csv,"Size U A","Size U A",FUZZY,BANG,Study1,U,18,8,JOL_Large,User,-,"How likely are you to correctly recall the second item in the pair?|Type your response on a scale from 0-100 and then press Enter.",Study/JOL,"Study Phase",2187,,,1200,1531,,,,42,1
5e928bc7b4f9c10eeee9217b,uqri0simfr,Trevor_EX2,1,51,2020-07-23T14:28:20-07:00,2.292172908783,1,Pure_Unrelated.csv,JOL_S_VersionA.csv,"Size U A","Size U A",MALT,CHOCOLATE,BUFFER2,Buffer,88,51,JOL_Large,User,-,"How likely are you to correctly recall the second item in the pair?|Type your response on a scale from 0-100 and then press Enter.",Study/JOL,BUFFER2,2024,,,1054,1516,,,,43,1
5e928bc7b4f9c10eeee9217b,uqri0simfr,Trevor_EX2,1,52,2020-07-23T14:28:24-07:00,3.9905769824982,1,Pure_Unrelated.csv,JOL_S_VersionA.csv,"Size U A","Size U A",SHERRIF,POLICE,BUFFER2,Buffer,87,48,JOL_Large,User,-,"How likely are you to correctly recall the second item in the pair?|Type your response on a scale from 0-100 and then press Enter.",Study/JOL,BUFFER2,3687,,,1195,1261,,,,31,1
5e928bc7b4f9c10eeee9217b,uqri0simfr,Trevor_EX2,1,53,2020-07-23T14:28:28-07:00,4.4070959091187,1,Pure_Unrelated.csv,JOL_S_VersionA.csv,"Size U A","Size U A",MOON,SPACE,BUFFER2,Buffer,89,50,JOL_Small,User,-,"How likely are you to correctly recall the second item in the pair?|Type your response on a scale from 0-100 and then press Enter.",Study/JOL,BUFFER2,4193,,,3246,3312,,,,43,1
5e928bc7b4f9c10eeee9217b,uqri0simfr,Trevor_EX2,1,54,2020-07-23T14:28:31-07:00,2.9787881374359,1,Pure_Unrelated.csv,JOL_S_VersionA.csv,"Size U A","Size U A",GEESE,GOOSE,BUFFER2,Buffer,86,49,JOL_Small,User,-,"How likely are you to correctly recall the second item in the pair?|Type your response on a scale from 0-100 and then press Enter.",Study/JOL,BUFFER2,2612,,,1683,1727,,,,32,1
5e928bc7b4f9c10eeee9217b,uqri0simfr,Trevor_EX2,1,55,2020-07-23T14:28:34-07:00,3.0579378604889,1,Pure_Unrelated.csv,JOL_S_VersionA.csv,"Size U A","Size U A",THING,STUFF,BUFFER2,Buffer,90,47,JOL_Large,User,-,"How likely are you to correctly recall the second item in the pair?|Type your response on a scale from 0-100 and then press Enter.",Study/JOL,BUFFER2,2860,,,2117,2595,,,,40,1
5e928bc7b4f9c10eeee9217b,uqri0simfr,Trevor_EX2,1,56,2020-07-23T14:28:36-07:00,1.6474561691284,1,Pure_Unrelated.csv,JOL_S_VersionA.csv,"Size U A","Size U A",,,,,,0,Instruct,User,-,"You have completed this section. Please press Enter.",Filler_Instruction,Instruct2,1490,,,-1,-1,,,,,1
5e928bc7b4f9c10eeee9217b,uqri0simfr,Trevor_EX2,1,57,2020-07-23T14:30:36-07:00,120.27129101753,1,Pure_Unrelated.csv,JOL_S_VersionA.csv,"Size U A","Size U A",,,,,,0,FreeRecall,120,120,"Please list the 50 US states in alphabetical order. The task will automatically advance to the next screen after two minutes.",,Filler1,120001,"Alabama Alaska Arizona Arkansas California Colorado Connecticut Delaware Florida Georgia Hawaii",0,5461,114100,0,0,,,0.938
5e928bc7b4f9c10eeee9217b,uqri0simfr,Trevor_EX2,1,58,2020-07-23T14:30:53-07:00,17.316898822784,1,Pure_Unrelated.csv,JOL_S_VersionA.csv,"Size U A","Size U A",,,,,,0,Instruct,-,10,"You will now be presented with the first word from each of the previously studied item pairs. Please type the missing word. If you do not know the word, you may guess or press Enter to skip forward to the next pair.",,Instruct3,17125,,,-1,-1,,,,,1
5e928bc7b4f9c10eeee9217b,uqri0simfr,Trevor_EX2,1,59,2020-07-23T14:30:57-07:00,3.9752850532532,1,Pure_Unrelated.csv,JOL_S_VersionA.csv,"Size U A","Size U A",TAX,OWL,Study1,U,72,34,Test,User,-,,Recall,Recall1,3596,,0,-1,-1,0,0,,,1
5e928bc7b4f9c10eeee9217b,uqri0simfr,Trevor_EX2,1,60,2020-07-23T14:30:59-07:00,1.3574979305267,1,Pure_Unrelated.csv,JOL_S_VersionA.csv,"Size U A","Size U A",RIPE,VERIFY,Study1,U,83,44,Test,User,-,,Recall,Recall1,1007,,0,-1,-1,0,0,,,1
5e928bc7b4f9c10eeee9217b,uqri0simfr,Trevor_EX2,1,61,2020-07-23T14:31:01-07:00,2.6412551403046,1,Pure_Unrelated.csv,JOL_S_VersionA.csv,"Size U A","Size U A",LISTEN,FICTION,Study1,U,14,22,Test,User,-,,Recall,Recall1,1470,,0,-1,-1,0,0,,,1
5e928bc7b4f9c10eeee9217b,uqri0simfr,Trevor_EX2,1,62,2020-07-23T14:31:02-07:00,0.73108386993408,1,Pure_Unrelated.csv,JOL_S_VersionA.csv,"Size U A","Size U A",KEYS,JOKE,Study1,U,15,41,Test,User,-,,Recall,Recall1,412,,0,-1,-1,0,0,,,1
5e928bc7b4f9c10eeee9217b,uqri0simfr,Trevor_EX2,1,63,2020-07-23T14:31:03-07:00,0.80792307853699,1,Pure_Unrelated.csv,JOL_S_VersionA.csv,"Size U A","Size U A",DIZZY,SWEATER,Study1,U,77,28,Test,User,-,,Recall,Recall1,649,,0,-1,-1,0,0,,,1
5e928bc7b4f9c10eeee9217b,uqri0simfr,Trevor_EX2,1,64,2020-07-23T14:31:04-07:00,0.9492609500885,1,Pure_Unrelated.csv,JOL_S_VersionA.csv,"Size U A","Size U A",CRAYON,RATE,Study1,U,79,45,Test,User,-,,Recall,Recall1,757,,0,-1,-1,0,0,,,1
5e928bc7b4f9c10eeee9217b,uqri0simfr,Trevor_EX2,1,65,2020-07-23T14:31:07-07:00,2.8093161582947,1,Pure_Unrelated.csv,JOL_S_VersionA.csv,"Size U A","Size U A",NUMBER,HARD,Study1,U,78,7,Test,User,-,,Recall,Recall1,2642,,0,-1,-1,0,0,,,1
5e928bc7b4f9c10eeee9217b,uqri0simfr,Trevor_EX2,1,66,2020-07-23T14:31:10-07:00,3.7261698246002,1,Pure_Unrelated.csv,JOL_S_VersionA.csv,"Size U A","Size U A",WARN,SEA,Study1,U,80,40,Test,User,-,,Recall,Recall1,3379,Stop,28.571428571429,2232,2739,0,0,,,1
5e928bc7b4f9c10eeee9217b,uqri0simfr,Trevor_EX2,1,67,2020-07-23T14:31:16-07:00,5.3476631641388,1,Pure_Unrelated.csv,JOL_S_VersionA.csv,"Size U A","Size U A",BAT,SHAKY,Study1,U,66,27,Test,User,-,,Recall,Recall1,5046,Catcher,16.666666666667,2202,4826,0,0,,,1
5e928bc7b4f9c10eeee9217b,uqri0simfr,Trevor_EX2,1,68,2020-07-23T14:31:17-07:00,0.98821187019348,1,Pure_Unrelated.csv,JOL_S_VersionA.csv,"Size U A","Size U A",RESIST,GLUE,Study1,U,69,42,Test,User,-,,Recall,Recall1,712,,0,-1,-1,0,0,,,1
5e928bc7b4f9c10eeee9217b,uqri0simfr,Trevor_EX2,1,69,2020-07-23T14:31:20-07:00,3.5797390937805,1,Pure_Unrelated.csv,JOL_S_VersionA.csv,"Size U A","Size U A",MEAT,OBTAIN,Study1,U,11,19,Test,User,-,,Recall,Recall1,3402,Steak,36.363636363636,2407,3091,0,0,,,1
5e928bc7b4f9c10eeee9217b,uqri0simfr,Trevor_EX2,1,70,2020-07-23T14:31:22-07:00,1.8287270069122,1,Pure_Unrelated.csv,JOL_S_VersionA.csv,"Size U A","Size U A",PARCEL,THROAT,Study1,U,67,16,Test,User,-,,Recall,Recall1,1473,,0,-1,-1,0,0,,,1
5e928bc7b4f9c10eeee9217b,uqri0simfr,Trevor_EX2,1,71,2020-07-23T14:31:23-07:00,0.89979290962219,1,Pure_Unrelated.csv,JOL_S_VersionA.csv,"Size U A","Size U A",LEASE,TOIL,Study1,U,20,23,Test,User,-,,Recall,Recall1,731,,0,-1,-1,0,0,,,1
5e928bc7b4f9c10eeee9217b,uqri0simfr,Trevor_EX2,1,72,2020-07-23T14:31:24-07:00,0.77200412750244,1,Pure_Unrelated.csv,JOL_S_VersionA.csv,"Size U A","Size U A",INFLATE,DISGUST,Study1,U,76,35,Test,User,-,,Recall,Recall1,593,,0,-1,-1,0,0,,,1
5e928bc7b4f9c10eeee9217b,uqri0simfr,Trevor_EX2,1,73,2020-07-23T14:31:26-07:00,1.9099810123444,1,Pure_Unrelated.csv,JOL_S_VersionA.csv,"Size U A","Size U A",BROAD,INFECT,Study1,U,75,26,Test,User,-,,Recall,Recall1,1730,,0,-1,-1,0,0,,,1
5e928bc7b4f9c10eeee9217b,uqri0simfr,Trevor_EX2,1,74,2020-07-23T14:31:28-07:00,2.7256588935852,1,Pure_Unrelated.csv,JOL_S_VersionA.csv,"Size U A","Size U A",FUZZY,BANG,Study1,U,18,8,Test,User,-,,Recall,Recall1,2546,Ball,50,1620,2197,0,0,,,1
5e928bc7b4f9c10eeee9217b,uqri0simfr,Trevor_EX2,1,75,2020-07-23T14:31:31-07:00,2.0700590610504,1,Pure_Unrelated.csv,JOL_S_VersionA.csv,"Size U A","Size U A",DIFFICULT,POOR,Study1,U,81,9,Test,User,-,,Recall,Recall1,1802,,0,-1,-1,0,0,,,1
5e928bc7b4f9c10eeee9217b,uqri0simfr,Trevor_EX2,1,76,2020-07-23T14:31:32-07:00,1.2063658237457,1,Pure_Unrelated.csv,JOL_S_VersionA.csv,"Size U A","Size U A",CAKE,CLOTHES,Study1,U,16,24,Test,User,-,,Recall,Recall1,1039,,0,-1,-1,0,0,,,1
5e928bc7b4f9c10eeee9217b,uqri0simfr,Trevor_EX2,1,77,2020-07-23T14:31:33-07:00,1.031797170639,1,Pure_Unrelated.csv,JOL_S_VersionA.csv,"Size U A","Size U A",GRIND,STAND,Study1,U,85,10,Test,User,-,,Recall,Recall1,856,,0,-1,-1,0,0,,,1
5e928bc7b4f9c10eeee9217b,uqri0simfr,Trevor_EX2,1,78,2020-07-23T14:31:34-07:00,1.5514659881592,1,Pure_Unrelated.csv,JOL_S_VersionA.csv,"Size U A","Size U A",NAME,HATE,Study1,U,17,29,Test,User,-,,Recall,Recall1,1373,,0,-1,-1,0,0,,,1
5e928bc7b4f9c10eeee9217b,uqri0simfr,Trevor_EX2,1,79,2020-07-23T14:31:37-07:00,2.4265260696411,1,Pure_Unrelated.csv,JOL_S_VersionA.csv,"Size U A","Size U A",THICK,CONTEST,Study1,U,73,14,Test,User,-,,Recall,Recall1,2249,,0,-1,-1,0,0,,,1
5e928bc7b4f9c10eeee9217b,uqri0simfr,Trevor_EX2,1,80,2020-07-23T14:31:40-07:00,3.0210039615631,1,Pure_Unrelated.csv,JOL_S_VersionA.csv,"Size U A","Size U A",TEMPERATURE,MORNING,Study1,U,23,32,Test,User,-,,Recall,Recall1,2710,Hot,20,2150,2525,0,0,,,1
5e928bc7b4f9c10eeee9217b,uqri0simfr,Trevor_EX2,1,81,2020-07-23T14:31:44-07:00,4.656457901001,1,Pure_Unrelated.csv,JOL_S_VersionA.csv,"Size U A","Size U A",ROSE,NEGLECT,Study1,U,82,18,Test,User,-,,Recall,Recall1,4347,Flower,30.769230769231,2588,4214,0,0,,,1
5e928bc7b4f9c10eeee9217b,uqri0simfr,Trevor_EX2,1,82,2020-07-23T14:31:46-07:00,1.268639087677,1,Pure_Unrelated.csv,JOL_S_VersionA.csv,"Size U A","Size U A",MAIN,SCAR,Study1,U,25,13,Test,User,-,,Recall,Recall1,986,,0,-1,-1,0,0,,,1
5e928bc7b4f9c10eeee9217b,uqri0simfr,Trevor_EX2,1,83,2020-07-23T14:31:49-07:00,2.9580750465393,1,Pure_Unrelated.csv,JOL_S_VersionA.csv,"Size U A","Size U A",VEHICLE,CHARM,Study1,U,10,36,Test,User,-,,Recall,Recall1,2628,Car,75,2167,2562,0,1,,,1
5e928bc7b4f9c10eeee9217b,uqri0simfr,Trevor_EX2,1,84,2020-07-23T14:31:50-07:00,1.4307768344879,1,Pure_Unrelated.csv,JOL_S_VersionA.csv,"Size U A","Size U A",STRETCH,CLOTH,Study1,U,7,43,Test,User,-,,Recall,Recall1,1134,,0,-1,-1,0,0,,,1
5e928bc7b4f9c10eeee9217b,uqri0simfr,Trevor_EX2,1,85,2020-07-23T14:31:53-07:00,3.2549381256104,1,Pure_Unrelated.csv,JOL_S_VersionA.csv,"Size U A","Size U A",PET,MOON,Study1,U,74,37,Test,User,-,,Recall,Recall1,3076,God,28.571428571429,2576,2987,0,0,,,1
5e928bc7b4f9c10eeee9217b,uqri0simfr,Trevor_EX2,1,86,2020-07-23T14:32:00-07:00,6.3315658569336,1,Pure_Unrelated.csv,JOL_S_VersionA.csv,"Size U A","Size U A",SHELL,SHAKE,Study1,U,13,11,Test,User,-,,Recall,Recall1,5947,,0,-1,-1,0,0,,,1
5e928bc7b4f9c10eeee9217b,uqri0simfr,Trevor_EX2,1,87,2020-07-23T14:32:03-07:00,3.3494930267334,1,Pure_Unrelated.csv,JOL_S_VersionA.csv,"Size U A","Size U A",LOAN,SIGN,Study1,U,21,25,Test,User,-,,Recall,Recall1,3030,House,22.222222222222,2259,2857,0,0,,,1
5e928bc7b4f9c10eeee9217b,uqri0simfr,Trevor_EX2,1,88,2020-07-23T14:32:06-07:00,3.1363880634308,1,Pure_Unrelated.csv,JOL_S_VersionA.csv,"Size U A","Size U A",CRACKLE,ABLE,Study1,U,12,12,Test,User,-,,Recall,Recall1,2872,Fire,25,2343,2769,0,0,,,1
5e928bc7b4f9c10eeee9217b,uqri0simfr,Trevor_EX2,1,89,2020-07-23T14:32:11-07:00,5.3070249557495,1,Pure_Unrelated.csv,JOL_S_VersionA.csv,"Size U A","Size U A",JUSTICE,MAROON,Study1,U,6,20,Test,User,-,,Recall,Recall1,5043,Police,16.666666666667,3792,4755,0,0,,,1
5e928bc7b4f9c10eeee9217b,uqri0simfr,Trevor_EX2,1,90,2020-07-23T14:32:14-07:00,2.4760999679565,1,Pure_Unrelated.csv,JOL_S_VersionA.csv,"Size U A","Size U A",FUTURE,SINCERE,Study1,U,70,46,Test,User,-,,Recall,Recall1,2190,,0,-1,-1,0,0,,,1
5e928bc7b4f9c10eeee9217b,uqri0simfr,Trevor_EX2,1,91,2020-07-23T14:32:16-07:00,2.1772420406342,1,Pure_Unrelated.csv,JOL_S_VersionA.csv,"Size U A","Size U A",GIVE,STEAK,Study1,U,8,30,Test,User,-,,Recall,Recall1,1917,,0,-1,-1,0,0,,,1
5e928bc7b4f9c10eeee9217b,uqri0simfr,Trevor_EX2,1,92,2020-07-23T14:32:21-07:00,5.2727460861206,1,Pure_Unrelated.csv,JOL_S_VersionA.csv,"Size U A","Size U A",DONKEY,LUSH,Study1,U,84,38,Test,User,-,,Recall,Recall1,5000,Animal,20,1981,4599,0,0,,,1
5e928bc7b4f9c10eeee9217b,uqri0simfr,Trevor_EX2,1,93,2020-07-23T14:32:23-07:00,1.43452501297,1,Pure_Unrelated.csv,JOL_S_VersionA.csv,"Size U A","Size U A",BOTH,OUNCE,Study1,U,22,15,Test,User,-,,Recall,Recall1,1111,,0,-1,-1,0,0,,,1
5e928bc7b4f9c10eeee9217b,uqri0simfr,Trevor_EX2,1,94,2020-07-23T14:32:24-07:00,1.2205309867859,1,Pure_Unrelated.csv,JOL_S_VersionA.csv,"Size U A","Size U A",MIRROR,CHILDREN,Study1,U,24,21,Test,User,-,,Recall,Recall1,1045,,0,-1,-1,0,0,,,1
5e928bc7b4f9c10eeee9217b,uqri0simfr,Trevor_EX2,1,95,2020-07-23T14:32:25-07:00,1.0203258991241,1,Pure_Unrelated.csv,JOL_S_VersionA.csv,"Size U A","Size U A",MAZE,ELECTION,Study1,U,9,39,Test,User,-,,Recall,Recall1,839,,0,-1,-1,0,0,,,1
5e928bc7b4f9c10eeee9217b,uqri0simfr,Trevor_EX2,1,96,2020-07-23T14:32:26-07:00,1.1872601509094,1,Pure_Unrelated.csv,JOL_S_VersionA.csv,"Size U A","Size U A",STRESS,YAM,Study1,U,68,17,Test,User,-,,Recall,Recall1,1023,,0,-1,-1,0,0,,,1
5e928bc7b4f9c10eeee9217b,uqri0simfr,Trevor_EX2,1,97,2020-07-23T14:32:27-07:00,1.1433568000793,1,Pure_Unrelated.csv,JOL_S_VersionA.csv,"Size U A","Size U A",MOAT,CLEAR,Study1,U,19,31,Test,User,-,,Recall,Recall1,967,,0,-1,-1,0,0,,,1
5e928bc7b4f9c10eeee9217b,uqri0simfr,Trevor_EX2,1,98,2020-07-23T14:32:28-07:00,0.7991681098938,1,Pure_Unrelated.csv,JOL_S_VersionA.csv,"Size U A","Size U A",DEGREE,CHAIR,Study1,U,71,33,Test,User,-,,Recall,Recall1,623,,0,-1,-1,0,0,,,1
5e928bc7b4f9c10eeee9217b,uqri0simfr,Trevor_EX2,1,99,2020-07-23T14:32:40-07:00,12.049428939819,1,Pure_Unrelated.csv,JOL_S_VersionA.csv,"Size U A","Size U A",,,,,,0,Instruct,-,10,"You will now be presented with a new set of word pairs. Please study each pair. Remember that your memory will be tested! When finished, press Enter to move to the next pair.",Initial_Instruct,Instruct4,11883,,,-1,-1,,,,,1
5e928bc7b4f9c10eeee9217b,uqri0simfr,Trevor_EX2,1,100,2020-07-23T14:32:51-07:00,10.896637916565,1,Pure_Unrelated.csv,JOL_S_VersionA.csv,"Size U A","Size U A",,,,,,0,Instruct,,10,"You will again be asked to rate your ability to remember these items using a 0 to 100 scale. Remember to use the full range of the scale!",,Instruct10,10597,,,-1,-1,,,,,1
5e928bc7b4f9c10eeee9217b,uqri0simfr,Trevor_EX2,1,101,2020-07-23T14:32:53-07:00,1.9247651100159,1,Pure_Unrelated.csv,JOL_S_VersionA.csv,"Size U A","Size U A",,,,,,0,Instruct,User,-,"Press Enter when you are readty to begin",,Instruct11,1597,,,-1,-1,,,,,1
5e928bc7b4f9c10eeee9217b,uqri0simfr,Trevor_EX2,1,102,2020-07-23T14:33:17-07:00,23.604608058929,1,Pure_Unrelated.csv,JOL_S_VersionA.csv,"Size U A","Size U A",NOODLE,STRING,BUFFER3,Buffer,92,54,JOL_Small,User,-,"How likely are you to correctly recall the second item in the pair?|Type your response on a scale from 0-100 and then press Enter.",Study/JOL,BUFFER3,23331,,,22215,22286,,,,80,0.267
5e928bc7b4f9c10eeee9217b,uqri0simfr,Trevor_EX2,1,103,2020-07-23T14:33:31-07:00,14.715638875961,1,Pure_Unrelated.csv,JOL_S_VersionA.csv,"Size U A","Size U A",CAMP,ADVENTURE,BUFFER3,Buffer,95,56,JOL_Large,User,-,"How likely are you to correctly recall the second item in the pair?|Type your response on a scale from 0-100 and then press Enter.",Study/JOL,BUFFER3,14373,,,13845,13932,,,,89,0.306
5e928bc7b4f9c10eeee9217b,uqri0simfr,Trevor_EX2,1,104,2020-07-23T14:33:46-07:00,15.101967096329,1,Pure_Unrelated.csv,JOL_S_VersionA.csv,"Size U A","Size U A",CARROT,POTATO,BUFFER3,Buffer,91,52,JOL_Small,User,-,"How likely are you to correctly recall the second item in the pair?|Type your response on a scale from 0-100 and then press Enter.",Study/JOL,BUFFER3,14736,,,14382,14409,,,,90,0.405
5e928bc7b4f9c10eeee9217b,uqri0simfr,Trevor_EX2,1,105,2020-07-23T14:33:59-07:00,12.054287910461,1,Pure_Unrelated.csv,JOL_S_VersionA.csv,"Size U A","Size U A",ICE,FROZEN,BUFFER3,Buffer,94,55,JOL_Large,User,-,"How likely are you to correctly recall the second item in the pair?|Type your response on a scale from 0-100 and then press Enter.",Study/JOL,BUFFER3,11763,,,10554,10844,,,,100,0.339
5e928bc7b4f9c10eeee9217b,uqri0simfr,Trevor_EX2,1,106,2020-07-23T14:34:17-07:00,18.017596960068,1,Pure_Unrelated.csv,JOL_S_VersionA.csv,"Size U A","Size U A",SHRIMP,FISH,BUFFER3,Buffer,93,53,JOL_Small,User,-,"How likely are you to correctly recall the second item in the pair?|Type your response on a scale from 0-100 and then press Enter.",Study/JOL,BUFFER3,17771,,,17222,17485,,,,100,0.236
5e928bc7b4f9c10eeee9217b,uqri0simfr,Trevor_EX2,1,107,2020-07-23T14:34:31-07:00,14.001907110214,1,Pure_Unrelated.csv,JOL_S_VersionA.csv,"Size U A","Size U A",PUT,ROLL,Study2,U,163,86,JOL_Small,User,-,"How likely are you to correctly recall the second item in the pair?|Type your response on a scale from 0-100 and then press Enter.",Study/JOL,"Study Phase2",13744,,,13187,13274,,,,23,0.246
5e928bc7b4f9c10eeee9217b,uqri0simfr,Trevor_EX2,1,108,2020-07-23T14:34:39-07:00,8.0146129131317,1,Pure_Unrelated.csv,JOL_S_VersionA.csv,"Size U A","Size U A",SACKING,DIETARY,Study2,U,97,64,JOL_Large,User,-,"How likely are you to correctly recall the second item in the pair?|Type your response on a scale from 0-100 and then press Enter.",Study/JOL,"Study Phase2",7693,,,2454,5910,,,,3,1
5e928bc7b4f9c10eeee9217b,uqri0simfr,Trevor_EX2,1,109,2020-07-23T14:34:43-07:00,4.696573972702,1,Pure_Unrelated.csv,JOL_S_VersionA.csv,"Size U A","Size U A",SYSTEM,LICK,Study2,U,167,74,JOL_Large,User,-,"How likely are you to correctly recall the second item in the pair?|Type your response on a scale from 0-100 and then press Enter.",Study/JOL,"Study Phase2",4336,,,3369,3369,,,,8,1
5e928bc7b4f9c10eeee9217b,uqri0simfr,Trevor_EX2,1,110,2020-07-23T14:34:49-07:00,5.970831155777,1,Pure_Unrelated.csv,JOL_S_VersionA.csv,"Size U A","Size U A",RIDDLE,SUGAR,Study2,U,111,89,JOL_Small,User,-,"How likely are you to correctly recall the second item in the pair?|Type your response on a scale from 0-100 and then press Enter.",Study/JOL,"Study Phase2",5665,,,4585,4982,,,,15,1
5e928bc7b4f9c10eeee9217b,uqri0simfr,Trevor_EX2,1,111,2020-07-23T14:35:01-07:00,11.45982003212,1,Pure_Unrelated.csv,JOL_S_VersionA.csv,"Size U A","Size U A",CAR,HAPPY,Study2,U,107,80,JOL_Small,User,-,"How likely are you to correctly recall the second item in the pair?|Type your response on a scale from 0-100 and then press Enter.",Study/JOL,"Study Phase2",11127,,,10951,11016,,,,78,0.411
5e928bc7b4f9c10eeee9217b,uqri0simfr,Trevor_EX2,1,112,2020-07-23T14:35:05-07:00,3.9136090278625,1,Pure_Unrelated.csv,JOL_S_VersionA.csv,"Size U A","Size U A",ZOO,THUMB,Study2,U,168,93,JOL_Small,User,-,"How likely are you to correctly recall the second item in the pair?|Type your response on a scale from 0-100 and then press Enter.",Study/JOL,"Study Phase2",3558,,,3249,3249,,,,1,1
5e928bc7b4f9c10eeee9217b,uqri0simfr,Trevor_EX2,1,113,2020-07-23T14:35:35-07:00,30.506663799286,1,Pure_Unrelated.csv,JOL_S_VersionA.csv,"Size U A","Size U A",GUARD,WHEEL,Study2,U,170,81,JOL_Small,User,-,"How likely are you to correctly recall the second item in the pair?|Type your response on a scale from 0-100 and then press Enter.",Study/JOL,"Study Phase2",30245,,,28285,30069,,,,95,0.77
5e928bc7b4f9c10eeee9217b,uqri0simfr,Trevor_EX2,1,114,2020-07-23T14:35:48-07:00,13.049435138702,1,Pure_Unrelated.csv,JOL_S_VersionA.csv,"Size U A","Size U A",FLOOR,DISCOVER,Study2,U,101,92,JOL_Small,User,-,"How likely are you to correctly recall the second item in the pair?|Type your response on a scale from 0-100 and then press Enter.",Study/JOL,"Study Phase2",12703,,,11777,11820,,,,79,0.453
5e928bc7b4f9c10eeee9217b,uqri0simfr,Trevor_EX2,1,115,2020-07-23T14:36:04-07:00,15.610993862152,1,Pure_Unrelated.csv,JOL_S_VersionA.csv,"Size U A","Size U A",SICK,HIDE,Study2,U,114,77,JOL_Small,User,-,"How likely are you to correctly recall the second item in the pair?|Type your response on a scale from 0-100 and then press Enter.",Study/JOL,"Study Phase2",15297,,,15031,15104,,,,80,0.494
5e928bc7b4f9c10eeee9217b,uqri0simfr,Trevor_EX2,1,116,2020-07-23T14:36:10-07:00,6.4714810848236,1,Pure_Unrelated.csv,JOL_S_VersionA.csv,"Size U A","Size U A",BRONZE,ARTERY,Study2,U,104,69,JOL_Large,User,-,"How likely are you to correctly recall the second item in the pair?|Type your response on a scale from 0-100 and then press Enter.",Study/JOL,"Study Phase2",6122,,,5770,5770,,,,0,1
5e928bc7b4f9c10eeee9217b,uqri0simfr,Trevor_EX2,1,117,2020-07-23T14:36:13-07:00,3.06516289711,1,Pure_Unrelated.csv,JOL_S_VersionA.csv,"Size U A","Size U A",READY,CORN,Study2,U,158,61,JOL_Large,User,-,"How likely are you to correctly recall the second item in the pair?|Type your response on a scale from 0-100 and then press Enter.",Study/JOL,"Study Phase2",2779,,,2229,2559,,,,14,1
5e928bc7b4f9c10eeee9217b,uqri0simfr,Trevor_EX2,1,118,2020-07-23T14:36:19-07:00,5.912132024765,1,Pure_Unrelated.csv,JOL_S_VersionA.csv,"Size U A","Size U A",NULL,COUGH,Study2,U,156,87,JOL_Small,User,-,"How likely are you to correctly recall the second item in the pair?|Type your response on a scale from 0-100 and then press Enter.",Study/JOL,"Study Phase2",5549,,,4822,4933,,,,13,1
5e928bc7b4f9c10eeee9217b,uqri0simfr,Trevor_EX2,1,119,2020-07-23T14:36:32-07:00,13.265559196472,1,Pure_Unrelated.csv,JOL_S_VersionA.csv,"Size U A","Size U A",MUTE,WAVE,Study2,U,173,94,JOL_Small,User,-,"How likely are you to correctly recall the second item in the pair?|Type your response on a scale from 0-100 and then press Enter.",Study/JOL,"Study Phase2",12941,,,11822,12792,,,,90,0.569
5e928bc7b4f9c10eeee9217b,uqri0simfr,Trevor_EX2,1,120,2020-07-23T14:36:36-07:00,3.4653158187866,1,Pure_Unrelated.csv,JOL_S_VersionA.csv,"Size U A","Size U A",HAND,FIX,Study2,U,105,57,JOL_Large,User,-,"How likely are you to correctly recall the second item in the pair?|Type your response on a scale from 0-100 and then press Enter.",Study/JOL,"Study Phase2",3159,,,2249,2358,,,,23,1
5e928bc7b4f9c10eeee9217b,uqri0simfr,Trevor_EX2,1,121,2020-07-23T14:36:43-07:00,6.730327129364,1,Pure_Unrelated.csv,JOL_S_VersionA.csv,"Size U A","Size U A",JELLY,NAUGHTY,Study2,U,172,66,JOL_Large,User,-,"How likely are you to correctly recall the second item in the pair?|Type your response on a scale from 0-100 and then press Enter.",Study/JOL,"Study Phase2",6476,,,6387,6387,,,,5,1
5e928bc7b4f9c10eeee9217b,uqri0simfr,Trevor_EX2,1,122,2020-07-23T14:36:47-07:00,4.1554729938507,1,Pure_Unrelated.csv,JOL_S_VersionA.csv,"Size U A","Size U A",CLUTTER,PUSHER,Study2,U,96,59,JOL_Large,User,-,"How likely are you to correctly recall the second item in the pair?|Type your response on a scale from 0-100 and then press Enter.",Study/JOL,"Study Phase2",3808,,,3631,3631,,,,2,1
5e928bc7b4f9c10eeee9217b,uqri0simfr,Trevor_EX2,1,123,2020-07-23T14:36:53-07:00,5.7166118621826,1,Pure_Unrelated.csv,JOL_S_VersionA.csv,"Size U A","Size U A",VASE,KING,Study2,U,115,90,JOL_Small,User,-,"How likely are you to correctly recall the second item in the pair?|Type your response on a scale from 0-100 and then press Enter.",Study/JOL,"Study Phase2",5422,,,4080,5154,,,,10,1
5e928bc7b4f9c10eeee9217b,uqri0simfr,Trevor_EX2,1,124,2020-07-23T14:36:57-07:00,4.6487421989441,1,Pure_Unrelated.csv,JOL_S_VersionA.csv,"Size U A","Size U A",SPELL,BONE,Study2,U,174,85,JOL_Small,User,-,"How likely are you to correctly recall the second item in the pair?|Type your response on a scale from 0-100 and then press Enter.",Study/JOL,"Study Phase2",4346,,,4252,4252,,,,2,1
5e928bc7b4f9c10eeee9217b,uqri0simfr,Trevor_EX2,1,125,2020-07-23T14:37:13-07:00,16.238888978958,1,Pure_Unrelated.csv,JOL_S_VersionA.csv,"Size U A","Size U A",DETECT,FREE,Study2,U,162,88,JOL_Small,User,-,"How likely are you to correctly recall the second item in the pair?|Type your response on a scale from 0-100 and then press Enter.",Study/JOL,"Study Phase2",15939,,,12967,15652,,,,80,0.488
5e928bc7b4f9c10eeee9217b,uqri0simfr,Trevor_EX2,1,126,2020-07-23T14:37:17-07:00,3.8838129043579,1,Pure_Unrelated.csv,JOL_S_VersionA.csv,"Size U A","Size U A",WASTE,SEDATE,Study2,U,165,78,JOL_Small,User,-,"How likely are you to correctly recall the second item in the pair?|Type your response on a scale from 0-100 and then press Enter.",Study/JOL,"Study Phase2",3563,,,3232,3452,,,,12,1
5e928bc7b4f9c10eeee9217b,uqri0simfr,Trevor_EX2,1,127,2020-07-23T14:37:21-07:00,3.564563035965,1,Pure_Unrelated.csv,JOL_S_VersionA.csv,"Size U A","Size U A",WOULD,CASH,Study2,U,113,65,JOL_Large,User,-,"How likely are you to correctly recall the second item in the pair?|Type your response on a scale from 0-100 and then press Enter.",Study/JOL,"Study Phase2",3183,,,3056,3056,,,,8,1
5e928bc7b4f9c10eeee9217b,uqri0simfr,Trevor_EX2,1,128,2020-07-23T14:37:24-07:00,2.7396469116211,1,Pure_Unrelated.csv,JOL_S_VersionA.csv,"Size U A","Size U A",SWING,FOG,Study2,U,175,68,JOL_Large,User,-,"How likely are you to correctly recall the second item in the pair?|Type your response on a scale from 0-100 and then press Enter.",Study/JOL,"Study Phase2",2363,,,2187,2187,,,,3,1
5e928bc7b4f9c10eeee9217b,uqri0simfr,Trevor_EX2,1,129,2020-07-23T14:37:29-07:00,4.9535009860992,1,Pure_Unrelated.csv,JOL_S_VersionA.csv,"Size U A","Size U A",SLIM,KNOW,Study2,U,164,73,JOL_Large,User,-,"How likely are you to correctly recall the second item in the pair?|Type your response on a scale from 0-100 and then press Enter.",Study/JOL,"Study Phase2",4597,,,4293,4332,,,,90,1
5e928bc7b4f9c10eeee9217b,uqri0simfr,Trevor_EX2,1,130,2020-07-23T14:37:39-07:00,10.584629058838,1,Pure_Unrelated.csv,JOL_S_VersionA.csv,"Size U A","Size U A",CLUTTER,PUSHER,Study2,U,96,59,JOL_Large,User,-,"How likely are you to correctly recall the second item in the pair?|Type your response on a scale from 0-100 and then press Enter.",Study/JOL,"Study Phase2",10249,,,9679,9679,,,,5,0.442
5e928bc7b4f9c10eeee9217b,uqri0simfr,Trevor_EX2,1,131,2020-07-23T14:37:54-07:00,14.626126050949,1,Pure_Unrelated.csv,JOL_S_VersionA.csv,"Size U A","Size U A",FLOAT,HARMONY,Study2,U,161,84,JOL_Small,User,-,"How likely are you to correctly recall the second item in the pair?|Type your response on a scale from 0-100 and then press Enter.",Study/JOL,"Study Phase2",14366,,,14168,14257,,,,60,0.431
5e928bc7b4f9c10eeee9217b,uqri0simfr,Trevor_EX2,1,132,2020-07-23T14:37:56-07:00,1.8942639827728,1,Pure_Unrelated.csv,JOL_S_VersionA.csv,"Size U A","Size U A",LION,ART,Study2,U,109,60,JOL_Large,User,-,"How likely are you to correctly recall the second item in the pair?|Type your response on a scale from 0-100 and then press Enter.",Study/JOL,"Study Phase2",1527,,,1417,1417,,,,2,1
5e928bc7b4f9c10eeee9217b,uqri0simfr,Trevor_EX2,1,133,2020-07-23T14:38:01-07:00,5.3519608974457,1,Pure_Unrelated.csv,JOL_S_VersionA.csv,"Size U A","Size U A",Business,Death,Study2,U,102,76,JOL_Large,User,-,"How likely are you to correctly recall the second item in the pair?|Type your response on a scale from 0-100 and then press Enter.",Study/JOL,"Study Phase2",5017,,,4746,4833,,,,13,1
5e928bc7b4f9c10eeee9217b,uqri0simfr,Trevor_EX2,1,134,2020-07-23T14:38:03-07:00,2.4331550598145,1,Pure_Unrelated.csv,JOL_S_VersionA.csv,"Size U A","Size U A",POSITION,MACHINE,Study2,U,106,71,JOL_Large,User,-,"How likely are you to correctly recall the second item in the pair?|Type your response on a scale from 0-100 and then press Enter.",Study/JOL,"Study Phase2",2067,,,1320,1831,,,,15,1
5e928bc7b4f9c10eeee9217b,uqri0simfr,Trevor_EX2,1,135,2020-07-23T14:38:06-07:00,2.674556016922,1,Pure_Unrelated.csv,JOL_S_VersionA.csv,"Size U A","Size U A",LAKE,OPINION,Study2,U,160,75,JOL_Large,User,-,"How likely are you to correctly recall the second item in the pair?|Type your response on a scale from 0-100 and then press Enter.",Study/JOL,"Study Phase2",2412,,,2237,2238,,,,1,1
5e928bc7b4f9c10eeee9217b,uqri0simfr,Trevor_EX2,1,136,2020-07-23T14:38:29-07:00,23.07715511322,1,Pure_Unrelated.csv,JOL_S_VersionA.csv,"Size U A","Size U A",BELT,SOON,Study2,U,100,95,JOL_Small,User,-,"How likely are you to correctly recall the second item in the pair?|Type your response on a scale from 0-100 and then press Enter.",Study/JOL,"Study Phase2",22827,,,17516,22277,,,,32,1
5e928bc7b4f9c10eeee9217b,uqri0simfr,Trevor_EX2,1,137,2020-07-23T14:38:35-07:00,5.8395998477936,1,Pure_Unrelated.csv,JOL_S_VersionA.csv,"Size U A","Size U A",SIGHT,DEBATE,Study2,U,103,79,JOL_Small,User,-,"How likely are you to correctly recall the second item in the pair?|Type your response on a scale from 0-100 and then press Enter.",Study/JOL,"Study Phase2",5534,,,2691,4718,,,,23,1
5e928bc7b4f9c10eeee9217b,uqri0simfr,Trevor_EX2,1,138,2020-07-23T14:38:38-07:00,3.1121420860291,1,Pure_Unrelated.csv,JOL_S_VersionA.csv,"Size U A","Size U A",LEASE,TOIL,Study1,U,20,23,JOL_Small,User,-,"How likely are you to correctly recall the second item in the pair?|Type your response on a scale from 0-100 and then press Enter.",Study/JOL,"Study Phase2",2778,,,2423,2423,,,,1,1
5e928bc7b4f9c10eeee9217b,uqri0simfr,Trevor_EX2,1,139,2020-07-23T14:38:42-07:00,4.1476149559021,1,Pure_Unrelated.csv,JOL_S_VersionA.csv,"Size U A","Size U A",PUFF,NUMBER,Study2,U,171,82,JOL_Small,User,-,"How likely are you to correctly recall the second item in the pair?|Type your response on a scale from 0-100 and then press Enter.",Study/JOL,"Study Phase2",3775,,,2414,3559,,,,10,1
5e928bc7b4f9c10eeee9217b,uqri0simfr,Trevor_EX2,1,140,2020-07-23T14:38:55-07:00,12.337337017059,1,Pure_Unrelated.csv,JOL_S_VersionA.csv,"Size U A","Size U A",SMOOTH,OMIT,Study2,U,157,70,JOL_Large,User,-,"How likely are you to correctly recall the second item in the pair?|Type your response on a scale from 0-100 and then press Enter.",Study/JOL,"Study Phase2",12026,,,11720,11805,,,,70,0.492
5e928bc7b4f9c10eeee9217b,uqri0simfr,Trevor_EX2,1,141,2020-07-23T14:38:57-07:00,2.526743888855,1,Pure_Unrelated.csv,JOL_S_VersionA.csv,"Size U A","Size U A",ROAD,SCENT,Study2,U,166,91,JOL_Small,User,-,"How likely are you to correctly recall the second item in the pair?|Type your response on a scale from 0-100 and then press Enter.",Study/JOL,"Study Phase2",2269,,,1739,1785,,,,34,1
5e928bc7b4f9c10eeee9217b,uqri0simfr,Trevor_EX2,1,142,2020-07-23T14:39:01-07:00,4.2888569831848,1,Pure_Unrelated.csv,JOL_S_VersionA.csv,"Size U A","Size U A",HUNGRY,PARK,Study2,U,98,67,JOL_Large,User,-,"How likely are you to correctly recall the second item in the pair?|Type your response on a scale from 0-100 and then press Enter.",Study/JOL,"Study Phase2",3950,,,3064,3657,,,,21,1
5e928bc7b4f9c10eeee9217b,uqri0simfr,Trevor_EX2,1,143,2020-07-23T14:39:04-07:00,2.5758430957794,1,Pure_Unrelated.csv,JOL_S_VersionA.csv,"Size U A","Size U A",ADD,VALLEY,Study2,U,112,96,JOL_Small,User,-,"How likely are you to correctly recall the second item in the pair?|Type your response on a scale from 0-100 and then press Enter.",Study/JOL,"Study Phase2",2299,,,1895,2010,,,,10,1
5e928bc7b4f9c10eeee9217b,uqri0simfr,Trevor_EX2,1,144,2020-07-23T14:39:08-07:00,4.4070370197296,1,Pure_Unrelated.csv,JOL_S_VersionA.csv,"Size U A","Size U A",WOMAN,LIFT,Study2,U,99,62,JOL_Large,User,-,"How likely are you to correctly recall the second item in the pair?|Type your response on a scale from 0-100 and then press Enter.",Study/JOL,"Study Phase2",4112,,,3900,3900,,,,9,1
5e928bc7b4f9c10eeee9217b,uqri0simfr,Trevor_EX2,1,145,2020-07-23T14:39:10-07:00,2.005047082901,1,Pure_Unrelated.csv,JOL_S_VersionA.csv,"Size U A","Size U A",TUCK,ALLOW,Study2,U,108,63,JOL_Large,User,-,"How likely are you to correctly recall the second item in the pair?|Type your response on a scale from 0-100 and then press Enter.",Study/JOL,"Study Phase2",1746,,,1542,1542,,,,2,1
5e928bc7b4f9c10eeee9217b,uqri0simfr,Trevor_EX2,1,146,2020-07-23T14:39:13-07:00,2.6461730003357,1,Pure_Unrelated.csv,JOL_S_VersionA.csv,"Size U A","Size U A",ACCIDENT,STRONG,Study2,U,110,72,JOL_Large,User,-,"How likely are you to correctly recall the second item in the pair?|Type your response on a scale from 0-100 and then press Enter.",Study/JOL,"Study Phase2",2403,,,1717,1717,,,,4,1
5e928bc7b4f9c10eeee9217b,uqri0simfr,Trevor_EX2,1,147,2020-07-23T14:39:27-07:00,14.254716873169,1,Pure_Unrelated.csv,JOL_S_VersionA.csv,"Size U A","Size U A",OCTOBER,SPOOKY,BUFFER4,Buffer,180,100,JOL_Small,User,-,"How likely are you to correctly recall the second item in the pair?|Type your response on a scale from 0-100 and then press Enter.",Study/JOL,BUFFER4,12995,,,3097,3970,,,,100,0.415
5e928bc7b4f9c10eeee9217b,uqri0simfr,Trevor_EX2,1,148,2020-07-23T14:39:40-07:00,12.670597076416,1,Pure_Unrelated.csv,JOL_S_VersionA.csv,"Size U A","Size U A",DAYS,WEEKS,BUFFER4,Buffer,176,99,JOL_Small,User,-,"How likely are you to correctly recall the second item in the pair?|Type your response on a scale from 0-100 and then press Enter.",Study/JOL,BUFFER4,12476,,,3892,4023,,,,99,0.429
5e928bc7b4f9c10eeee9217b,uqri0simfr,Trevor_EX2,1,149,2020-07-23T14:39:54-07:00,14.112688064575,1,Pure_Unrelated.csv,JOL_S_VersionA.csv,"Size U A","Size U A",SPRING,MARCH,BUFFER4,Buffer,179,97,JOL_Large,User,-,"How likely are you to correctly recall the second item in the pair?|Type your response on a scale from 0-100 and then press Enter.",Study/JOL,BUFFER4,13757,,,5384,5449,,,,90,0.478
5e928bc7b4f9c10eeee9217b,uqri0simfr,Trevor_EX2,1,150,2020-07-23T14:40:05-07:00,10.880795955658,1,Pure_Unrelated.csv,JOL_S_VersionA.csv,"Size U A","Size U A",MONTH,YEAR,BUFFER4,Buffer,177,98,JOL_Large,User,-,"How likely are you to correctly recall the second item in the pair?|Type your response on a scale from 0-100 and then press Enter.",Study/JOL,BUFFER4,10579,,,1923,2165,,,,100,0.34
5e928bc7b4f9c10eeee9217b,uqri0simfr,Trevor_EX2,1,151,2020-07-23T14:40:10-07:00,5.3163199424744,1,Pure_Unrelated.csv,JOL_S_VersionA.csv,"Size U A","Size U A",TOOL,SHED,BUFFER4,Buffer,178,101,JOL_Large,User,-,"How likely are you to correctly recall the second item in the pair?|Type your response on a scale from 0-100 and then press Enter.",Study/JOL,BUFFER4,4964,,,3559,3624,,,,95,1
5e928bc7b4f9c10eeee9217b,uqri0simfr,Trevor_EX2,1,152,2020-07-23T14:40:17-07:00,6.7664361000061,1,Pure_Unrelated.csv,JOL_S_VersionA.csv,"Size U A","Size U A",,,,,,0,Instruct,User,-,"You have completed this section. Please press Enter.",Filler_Instruction,Instruct5,6408,,,-1,-1,,,,,0.091
5e928bc7b4f9c10eeee9217b,uqri0simfr,Trevor_EX2,1,153,2020-07-23T14:42:17-07:00,120.36225986481,1,Pure_Unrelated.csv,JOL_S_VersionA.csv,"Size U A","Size U A",,,,,,0,FreeRecall,120,120,"Please list the 50 US states in reverse alphabetical order (z - a). The task will automatically advance to the next screen after two minutes.",,Filler2,120002,"Wyoming Wisconsin West Virginia Washington Virgina Vermont Utah Texas Tennessee South Dakota South Carolina",0,21980,82222,0,0,,,0.902
5e928bc7b4f9c10eeee9217b,uqri0simfr,Trevor_EX2,1,154,2020-07-23T14:42:40-07:00,22.213029146194,1,Pure_Unrelated.csv,JOL_S_VersionA.csv,"Size U A","Size U A",,,,,,0,Instruct,-,10,"You will now be presented with the first word from each of the previously studied item pairs. Please type the missing word. If you do not know the word, you may guess or press Enter to skip forward to the next pair.",,Instruct6,21874,,,-1,-1,,,,,1
5e928bc7b4f9c10eeee9217b,uqri0simfr,Trevor_EX2,1,155,2020-07-23T14:42:49-07:00,9.0650448799133,1,Pure_Unrelated.csv,JOL_S_VersionA.csv,"Size U A","Size U A",CAR,HAPPY,Study2,U,107,80,Test,User,-,,Recall,Recall2,8796,happy,100,8115,8669,1,1,,,0.455
5e928bc7b4f9c10eeee9217b,uqri0simfr,Trevor_EX2,1,156,2020-07-23T14:42:53-07:00,4.1182110309601,1,Pure_Unrelated.csv,JOL_S_VersionA.csv,"Size U A","Size U A",MUTE,WAVE,Study2,U,173,94,Test,User,-,,Recall,Recall2,3783,wave,100,2107,3472,1,1,,,1
5e928bc7b4f9c10eeee9217b,uqri0simfr,Trevor_EX2,1,157,2020-07-23T14:43:00-07:00,7.1240720748901,1,Pure_Unrelated.csv,JOL_S_VersionA.csv,"Size U A","Size U A",CLUTTER,PUSHER,Study2,U,96,59,Test,User,-,,Recall,Recall2,5810,pusher,100,5200,5741,1,1,,,1
5e928bc7b4f9c10eeee9217b,uqri0simfr,Trevor_EX2,1,158,2020-07-23T14:43:05-07:00,4.5145568847656,1,Pure_Unrelated.csv,JOL_S_VersionA.csv,"Size U A","Size U A",SYSTEM,LICK,Study2,U,167,74,Test,User,-,,Recall,Recall2,4340,,0,-1,-1,0,0,,,1
5e928bc7b4f9c10eeee9217b,uqri0simfr,Trevor_EX2,1,159,2020-07-23T14:43:07-07:00,2.6155791282654,1,Pure_Unrelated.csv,JOL_S_VersionA.csv,"Size U A","Size U A",GUARD,WHEEL,Study2,U,170,81,Test,User,-,,Recall,Recall2,2343,Wheel,100,1263,2321,1,1,,,1
5e928bc7b4f9c10eeee9217b,uqri0simfr,Trevor_EX2,1,160,2020-07-23T14:43:10-07:00,3.1538298130035,1,Pure_Unrelated.csv,JOL_S_VersionA.csv,"Size U A","Size U A",SICK,HIDE,Study2,U,114,77,Test,User,-,,Recall,Recall2,2896,hide,100,2631,2829,1,1,,,1
5e928bc7b4f9c10eeee9217b,uqri0simfr,Trevor_EX2,1,161,2020-07-23T14:43:16-07:00,5.3177371025085,1,Pure_Unrelated.csv,JOL_S_VersionA.csv,"Size U A","Size U A",HAND,FIX,Study2,U,105,57,Test,User,-,,Recall,Recall2,4932,,0,-1,-1,0,0,,,1
5e928bc7b4f9c10eeee9217b,uqri0simfr,Trevor_EX2,1,162,2020-07-23T14:43:21-07:00,5.3118550777435,1,Pure_Unrelated.csv,JOL_S_VersionA.csv,"Size U A","Size U A",PUFF,NUMBER,Study2,U,171,82,Test,User,-,,Recall,Recall2,4450,number,100,3725,4316,1,1,,,1
5e928bc7b4f9c10eeee9217b,uqri0simfr,Trevor_EX2,1,163,2020-07-23T14:43:23-07:00,2.0686860084534,1,Pure_Unrelated.csv,JOL_S_VersionA.csv,"Size U A","Size U A",SMOOTH,OMIT,Study2,U,157,70,Test,User,-,,Recall,Recall2,1895,omit,100,1391,1869,1,1,,,1
5e928bc7b4f9c10eeee9217b,uqri0simfr,Trevor_EX2,1,164,2020-07-23T14:43:30-07:00,6.8567419052124,1,Pure_Unrelated.csv,JOL_S_VersionA.csv,"Size U A","Size U A",BRONZE,ARTERY,Study2,U,104,69,Test,User,-,,Recall,Recall2,6675,odin,0,4515,6525,0,0,,,1
5e928bc7b4f9c10eeee9217b,uqri0simfr,Trevor_EX2,1,165,2020-07-23T14:43:33-07:00,3.5171320438385,1,Pure_Unrelated.csv,JOL_S_VersionA.csv,"Size U A","Size U A",VASE,KING,Study2,U,115,90,Test,User,-,,Recall,Recall2,3165,,0,-1,-1,0,0,,,1
5e928bc7b4f9c10eeee9217b,uqri0simfr,Trevor_EX2,1,166,2020-07-23T14:43:39-07:00,5.9559919834137,1,Pure_Unrelated.csv,JOL_S_VersionA.csv,"Size U A","Size U A",FLOOR,DISCOVER,Study2,U,101,92,Test,User,-,,Recall,Recall2,5581,discover,100,1086,5448,1,1,,,1
5e928bc7b4f9c10eeee9217b,uqri0simfr,Trevor_EX2,1,167,2020-07-23T14:43:43-07:00,4.0655698776245,1,Pure_Unrelated.csv,JOL_S_VersionA.csv,"Size U A","Size U A",READY,CORN,Study2,U,158,61,Test,User,-,,Recall,Recall2,3766,,0,-1,-1,0,0,,,1
5e928bc7b4f9c10eeee9217b,uqri0simfr,Trevor_EX2,1,168,2020-07-23T14:43:48-07:00,4.761027097702,1,Pure_Unrelated.csv,JOL_S_VersionA.csv,"Size U A","Size U A",LEASE,TOIL,Study1,U,20,23,Test,User,-,,Recall,Recall2,4435,House,22.222222222222,3726,4301,0,0,,,1
5e928bc7b4f9c10eeee9217b,uqri0simfr,Trevor_EX2,1,169,2020-07-23T14:43:52-07:00,3.5083479881287,1,Pure_Unrelated.csv,JOL_S_VersionA.csv,"Size U A","Size U A",BELT,SOON,Study2,U,100,95,Test,User,-,,Recall,Recall2,3159,hide,0,1726,1903,0,0,,,1
5e928bc7b4f9c10eeee9217b,uqri0simfr,Trevor_EX2,1,170,2020-07-23T14:43:54-07:00,2.3010420799255,1,Pure_Unrelated.csv,JOL_S_VersionA.csv,"Size U A","Size U A",CLUTTER,PUSHER,Study2,U,96,59,Test,User,-,,Recall,Recall2,2054,pusher,100,1525,2009,1,1,,,1
5e928bc7b4f9c10eeee9217b,uqri0simfr,Trevor_EX2,1,171,2020-07-23T14:44:00-07:00,6.1540048122406,1,Pure_Unrelated.csv,JOL_S_VersionA.csv,"Size U A","Size U A",ZOO,THUMB,Study2,U,168,93,Test,User,-,,Recall,Recall2,5888,finger,0,3468,5773,0,0,,,1
5e928bc7b4f9c10eeee9217b,uqri0simfr,Trevor_EX2,1,172,2020-07-23T14:44:02-07:00,1.6780271530151,1,Pure_Unrelated.csv,JOL_S_VersionA.csv,"Size U A","Size U A",SACKING,DIETARY,Study2,U,97,64,Test,User,-,,Recall,Recall2,1413,,0,-1,-1,0,0,,,1
5e928bc7b4f9c10eeee9217b,uqri0simfr,Trevor_EX2,1,173,2020-07-23T14:44:04-07:00,2.6846828460693,1,Pure_Unrelated.csv,JOL_S_VersionA.csv,"Size U A","Size U A",SWING,FOG,Study2,U,175,68,Test,User,-,,Recall,Recall2,2511,fog,100,2217,2416,1,1,,,1
5e928bc7b4f9c10eeee9217b,uqri0simfr,Trevor_EX2,1,174,2020-07-23T14:44:11-07:00,6.0879180431366,1,Pure_Unrelated.csv,JOL_S_VersionA.csv,"Size U A","Size U A",SLIM,KNOW,Study2,U,164,73,Test,User,-,,Recall,Recall2,5816,knwo,75,5425,5642,0,1,,,1
5e928bc7b4f9c10eeee9217b,uqri0simfr,Trevor_EX2,1,175,2020-07-23T14:44:16-07:00,5.0811309814453,1,Pure_Unrelated.csv,JOL_S_VersionA.csv,"Size U A","Size U A",TUCK,ALLOW,Study2,U,108,63,Test,User,-,,Recall,Recall2,4759,,0,-1,-1,0,0,,,1
5e928bc7b4f9c10eeee9217b,uqri0simfr,Trevor_EX2,1,176,2020-07-23T14:44:19-07:00,3.8027989864349,1,Pure_Unrelated.csv,JOL_S_VersionA.csv,"Size U A","Size U A",RIDDLE,SUGAR,Study2,U,111,89,Test,User,-,,Recall,Recall2,3507,Sugar,100,1937,3411,1,1,,,1
5e928bc7b4f9c10eeee9217b,uqri0simfr,Trevor_EX2,1,177,2020-07-23T14:44:21-07:00,1.8473920822144,1,Pure_Unrelated.csv,JOL_S_VersionA.csv,"Size U A","Size U A",PUT,ROLL,Study2,U,163,86,Test,User,-,,Recall,Recall2,1534,,0,-1,-1,0,0,,,1
5e928bc7b4f9c10eeee9217b,uqri0simfr,Trevor_EX2,1,178,2020-07-23T14:44:24-07:00,2.7100460529327,1,Pure_Unrelated.csv,JOL_S_VersionA.csv,"Size U A","Size U A",SIGHT,DEBATE,Study2,U,103,79,Test,User,-,,Recall,Recall2,2530,,0,-1,-1,0,0,,,1
5e928bc7b4f9c10eeee9217b,uqri0simfr,Trevor_EX2,1,179,2020-07-23T14:44:26-07:00,1.8760640621185,1,Pure_Unrelated.csv,JOL_S_VersionA.csv,"Size U A","Size U A",FLOAT,HARMONY,Study2,U,161,84,Test,User,-,,Recall,Recall2,1616,,0,-1,-1,0,0,,,1
5e928bc7b4f9c10eeee9217b,uqri0simfr,Trevor_EX2,1,180,2020-07-23T14:44:31-07:00,5.44810795784,1,Pure_Unrelated.csv,JOL_S_VersionA.csv,"Size U A","Size U A",DETECT,FREE,Study2,U,162,88,Test,User,-,,Recall,Recall2,5207,,0,-1,-1,0,0,,,1
5e928bc7b4f9c10eeee9217b,uqri0simfr,Trevor_EX2,1,181,2020-07-23T14:44:33-07:00,1.230584859848,1,Pure_Unrelated.csv,JOL_S_VersionA.csv,"Size U A","Size U A",POSITION,MACHINE,Study2,U,106,71,Test,User,-,,Recall,Recall2,920,,0,-1,-1,0,0,,,1
5e928bc7b4f9c10eeee9217b,uqri0simfr,Trevor_EX2,1,182,2020-07-23T14:44:38-07:00,5.7402110099792,1,Pure_Unrelated.csv,JOL_S_VersionA.csv,"Size U A","Size U A",LAKE,OPINION,Study2,U,160,75,Test,User,-,,Recall,Recall2,5569,Opinion,100,2140,5260,1,1,,,1
5e928bc7b4f9c10eeee9217b,uqri0simfr,Trevor_EX2,1,183,2020-07-23T14:44:43-07:00,4.5031931400299,1,Pure_Unrelated.csv,JOL_S_VersionA.csv,"Size U A","Size U A",LION,ART,Study2,U,109,60,Test,User,-,,Recall,Recall2,4203,art,100,3630,4096,1,1,,,1
5e928bc7b4f9c10eeee9217b,uqri0simfr,Trevor_EX2,1,184,2020-07-23T14:44:47-07:00,4.0215840339661,1,Pure_Unrelated.csv,JOL_S_VersionA.csv,"Size U A","Size U A",ROAD,SCENT,Study2,U,166,91,Test,User,-,,Recall,Recall2,3705,,0,-1,-1,0,0,,,1
5e928bc7b4f9c10eeee9217b,uqri0simfr,Trevor_EX2,1,185,2020-07-23T14:44:52-07:00,4.810534954071,1,Pure_Unrelated.csv,JOL_S_VersionA.csv,"Size U A","Size U A",NULL,COUGH,Study2,U,156,87,Test,User,-,,Recall,Recall2,4557,cough,100,3388,4359,1,1,,,1
5e928bc7b4f9c10eeee9217b,uqri0simfr,Trevor_EX2,1,186,2020-07-23T14:44:53-07:00,1.3151998519897,1,Pure_Unrelated.csv,JOL_S_VersionA.csv,"Size U A","Size U A",HUNGRY,PARK,Study2,U,98,67,Test,User,-,,Recall,Recall2,973,,0,-1,-1,0,0,,,1
5e928bc7b4f9c10eeee9217b,uqri0simfr,Trevor_EX2,1,187,2020-07-23T14:44:56-07:00,2.9784209728241,1,Pure_Unrelated.csv,JOL_S_VersionA.csv,"Size U A","Size U A",WOMAN,LIFT,Study2,U,99,62,Test,User,-,,Recall,Recall2,2802,rise,25,2297,2692,0,0,,,1
5e928bc7b4f9c10eeee9217b,uqri0simfr,Trevor_EX2,1,188,2020-07-23T14:44:58-07:00,1.6285741329193,1,Pure_Unrelated.csv,JOL_S_VersionA.csv,"Size U A","Size U A",SPELL,BONE,Study2,U,174,85,Test,User,-,,Recall,Recall2,1343,,0,-1,-1,0,0,,,1
5e928bc7b4f9c10eeee9217b,uqri0simfr,Trevor_EX2,1,189,2020-07-23T14:44:59-07:00,1.033518075943,1,Pure_Unrelated.csv,JOL_S_VersionA.csv,"Size U A","Size U A",WOULD,CASH,Study2,U,113,65,Test,User,-,,Recall,Recall2,852,,0,-1,-1,0,0,,,1
5e928bc7b4f9c10eeee9217b,uqri0simfr,Trevor_EX2,1,190,2020-07-23T14:45:02-07:00,3.2382259368896,1,Pure_Unrelated.csv,JOL_S_VersionA.csv,"Size U A","Size U A",JELLY,NAUGHTY,Study2,U,172,66,Test,User,-,,Recall,Recall2,3064,Naughty,100,1522,2974,1,1,,,1
5e928bc7b4f9c10eeee9217b,uqri0simfr,Trevor_EX2,1,191,2020-07-23T14:45:03-07:00,1.1843428611755,1,Pure_Unrelated.csv,JOL_S_VersionA.csv,"Size U A","Size U A",ACCIDENT,STRONG,Study2,U,110,72,Test,User,-,,Recall,Recall2,926,,0,-1,-1,0,0,,,1
5e928bc7b4f9c10eeee9217b,uqri0simfr,Trevor_EX2,1,192,2020-07-23T14:45:07-07:00,4.3940141201019,1,Pure_Unrelated.csv,JOL_S_VersionA.csv,"Size U A","Size U A",WASTE,SEDATE,Study2,U,165,78,Test,User,-,,Recall,Recall2,4217,,0,-1,-1,0,0,,,1
5e928bc7b4f9c10eeee9217b,uqri0simfr,Trevor_EX2,1,193,2020-07-23T14:45:08-07:00,0.96324992179871,1,Pure_Unrelated.csv,JOL_S_VersionA.csv,"Size U A","Size U A",ADD,VALLEY,Study2,U,112,96,Test,User,-,,Recall,Recall2,692,,0,-1,-1,0,0,,,1
5e928bc7b4f9c10eeee9217b,uqri0simfr,Trevor_EX2,1,194,2020-07-23T14:45:11-07:00,2.6079170703888,1,Pure_Unrelated.csv,JOL_S_VersionA.csv,"Size U A","Size U A",Business,Death,Study2,U,102,76,Test,User,-,,Recall,Recall2,2423,death,100,1718,2377,1,1,,,1
5e928bc7b4f9c10eeee9217b,uqri0simfr,Trevor_EX2,1,195,2020-07-23T14:45:12-07:00,1.0774009227753,1,Pure_Unrelated.csv,JOL_S_VersionA.csv,"Size U A","Size U A",,,,,,0,Instruct,User,-,"You have completed this section. Please press Enter.",,Instruct7,826,,,-1,-1,,,,,1
5e928bc7b4f9c10eeee9217b,uqri0simfr,Trevor_EX2,1,196,2020-07-23T14:45:14-07:00,1.8763041496277,1,Pure_Unrelated.csv,JOL_S_VersionA.csv,"Size U A","Size U A",,,,,,0,Instruct,User,-,"The following screen will ask you a few questions abour your experience today. You must complete these questions to receive credit.",,Instruct8,1682,,,-1,-1,,,,,1
