Username,ID,ExperimentName,Session,Trial,Date,TimeDif,"Condition Number","Stimuli File","Order File","Condition Description","Condition Notes",Stimuli*Cue,Stimuli*Answer,Stimuli*Shuffle,"Stimuli*Stimuli Notes",Stimuli*Value,Procedure*Item,"Procedure*Trial Type","Procedure*Max Time","Procedure*Min Time",Procedure*Text,"Procedure*Procedure Notes",Procedure*Shuffle,Response*RT,Response*Response,Response*Accuracy,Response*RTfirst,Response*RTlast,Response*strictAcc,Response*lenientAcc,Response*focus,Response*JOL,Response*Focus
5eb201f369cc97175a5a6490,tyvqy6sdzq,Trevor_EX2,1,1,2020-07-23T14:50:13-07:00,6.1562240123749,1,Pure_Unrelated.csv,JOL_S_VersionA.csv,"Size U A","Size U A",,,,,,0,Instruct,-,5,"In this section, you will be presented with a series of word pairs.",Initial_Instruct,Instruct1,5944,,,-1,-1,,,,,1
5eb201f369cc97175a5a6490,tyvqy6sdzq,Trevor_EX2,1,2,2020-07-23T14:50:19-07:00,6.1619892120361,1,Pure_Unrelated.csv,JOL_S_VersionA.csv,"Size U A","Size U A",,,,,,0,Instruct,-,5,"As you study, you will be asked to rate your ability to remember the second item in the pair if you were only shown the first at test. You will make these ratings using a 0 to 100 Scale.",,Instruct13,5853,,,-1,-1,,,,,1
5eb201f369cc97175a5a6490,tyvqy6sdzq,Trevor_EX2,1,3,2020-07-23T14:50:30-07:00,11.464659929276,1,Pure_Unrelated.csv,JOL_S_VersionA.csv,"Size U A","Size U A",,,,,,0,Instruct,-,10,"For example, if you are given the pair CAT - DOG, a rating of 0 indicates that you would not remember DOG at test, while a rating of 100 indicates full certainty that you would remember the word DOG at test.",,Instruct14,11158,,,-1,-1,,,,,1
5eb201f369cc97175a5a6490,tyvqy6sdzq,Trevor_EX2,1,4,2020-07-23T14:50:42-07:00,11.74361205101,1,Pure_Unrelated.csv,JOL_S_VersionA.csv,"Size U A","Size U A",,,,,,0,Instruct,-,10,"When making your ratings, it is criticial that you use the full range of the scale. You will be disqualified for only giving ratings of 0 or 100! After making your rating, press Enter to advance to the next pair.",,Instruct15,11439,,,-1,-1,,,,,1
5eb201f369cc97175a5a6490,tyvqy6sdzq,Trevor_EX2,1,5,2020-07-23T14:50:44-07:00,2.0019798278809,1,Pure_Unrelated.csv,JOL_S_VersionA.csv,"Size U A","Size U A",,,,,,0,Instruct,User,-,"You will now begin the study. Press Enter when you are ready to begin.",,Instruct16,1776,,,-1,-1,,,,,1
5eb201f369cc97175a5a6490,tyvqy6sdzq,Trevor_EX2,1,6,2020-07-23T14:50:57-07:00,13.414743185043,1,Pure_Unrelated.csv,JOL_S_VersionA.csv,"Size U A","Size U A",SCARE,HIDE,BUFFER1,Buffer,4,2,JOL_Small,User,-,"How likely are you to correctly recall the second item in the pair?|Type your response on a scale from 0-100 and then press Enter.",Study/JOL,BUFFER,13102,,,9067,12368,,,,90,1
5eb201f369cc97175a5a6490,tyvqy6sdzq,Trevor_EX2,1,7,2020-07-23T14:51:01-07:00,3.165463924408,1,Pure_Unrelated.csv,JOL_S_VersionA.csv,"Size U A","Size U A",BASEBALL,CATCHER,BUFFER1,Buffer,2,4,JOL_Small,User,-,"How likely are you to correctly recall the second item in the pair?|Type your response on a scale from 0-100 and then press Enter.",Study/JOL,BUFFER,2855,,,1980,2357,,,,60,1
5eb201f369cc97175a5a6490,tyvqy6sdzq,Trevor_EX2,1,8,2020-07-23T14:51:07-07:00,6.4497179985046,1,Pure_Unrelated.csv,JOL_S_VersionA.csv,"Size U A","Size U A",PEANUT,BUTTER,BUFFER1,Buffer,3,3,JOL_Small,User,-,"How likely are you to correctly recall the second item in the pair?|Type your response on a scale from 0-100 and then press Enter.",Study/JOL,BUFFER,6139,,,2472,5723,,,,99,1
5eb201f369cc97175a5a6490,tyvqy6sdzq,Trevor_EX2,1,9,2020-07-23T14:51:14-07:00,7.2459669113159,1,Pure_Unrelated.csv,JOL_S_VersionA.csv,"Size U A","Size U A",SPACE,JAM,BUFFER1,Buffer,5,6,JOL_Large,User,-,"How likely are you to correctly recall the second item in the pair?|Type your response on a scale from 0-100 and then press Enter.",Study/JOL,BUFFER,6930,,,5907,6162,,,,100,1
5eb201f369cc97175a5a6490,tyvqy6sdzq,Trevor_EX2,1,10,2020-07-23T14:51:18-07:00,3.5998661518097,1,Pure_Unrelated.csv,JOL_S_VersionA.csv,"Size U A","Size U A",TREES,GREEN,BUFFER1,Buffer,1,5,JOL_Large,User,-,"How likely are you to correctly recall the second item in the pair?|Type your response on a scale from 0-100 and then press Enter.",Study/JOL,BUFFER,3285,,,2384,2565,,,,90,1
5eb201f369cc97175a5a6490,tyvqy6sdzq,Trevor_EX2,1,11,2020-07-23T14:51:22-07:00,3.6331508159637,1,Pure_Unrelated.csv,JOL_S_VersionA.csv,"Size U A","Size U A",GIVE,STEAK,Study1,U,8,37,JOL_Small,User,-,"How likely are you to correctly recall the second item in the pair?|Type your response on a scale from 0-100 and then press Enter.",Study/JOL,"Study Phase",3256,,,1948,2831,,,,70,1
5eb201f369cc97175a5a6490,tyvqy6sdzq,Trevor_EX2,1,12,2020-07-23T14:51:24-07:00,2.9296522140503,1,Pure_Unrelated.csv,JOL_S_VersionA.csv,"Size U A","Size U A",MIRROR,CHILDREN,Study1,U,24,7,JOL_Large,User,-,"How likely are you to correctly recall the second item in the pair?|Type your response on a scale from 0-100 and then press Enter.",Study/JOL,"Study Phase",2592,,,1621,1894,,,,70,1
5eb201f369cc97175a5a6490,tyvqy6sdzq,Trevor_EX2,1,13,2020-07-23T14:51:27-07:00,2.601557970047,1,Pure_Unrelated.csv,JOL_S_VersionA.csv,"Size U A","Size U A",NUMBER,HARD,Study1,U,78,36,JOL_Small,User,-,"How likely are you to correctly recall the second item in the pair?|Type your response on a scale from 0-100 and then press Enter.",Study/JOL,"Study Phase",2284,,,1472,1834,,,,60,1
5eb201f369cc97175a5a6490,tyvqy6sdzq,Trevor_EX2,1,14,2020-07-23T14:51:31-07:00,3.5575768947601,1,Pure_Unrelated.csv,JOL_S_VersionA.csv,"Size U A","Size U A",DIFFICULT,POOR,Study1,U,81,20,JOL_Large,User,-,"How likely are you to correctly recall the second item in the pair?|Type your response on a scale from 0-100 and then press Enter.",Study/JOL,"Study Phase",2924,,,2222,2468,,,,80,1
5eb201f369cc97175a5a6490,tyvqy6sdzq,Trevor_EX2,1,15,2020-07-23T14:51:33-07:00,2.5870490074158,1,Pure_Unrelated.csv,JOL_S_VersionA.csv,"Size U A","Size U A",DONKEY,LUSH,Study1,U,84,33,JOL_Small,User,-,"How likely are you to correctly recall the second item in the pair?|Type your response on a scale from 0-100 and then press Enter.",Study/JOL,"Study Phase",2132,,,1277,1554,,,,70,1
5eb201f369cc97175a5a6490,tyvqy6sdzq,Trevor_EX2,1,16,2020-07-23T14:51:36-07:00,2.5824329853058,1,Pure_Unrelated.csv,JOL_S_VersionA.csv,"Size U A","Size U A",MAZE,ELECTION,Study1,U,9,30,JOL_Small,User,-,"How likely are you to correctly recall the second item in the pair?|Type your response on a scale from 0-100 and then press Enter.",Study/JOL,"Study Phase",2247,,,1332,1931,,,,50,1
5eb201f369cc97175a5a6490,tyvqy6sdzq,Trevor_EX2,1,17,2020-07-23T14:51:39-07:00,2.8480899333954,1,Pure_Unrelated.csv,JOL_S_VersionA.csv,"Size U A","Size U A",THICK,CONTEST,Study1,U,73,11,JOL_Large,User,-,"How likely are you to correctly recall the second item in the pair?|Type your response on a scale from 0-100 and then press Enter.",Study/JOL,"Study Phase",2538,,,1881,2034,,,,30,1
5eb201f369cc97175a5a6490,tyvqy6sdzq,Trevor_EX2,1,18,2020-07-23T14:51:42-07:00,2.9609529972076,1,Pure_Unrelated.csv,JOL_S_VersionA.csv,"Size U A","Size U A",CRAYON,RATE,Study1,U,79,9,JOL_Large,User,-,"How likely are you to correctly recall the second item in the pair?|Type your response on a scale from 0-100 and then press Enter.",Study/JOL,"Study Phase",2650,,,2039,2186,,,,80,1
5eb201f369cc97175a5a6490,tyvqy6sdzq,Trevor_EX2,1,19,2020-07-23T14:51:45-07:00,3.2263460159302,1,Pure_Unrelated.csv,JOL_S_VersionA.csv,"Size U A","Size U A",DIZZY,SWEATER,Study1,U,77,25,JOL_Large,User,-,"How likely are you to correctly recall the second item in the pair?|Type your response on a scale from 0-100 and then press Enter.",Study/JOL,"Study Phase",2916,,,1670,2022,,,,40,1
5eb201f369cc97175a5a6490,tyvqy6sdzq,Trevor_EX2,1,20,2020-07-23T14:51:48-07:00,3.3700571060181,1,Pure_Unrelated.csv,JOL_S_VersionA.csv,"Size U A","Size U A",VEHICLE,CHARM,Study1,U,10,16,JOL_Large,User,-,"How likely are you to correctly recall the second item in the pair?|Type your response on a scale from 0-100 and then press Enter.",Study/JOL,"Study Phase",3059,,,2222,2356,,,,50,1
5eb201f369cc97175a5a6490,tyvqy6sdzq,Trevor_EX2,1,21,2020-07-23T14:51:54-07:00,5.3101899623871,1,Pure_Unrelated.csv,JOL_S_VersionA.csv,"Size U A","Size U A",PARCEL,THROAT,Study1,U,67,19,JOL_Large,User,-,"How likely are you to correctly recall the second item in the pair?|Type your response on a scale from 0-100 and then press Enter.",Study/JOL,"Study Phase",4687,,,1539,4199,,,,30,1
5eb201f369cc97175a5a6490,tyvqy6sdzq,Trevor_EX2,1,22,2020-07-23T14:51:56-07:00,2.8102400302887,1,Pure_Unrelated.csv,JOL_S_VersionA.csv,"Size U A","Size U A",MEAT,OBTAIN,Study1,U,11,32,JOL_Small,User,-,"How likely are you to correctly recall the second item in the pair?|Type your response on a scale from 0-100 and then press Enter.",Study/JOL,"Study Phase",2501,,,1942,2082,,,,40,1
5eb201f369cc97175a5a6490,tyvqy6sdzq,Trevor_EX2,1,23,2020-07-23T14:52:00-07:00,3.9885680675507,1,Pure_Unrelated.csv,JOL_S_VersionA.csv,"Size U A","Size U A",NAME,HATE,Study1,U,17,43,JOL_Small,User,-,"How likely are you to correctly recall the second item in the pair?|Type your response on a scale from 0-100 and then press Enter.",Study/JOL,"Study Phase",3677,,,1051,3277,,,,80,1
5eb201f369cc97175a5a6490,tyvqy6sdzq,Trevor_EX2,1,24,2020-07-23T14:52:03-07:00,3.1452369689941,1,Pure_Unrelated.csv,JOL_S_VersionA.csv,"Size U A","Size U A",MAIN,SCAR,Study1,U,25,26,JOL_Large,User,-,"How likely are you to correctly recall the second item in the pair?|Type your response on a scale from 0-100 and then press Enter.",Study/JOL,"Study Phase",2833,,,1780,2161,,,,60,1
5eb201f369cc97175a5a6490,tyvqy6sdzq,Trevor_EX2,1,25,2020-07-23T14:52:05-07:00,1.8105978965759,1,Pure_Unrelated.csv,JOL_S_VersionA.csv,"Size U A","Size U A",MOAT,CLEAR,Study1,U,19,40,JOL_Small,User,-,"How likely are you to correctly recall the second item in the pair?|Type your response on a scale from 0-100 and then press Enter.",Study/JOL,"Study Phase",1586,,,1010,1241,,,,80,1
5eb201f369cc97175a5a6490,tyvqy6sdzq,Trevor_EX2,1,26,2020-07-23T14:52:07-07:00,2.0770659446716,1,Pure_Unrelated.csv,JOL_S_VersionA.csv,"Size U A","Size U A",RESIST,GLUE,Study1,U,69,15,JOL_Large,User,-,"How likely are you to correctly recall the second item in the pair?|Type your response on a scale from 0-100 and then press Enter.",Study/JOL,"Study Phase",1852,,,827,1149,,,,70,1
5eb201f369cc97175a5a6490,tyvqy6sdzq,Trevor_EX2,1,27,2020-07-23T14:52:20-07:00,12.644371032715,1,Pure_Unrelated.csv,JOL_S_VersionA.csv,"Size U A","Size U A",TAX,OWL,Study1,U,72,10,JOL_Large,User,-,"How likely are you to correctly recall the second item in the pair?|Type your response on a scale from 0-100 and then press Enter.",Study/JOL,"Study Phase",3330,,,2050,2159,,,,70,0.941
5eb201f369cc97175a5a6490,tyvqy6sdzq,Trevor_EX2,1,28,2020-07-23T14:52:23-07:00,3.074499130249,1,Pure_Unrelated.csv,JOL_S_VersionA.csv,"Size U A","Size U A",WARN,SEA,Study1,U,80,21,JOL_Large,User,-,"How likely are you to correctly recall the second item in the pair?|Type your response on a scale from 0-100 and then press Enter.",Study/JOL,"Study Phase",2549,,,931,1744,,,,70,1
5eb201f369cc97175a5a6490,tyvqy6sdzq,Trevor_EX2,1,29,2020-07-23T14:52:26-07:00,2.5964579582214,1,Pure_Unrelated.csv,JOL_S_VersionA.csv,"Size U A","Size U A",JUSTICE,MAROON,Study1,U,6,27,JOL_Small,User,-,"How likely are you to correctly recall the second item in the pair?|Type your response on a scale from 0-100 and then press Enter.",Study/JOL,"Study Phase",2231,,,1327,1486,,,,30,1
5eb201f369cc97175a5a6490,tyvqy6sdzq,Trevor_EX2,1,30,2020-07-23T14:52:31-07:00,5.4048159122467,1,Pure_Unrelated.csv,JOL_S_VersionA.csv,"Size U A","Size U A",CRACKLE,ABLE,Study1,U,12,31,JOL_Small,User,-,"How likely are you to correctly recall the second item in the pair?|Type your response on a scale from 0-100 and then press Enter.",Study/JOL,"Study Phase",5091,,,1714,4708,,,,90,1
5eb201f369cc97175a5a6490,tyvqy6sdzq,Trevor_EX2,1,31,2020-07-23T14:52:34-07:00,2.6646111011505,1,Pure_Unrelated.csv,JOL_S_VersionA.csv,"Size U A","Size U A",TEMPERATURE,MORNING,Study1,U,23,45,JOL_Small,User,-,"How likely are you to correctly recall the second item in the pair?|Type your response on a scale from 0-100 and then press Enter.",Study/JOL,"Study Phase",2353,,,1801,2028,,,,80,1
5eb201f369cc97175a5a6490,tyvqy6sdzq,Trevor_EX2,1,32,2020-07-23T14:52:36-07:00,2.3791160583496,1,Pure_Unrelated.csv,JOL_S_VersionA.csv,"Size U A","Size U A",LEASE,TOIL,Study1,U,20,17,JOL_Large,User,-,"How likely are you to correctly recall the second item in the pair?|Type your response on a scale from 0-100 and then press Enter.",Study/JOL,"Study Phase",2068,,,1397,1509,,,,10,1
5eb201f369cc97175a5a6490,tyvqy6sdzq,Trevor_EX2,1,33,2020-07-23T14:52:40-07:00,3.6646709442139,1,Pure_Unrelated.csv,JOL_S_VersionA.csv,"Size U A","Size U A",LOAN,SIGN,Study1,U,21,42,JOL_Small,User,-,"How likely are you to correctly recall the second item in the pair?|Type your response on a scale from 0-100 and then press Enter.",Study/JOL,"Study Phase",3350,,,2755,2916,,,,70,1
5eb201f369cc97175a5a6490,tyvqy6sdzq,Trevor_EX2,1,34,2020-07-23T14:52:42-07:00,2.1081759929657,1,Pure_Unrelated.csv,JOL_S_VersionA.csv,"Size U A","Size U A",BAT,SHAKY,Study1,U,66,29,JOL_Small,User,-,"How likely are you to correctly recall the second item in the pair?|Type your response on a scale from 0-100 and then press Enter.",Study/JOL,"Study Phase",1882,,,969,1158,,,,10,1
5eb201f369cc97175a5a6490,tyvqy6sdzq,Trevor_EX2,1,35,2020-07-23T14:52:45-07:00,2.6990718841553,1,Pure_Unrelated.csv,JOL_S_VersionA.csv,"Size U A","Size U A",STRETCH,CLOTH,Study1,U,7,34,JOL_Small,User,-,"How likely are you to correctly recall the second item in the pair?|Type your response on a scale from 0-100 and then press Enter.",Study/JOL,"Study Phase",2373,,,1780,1936,,,,30,1
5eb201f369cc97175a5a6490,tyvqy6sdzq,Trevor_EX2,1,36,2020-07-23T14:52:48-07:00,3.0211970806122,1,Pure_Unrelated.csv,JOL_S_VersionA.csv,"Size U A","Size U A",INFLATE,DISGUST,Study1,U,76,23,JOL_Large,User,-,"How likely are you to correctly recall the second item in the pair?|Type your response on a scale from 0-100 and then press Enter.",Study/JOL,"Study Phase",2710,,,1872,2018,,,,50,1
5eb201f369cc97175a5a6490,tyvqy6sdzq,Trevor_EX2,1,37,2020-07-23T14:52:51-07:00,3.8673930168152,1,Pure_Unrelated.csv,JOL_S_VersionA.csv,"Size U A","Size U A",RIPE,VERIFY,Study1,U,83,46,JOL_Small,User,-,"How likely are you to correctly recall the second item in the pair?|Type your response on a scale from 0-100 and then press Enter.",Study/JOL,"Study Phase",3544,,,1179,2556,,,,12,1
5eb201f369cc97175a5a6490,tyvqy6sdzq,Trevor_EX2,1,38,2020-07-23T14:52:58-07:00,6.1843109130859,1,Pure_Unrelated.csv,JOL_S_VersionA.csv,"Size U A","Size U A",DEGREE,CHAIR,Study1,U,71,12,JOL_Large,User,-,"How likely are you to correctly recall the second item in the pair?|Type your response on a scale from 0-100 and then press Enter.",Study/JOL,"Study Phase",5873,,,3706,5261,,,,59,1
5eb201f369cc97175a5a6490,tyvqy6sdzq,Trevor_EX2,1,39,2020-07-23T14:53:00-07:00,2.5418450832367,1,Pure_Unrelated.csv,JOL_S_VersionA.csv,"Size U A","Size U A",ROSE,NEGLECT,Study1,U,82,39,JOL_Small,User,-,"How likely are you to correctly recall the second item in the pair?|Type your response on a scale from 0-100 and then press Enter.",Study/JOL,"Study Phase",2231,,,1328,1734,,,,33,1
5eb201f369cc97175a5a6490,tyvqy6sdzq,Trevor_EX2,1,40,2020-07-23T14:53:07-07:00,7.0789389610291,1,Pure_Unrelated.csv,JOL_S_VersionA.csv,"Size U A","Size U A",BOTH,OUNCE,Study1,U,22,22,JOL_Large,User,-,"How likely are you to correctly recall the second item in the pair?|Type your response on a scale from 0-100 and then press Enter.",Study/JOL,"Study Phase",2515,,,1212,1474,,,,30,0.923
5eb201f369cc97175a5a6490,tyvqy6sdzq,Trevor_EX2,1,41,2020-07-23T14:53:10-07:00,2.8958060741425,1,Pure_Unrelated.csv,JOL_S_VersionA.csv,"Size U A","Size U A",PET,MOON,Study1,U,74,38,JOL_Small,User,-,"How likely are you to correctly recall the second item in the pair?|Type your response on a scale from 0-100 and then press Enter.",Study/JOL,"Study Phase",2575,,,1943,2093,,,,70,1
5eb201f369cc97175a5a6490,tyvqy6sdzq,Trevor_EX2,1,42,2020-07-23T14:53:14-07:00,3.8816969394684,1,Pure_Unrelated.csv,JOL_S_VersionA.csv,"Size U A","Size U A",STRESS,YAM,Study1,U,68,18,JOL_Large,User,-,"How likely are you to correctly recall the second item in the pair?|Type your response on a scale from 0-100 and then press Enter.",Study/JOL,"Study Phase",2564,,,1884,2054,,,,10,1
5eb201f369cc97175a5a6490,tyvqy6sdzq,Trevor_EX2,1,43,2020-07-23T14:53:17-07:00,3.0400431156158,1,Pure_Unrelated.csv,JOL_S_VersionA.csv,"Size U A","Size U A",FUTURE,SINCERE,Study1,U,70,8,JOL_Large,User,-,"How likely are you to correctly recall the second item in the pair?|Type your response on a scale from 0-100 and then press Enter.",Study/JOL,"Study Phase",2569,,,1380,1532,,,,10,1
5eb201f369cc97175a5a6490,tyvqy6sdzq,Trevor_EX2,1,44,2020-07-23T14:53:21-07:00,4.2247219085693,1,Pure_Unrelated.csv,JOL_S_VersionA.csv,"Size U A","Size U A",GRIND,STAND,Study1,U,85,28,JOL_Small,User,-,"How likely are you to correctly recall the second item in the pair?|Type your response on a scale from 0-100 and then press Enter.",Study/JOL,"Study Phase",3914,,,1049,3380,,,,50,1
5eb201f369cc97175a5a6490,tyvqy6sdzq,Trevor_EX2,1,45,2020-07-23T14:53:24-07:00,2.993017911911,1,Pure_Unrelated.csv,JOL_S_VersionA.csv,"Size U A","Size U A",KEYS,JOKE,Study1,U,15,44,JOL_Small,User,-,"How likely are you to correctly recall the second item in the pair?|Type your response on a scale from 0-100 and then press Enter.",Study/JOL,"Study Phase",2680,,,2086,2261,,,,50,1
5eb201f369cc97175a5a6490,tyvqy6sdzq,Trevor_EX2,1,46,2020-07-23T14:53:28-07:00,3.6106421947479,1,Pure_Unrelated.csv,JOL_S_VersionA.csv,"Size U A","Size U A",LISTEN,FICTION,Study1,U,14,24,JOL_Large,User,-,"How likely are you to correctly recall the second item in the pair?|Type your response on a scale from 0-100 and then press Enter.",Study/JOL,"Study Phase",3296,,,2184,2362,,,,40,1
5eb201f369cc97175a5a6490,tyvqy6sdzq,Trevor_EX2,1,47,2020-07-23T14:53:31-07:00,2.6684229373932,1,Pure_Unrelated.csv,JOL_S_VersionA.csv,"Size U A","Size U A",SHELL,SHAKE,Study1,U,13,13,JOL_Large,User,-,"How likely are you to correctly recall the second item in the pair?|Type your response on a scale from 0-100 and then press Enter.",Study/JOL,"Study Phase",2253,,,1413,1782,,,,40,1
5eb201f369cc97175a5a6490,tyvqy6sdzq,Trevor_EX2,1,48,2020-07-23T14:53:34-07:00,3.4962549209595,1,Pure_Unrelated.csv,JOL_S_VersionA.csv,"Size U A","Size U A",CAKE,CLOTHES,Study1,U,16,41,JOL_Small,User,-,"How likely are you to correctly recall the second item in the pair?|Type your response on a scale from 0-100 and then press Enter.",Study/JOL,"Study Phase",3172,,,2625,2739,,,,50,1
5eb201f369cc97175a5a6490,tyvqy6sdzq,Trevor_EX2,1,49,2020-07-23T14:53:41-07:00,7.2254090309143,1,Pure_Unrelated.csv,JOL_S_VersionA.csv,"Size U A","Size U A",FUZZY,BANG,Study1,U,18,35,JOL_Small,User,-,"How likely are you to correctly recall the second item in the pair?|Type your response on a scale from 0-100 and then press Enter.",Study/JOL,"Study Phase",2456,,,887,992,,,,60,0.923
5eb201f369cc97175a5a6490,tyvqy6sdzq,Trevor_EX2,1,50,2020-07-23T14:53:45-07:00,3.5137839317322,1,Pure_Unrelated.csv,JOL_S_VersionA.csv,"Size U A","Size U A",BROAD,INFECT,Study1,U,75,14,JOL_Large,User,-,"How likely are you to correctly recall the second item in the pair?|Type your response on a scale from 0-100 and then press Enter.",Study/JOL,"Study Phase",3199,,,1848,2054,,,,45,1
5eb201f369cc97175a5a6490,tyvqy6sdzq,Trevor_EX2,1,51,2020-07-23T14:54:15-07:00,29.920593976974,1,Pure_Unrelated.csv,JOL_S_VersionA.csv,"Size U A","Size U A",THING,STUFF,BUFFER2,Buffer,90,47,JOL_Large,User,-,"How likely are you to correctly recall the second item in the pair?|Type your response on a scale from 0-100 and then press Enter.",Study/JOL,BUFFER2,29606,,,28827,28950,,,,60,1
5eb201f369cc97175a5a6490,tyvqy6sdzq,Trevor_EX2,1,52,2020-07-23T14:54:18-07:00,3.5463690757751,1,Pure_Unrelated.csv,JOL_S_VersionA.csv,"Size U A","Size U A",GEESE,GOOSE,BUFFER2,Buffer,86,48,JOL_Large,User,-,"How likely are you to correctly recall the second item in the pair?|Type your response on a scale from 0-100 and then press Enter.",Study/JOL,BUFFER2,3232,,,2393,2614,,,,50,1
5eb201f369cc97175a5a6490,tyvqy6sdzq,Trevor_EX2,1,53,2020-07-23T14:54:24-07:00,6.0271561145782,1,Pure_Unrelated.csv,JOL_S_VersionA.csv,"Size U A","Size U A",MALT,CHOCOLATE,BUFFER2,Buffer,88,50,JOL_Small,User,-,"How likely are you to correctly recall the second item in the pair?|Type your response on a scale from 0-100 and then press Enter.",Study/JOL,BUFFER2,4663,,,3374,3632,,,,100,1
5eb201f369cc97175a5a6490,tyvqy6sdzq,Trevor_EX2,1,54,2020-07-23T14:54:28-07:00,3.316869020462,1,Pure_Unrelated.csv,JOL_S_VersionA.csv,"Size U A","Size U A",MOON,SPACE,BUFFER2,Buffer,89,51,JOL_Large,User,-,"How likely are you to correctly recall the second item in the pair?|Type your response on a scale from 0-100 and then press Enter.",Study/JOL,BUFFER2,2997,,,1744,1920,,,,90,1
5eb201f369cc97175a5a6490,tyvqy6sdzq,Trevor_EX2,1,55,2020-07-23T14:54:34-07:00,6.3448097705841,1,Pure_Unrelated.csv,JOL_S_VersionA.csv,"Size U A","Size U A",SHERRIF,POLICE,BUFFER2,Buffer,87,49,JOL_Small,User,-,"How likely are you to correctly recall the second item in the pair?|Type your response on a scale from 0-100 and then press Enter.",Study/JOL,BUFFER2,6030,,,5083,5331,,,,70,1
5eb201f369cc97175a5a6490,tyvqy6sdzq,Trevor_EX2,1,56,2020-07-23T14:54:41-07:00,7.0443620681763,1,Pure_Unrelated.csv,JOL_S_VersionA.csv,"Size U A","Size U A",,,,,,0,Instruct,User,-,"You have completed this section. Please press Enter.",Filler_Instruction,Instruct2,1509,,,-1,-1,,,,,0.875
5eb201f369cc97175a5a6490,tyvqy6sdzq,Trevor_EX2,1,57,2020-07-23T14:56:42-07:00,120.45802497864,1,Pure_Unrelated.csv,JOL_S_VersionA.csv,"Size U A","Size U A",,,,,,0,FreeRecall,120,120,"Please list the 50 US states in alphabetical order. The task will automatically advance to the next screen after two minutes.",,Filler1,120002,"Albama Arkasas California colorado florida georgia Hawaii Indiana kansas kentucky Michigan nevada new york Ohio texas Wyoming ",0,22607,114746,0,0,,,1
5eb201f369cc97175a5a6490,tyvqy6sdzq,Trevor_EX2,1,58,2020-07-23T14:56:53-07:00,11.186122179031,1,Pure_Unrelated.csv,JOL_S_VersionA.csv,"Size U A","Size U A",,,,,,0,Instruct,-,10,"You will now be presented with the first word from each of the previously studied item pairs. Please type the missing word. If you do not know the word, you may guess or press Enter to skip forward to the next pair.",,Instruct3,10873,,,-1,-1,,,,,1
5eb201f369cc97175a5a6490,tyvqy6sdzq,Trevor_EX2,1,59,2020-07-23T14:57:01-07:00,8.3832907676697,1,Pure_Unrelated.csv,JOL_S_VersionA.csv,"Size U A","Size U A",DIZZY,SWEATER,Study1,U,77,25,Test,User,-,,Recall,Recall1,8069,SKIP,18.181818181818,6120,6702,0,0,,,1
5eb201f369cc97175a5a6490,tyvqy6sdzq,Trevor_EX2,1,60,2020-07-23T14:57:05-07:00,3.9443051815033,1,Pure_Unrelated.csv,JOL_S_VersionA.csv,"Size U A","Size U A",LEASE,TOIL,Study1,U,20,17,Test,User,-,,Recall,Recall1,3633,SKIP,25,2355,2948,0,0,,,1
5eb201f369cc97175a5a6490,tyvqy6sdzq,Trevor_EX2,1,61,2020-07-23T14:57:22-07:00,17.058857917786,1,Pure_Unrelated.csv,JOL_S_VersionA.csv,"Size U A","Size U A",TEMPERATURE,MORNING,Study1,U,23,45,Test,User,-,,Recall,Recall1,16745,SKIP,18.181818181818,14540,15973,0,0,,,1
5eb201f369cc97175a5a6490,tyvqy6sdzq,Trevor_EX2,1,62,2020-07-23T14:57:27-07:00,4.8571701049805,1,Pure_Unrelated.csv,JOL_S_VersionA.csv,"Size U A","Size U A",FUZZY,BANG,Study1,U,18,35,Test,User,-,,Recall,Recall1,4543,SKIP,0,3285,3766,0,0,,,1
5eb201f369cc97175a5a6490,tyvqy6sdzq,Trevor_EX2,1,63,2020-07-23T14:57:30-07:00,3.4676218032837,1,Pure_Unrelated.csv,JOL_S_VersionA.csv,"Size U A","Size U A",BAT,SHAKY,Study1,U,66,29,Test,User,-,,Recall,Recall1,3155,SKIP,44.444444444444,1922,2408,0,0,,,1
5eb201f369cc97175a5a6490,tyvqy6sdzq,Trevor_EX2,1,64,2020-07-23T14:57:33-07:00,2.7708880901337,1,Pure_Unrelated.csv,JOL_S_VersionA.csv,"Size U A","Size U A",CRAYON,RATE,Study1,U,79,9,Test,User,-,,Recall,Recall1,2454,SKIP,0,1114,1687,0,0,,,1
5eb201f369cc97175a5a6490,tyvqy6sdzq,Trevor_EX2,1,65,2020-07-23T14:57:36-07:00,2.535257101059,1,Pure_Unrelated.csv,JOL_S_VersionA.csv,"Size U A","Size U A",INFLATE,DISGUST,Study1,U,76,23,Test,User,-,,Recall,Recall1,2216,SKIP,18.181818181818,1090,1586,0,0,,,1
5eb201f369cc97175a5a6490,tyvqy6sdzq,Trevor_EX2,1,66,2020-07-23T14:57:38-07:00,2.4757688045502,1,Pure_Unrelated.csv,JOL_S_VersionA.csv,"Size U A","Size U A",KEYS,JOKE,Study1,U,15,44,Test,User,-,,Recall,Recall1,2164,SKIP,25,945,1496,0,0,,,1
5eb201f369cc97175a5a6490,tyvqy6sdzq,Trevor_EX2,1,67,2020-07-23T14:57:41-07:00,2.5935389995575,1,Pure_Unrelated.csv,JOL_S_VersionA.csv,"Size U A","Size U A",MIRROR,CHILDREN,Study1,U,24,7,Test,User,-,,Recall,Recall1,2280,SKIP,16.666666666667,1165,1662,0,0,,,1
5eb201f369cc97175a5a6490,tyvqy6sdzq,Trevor_EX2,1,68,2020-07-23T14:57:51-07:00,10.024146080017,1,Pure_Unrelated.csv,JOL_S_VersionA.csv,"Size U A","Size U A",MOAT,CLEAR,Study1,U,19,40,Test,User,-,,Recall,Recall1,4094,SKIP,0,2697,3340,0,0,,,0.952
5eb201f369cc97175a5a6490,tyvqy6sdzq,Trevor_EX2,1,69,2020-07-23T14:57:54-07:00,3.4260590076447,1,Pure_Unrelated.csv,JOL_S_VersionA.csv,"Size U A","Size U A",ROSE,NEGLECT,Study1,U,82,39,Test,User,-,,Recall,Recall1,3110,SKIP,0,1665,2322,0,0,,,1
5eb201f369cc97175a5a6490,tyvqy6sdzq,Trevor_EX2,1,70,2020-07-23T14:57:59-07:00,4.9751229286194,1,Pure_Unrelated.csv,JOL_S_VersionA.csv,"Size U A","Size U A",MEAT,OBTAIN,Study1,U,11,32,Test,User,-,,Recall,Recall1,4661,SKIP,20,1351,1894,0,0,,,1
5eb201f369cc97175a5a6490,tyvqy6sdzq,Trevor_EX2,1,71,2020-07-23T14:58:02-07:00,2.9534552097321,1,Pure_Unrelated.csv,JOL_S_VersionA.csv,"Size U A","Size U A",CRACKLE,ABLE,Study1,U,12,31,Test,User,-,,Recall,Recall1,2637,SKIP,0,1282,1818,0,0,,,1
5eb201f369cc97175a5a6490,tyvqy6sdzq,Trevor_EX2,1,72,2020-07-23T14:58:06-07:00,3.5885858535767,1,Pure_Unrelated.csv,JOL_S_VersionA.csv,"Size U A","Size U A",CAKE,CLOTHES,Study1,U,16,41,Test,User,-,,Recall,Recall1,3274,BUTTER,30.769230769231,1895,2876,0,0,,,1
5eb201f369cc97175a5a6490,tyvqy6sdzq,Trevor_EX2,1,73,2020-07-23T14:58:09-07:00,3.1769440174103,1,Pure_Unrelated.csv,JOL_S_VersionA.csv,"Size U A","Size U A",MAZE,ELECTION,Study1,U,9,30,Test,User,-,,Recall,Recall1,2856,SKIP,16.666666666667,1577,2041,0,0,,,1
5eb201f369cc97175a5a6490,tyvqy6sdzq,Trevor_EX2,1,74,2020-07-23T14:58:16-07:00,6.7504870891571,1,Pure_Unrelated.csv,JOL_S_VersionA.csv,"Size U A","Size U A",DIFFICULT,POOR,Study1,U,81,20,Test,User,-,,Recall,Recall1,6436,SKIP,25,5145,5604,0,0,,,1
5eb201f369cc97175a5a6490,tyvqy6sdzq,Trevor_EX2,1,75,2020-07-23T14:58:19-07:00,3.5681538581848,1,Pure_Unrelated.csv,JOL_S_VersionA.csv,"Size U A","Size U A",BROAD,INFECT,Study1,U,75,14,Test,User,-,,Recall,Recall1,3255,SKIP,20,2246,2688,0,0,,,1
5eb201f369cc97175a5a6490,tyvqy6sdzq,Trevor_EX2,1,76,2020-07-23T14:58:24-07:00,5.228728055954,1,Pure_Unrelated.csv,JOL_S_VersionA.csv,"Size U A","Size U A",DONKEY,LUSH,Study1,U,84,33,Test,User,-,,Recall,Recall1,4915,SKIP,25,3855,4362,0,0,,,1
5eb201f369cc97175a5a6490,tyvqy6sdzq,Trevor_EX2,1,77,2020-07-23T14:58:30-07:00,5.7004160881042,1,Pure_Unrelated.csv,JOL_S_VersionA.csv,"Size U A","Size U A",STRETCH,CLOTH,Study1,U,7,34,Test,User,-,,Recall,Recall1,5387,SKIP,0,4123,4671,0,0,,,1
5eb201f369cc97175a5a6490,tyvqy6sdzq,Trevor_EX2,1,78,2020-07-23T14:58:35-07:00,4.4861268997192,1,Pure_Unrelated.csv,JOL_S_VersionA.csv,"Size U A","Size U A",MAIN,SCAR,Study1,U,25,26,Test,User,-,,Recall,Recall1,4166,COURSE,40,2483,3526,0,0,,,1
5eb201f369cc97175a5a6490,tyvqy6sdzq,Trevor_EX2,1,79,2020-07-23T14:58:38-07:00,3.5467820167542,1,Pure_Unrelated.csv,JOL_S_VersionA.csv,"Size U A","Size U A",STRESS,YAM,Study1,U,68,18,Test,User,-,,Recall,Recall1,3234,SKIP,0,1595,2078,0,0,,,1
5eb201f369cc97175a5a6490,tyvqy6sdzq,Trevor_EX2,1,80,2020-07-23T14:58:42-07:00,3.8996961116791,1,Pure_Unrelated.csv,JOL_S_VersionA.csv,"Size U A","Size U A",BOTH,OUNCE,Study1,U,22,22,Test,User,-,,Recall,Recall1,3581,SAME,22.222222222222,1968,2604,0,0,,,1
5eb201f369cc97175a5a6490,tyvqy6sdzq,Trevor_EX2,1,81,2020-07-23T14:58:45-07:00,2.6094508171082,1,Pure_Unrelated.csv,JOL_S_VersionA.csv,"Size U A","Size U A",PARCEL,THROAT,Study1,U,67,19,Test,User,-,,Recall,Recall1,2296,SKIP,0,1117,1592,0,0,,,1
5eb201f369cc97175a5a6490,tyvqy6sdzq,Trevor_EX2,1,82,2020-07-23T14:58:50-07:00,4.8126721382141,1,Pure_Unrelated.csv,JOL_S_VersionA.csv,"Size U A","Size U A",RESIST,GLUE,Study1,U,69,15,Test,User,-,,Recall,Recall1,4435,HESITATE,16.666666666667,2031,3601,0,0,,,1
5eb201f369cc97175a5a6490,tyvqy6sdzq,Trevor_EX2,1,83,2020-07-23T14:58:54-07:00,4.4629850387573,1,Pure_Unrelated.csv,JOL_S_VersionA.csv,"Size U A","Size U A",NAME,HATE,Study1,U,17,43,Test,User,-,,Recall,Recall1,4132,SKIP,0,2963,3418,0,0,,,1
5eb201f369cc97175a5a6490,tyvqy6sdzq,Trevor_EX2,1,84,2020-07-23T14:58:57-07:00,2.8870329856873,1,Pure_Unrelated.csv,JOL_S_VersionA.csv,"Size U A","Size U A",THICK,CONTEST,Study1,U,73,11,Test,User,-,,Recall,Recall1,2570,SKIP,18.181818181818,1115,1618,0,0,,,1
5eb201f369cc97175a5a6490,tyvqy6sdzq,Trevor_EX2,1,85,2020-07-23T14:59:04-07:00,7.4863929748535,1,Pure_Unrelated.csv,JOL_S_VersionA.csv,"Size U A","Size U A",LISTEN,FICTION,Study1,U,14,24,Test,User,-,,Recall,Recall1,7156,LEARN,16.666666666667,4618,5364,0,0,,,1
5eb201f369cc97175a5a6490,tyvqy6sdzq,Trevor_EX2,1,86,2020-07-23T14:59:07-07:00,2.8383500576019,1,Pure_Unrelated.csv,JOL_S_VersionA.csv,"Size U A","Size U A",GRIND,STAND,Study1,U,85,28,Test,User,-,,Recall,Recall1,2523,SKIP,22.222222222222,1359,1937,0,0,,,1
5eb201f369cc97175a5a6490,tyvqy6sdzq,Trevor_EX2,1,87,2020-07-23T14:59:10-07:00,3.0783438682556,1,Pure_Unrelated.csv,JOL_S_VersionA.csv,"Size U A","Size U A",TAX,OWL,Study1,U,72,10,Test,User,-,,Recall,Recall1,2763,SKIP,0,1658,2169,0,0,,,1
5eb201f369cc97175a5a6490,tyvqy6sdzq,Trevor_EX2,1,88,2020-07-23T14:59:13-07:00,2.5050120353699,1,Pure_Unrelated.csv,JOL_S_VersionA.csv,"Size U A","Size U A",SHELL,SHAKE,Study1,U,13,13,Test,User,-,,Recall,Recall1,2194,SKIP,44.444444444444,803,1336,0,0,,,1
5eb201f369cc97175a5a6490,tyvqy6sdzq,Trevor_EX2,1,89,2020-07-23T14:59:16-07:00,3.0990250110626,1,Pure_Unrelated.csv,JOL_S_VersionA.csv,"Size U A","Size U A",RIPE,VERIFY,Study1,U,83,46,Test,User,-,,Recall,Recall1,2784,SKIP,20,839,2099,0,0,,,1
5eb201f369cc97175a5a6490,tyvqy6sdzq,Trevor_EX2,1,90,2020-07-23T14:59:18-07:00,1.9875559806824,1,Pure_Unrelated.csv,JOL_S_VersionA.csv,"Size U A","Size U A",WARN,SEA,Study1,U,80,21,Test,User,-,,Recall,Recall1,1753,SKIP,28.571428571429,812,1278,0,0,,,1
5eb201f369cc97175a5a6490,tyvqy6sdzq,Trevor_EX2,1,91,2020-07-23T14:59:23-07:00,5.2855319976807,1,Pure_Unrelated.csv,JOL_S_VersionA.csv,"Size U A","Size U A",DEGREE,CHAIR,Study1,U,71,12,Test,User,-,,Recall,Recall1,4968,TEMPERATURE,12.5,1602,4288,0,0,,,1
5eb201f369cc97175a5a6490,tyvqy6sdzq,Trevor_EX2,1,92,2020-07-23T14:59:29-07:00,5.4828960895538,1,Pure_Unrelated.csv,JOL_S_VersionA.csv,"Size U A","Size U A",PET,MOON,Study1,U,74,38,Test,User,-,,Recall,Recall1,5166,DONKEY,40,3550,4337,0,0,,,1
5eb201f369cc97175a5a6490,tyvqy6sdzq,Trevor_EX2,1,93,2020-07-23T14:59:38-07:00,8.8638408184052,1,Pure_Unrelated.csv,JOL_S_VersionA.csv,"Size U A","Size U A",NUMBER,HARD,Study1,U,78,36,Test,User,-,,Recall,Recall1,8547,SKIP,0,7513,7990,0,0,,,1
5eb201f369cc97175a5a6490,tyvqy6sdzq,Trevor_EX2,1,94,2020-07-23T14:59:43-07:00,5.1313011646271,1,Pure_Unrelated.csv,JOL_S_VersionA.csv,"Size U A","Size U A",FUTURE,SINCERE,Study1,U,70,8,Test,User,-,,Recall,Recall1,4805,PAST,18.181818181818,1702,3351,0,0,,,1
5eb201f369cc97175a5a6490,tyvqy6sdzq,Trevor_EX2,1,95,2020-07-23T14:59:52-07:00,9.3181569576263,1,Pure_Unrelated.csv,JOL_S_VersionA.csv,"Size U A","Size U A",GIVE,STEAK,Study1,U,8,37,Test,User,-,,Recall,Recall1,9002,CHOCOLATE,28.571428571429,6538,8377,0,0,,,1
5eb201f369cc97175a5a6490,tyvqy6sdzq,Trevor_EX2,1,96,2020-07-23T14:59:56-07:00,4.0523149967194,1,Pure_Unrelated.csv,JOL_S_VersionA.csv,"Size U A","Size U A",JUSTICE,MAROON,Study1,U,6,27,Test,User,-,,Recall,Recall1,3728,SKIP,0,2627,3112,0,0,,,1
5eb201f369cc97175a5a6490,tyvqy6sdzq,Trevor_EX2,1,97,2020-07-23T14:59:59-07:00,2.7380039691925,1,Pure_Unrelated.csv,JOL_S_VersionA.csv,"Size U A","Size U A",VEHICLE,CHARM,Study1,U,10,16,Test,User,-,,Recall,Recall1,2423,SKIP,0,1208,1686,0,0,,,1
5eb201f369cc97175a5a6490,tyvqy6sdzq,Trevor_EX2,1,98,2020-07-23T15:00:02-07:00,3.1518108844757,1,Pure_Unrelated.csv,JOL_S_VersionA.csv,"Size U A","Size U A",LOAN,SIGN,Study1,U,21,42,Test,User,-,,Recall,Recall1,2823,SKIP,50,741,2096,0,0,,,1
5eb201f369cc97175a5a6490,tyvqy6sdzq,Trevor_EX2,1,99,2020-07-23T15:00:20-07:00,18.312918186188,1,Pure_Unrelated.csv,JOL_S_VersionA.csv,"Size U A","Size U A",,,,,,0,Instruct,-,10,"You will now be presented with a new set of word pairs. Please study each pair. Remember that your memory will be tested! When finished, press Enter to move to the next pair.",Initial_Instruct,Instruct4,18000,,,-1,-1,,,,,0.988
5eb201f369cc97175a5a6490,tyvqy6sdzq,Trevor_EX2,1,100,2020-07-23T15:00:38-07:00,18.081298828125,1,Pure_Unrelated.csv,JOL_S_VersionA.csv,"Size U A","Size U A",,,,,,0,Instruct,,10,"You will again be asked to rate your ability to remember these items using a 0 to 100 scale. Remember to use the full range of the scale!",,Instruct10,17754,,,-1,-1,,,,,1
5eb201f369cc97175a5a6490,tyvqy6sdzq,Trevor_EX2,1,101,2020-07-23T15:00:41-07:00,2.6548790931702,1,Pure_Unrelated.csv,JOL_S_VersionA.csv,"Size U A","Size U A",,,,,,0,Instruct,User,-,"Press Enter when you are readty to begin",,Instruct11,2337,,,-1,-1,,,,,1
5eb201f369cc97175a5a6490,tyvqy6sdzq,Trevor_EX2,1,102,2020-07-23T15:00:54-07:00,13.211347103119,1,Pure_Unrelated.csv,JOL_S_VersionA.csv,"Size U A","Size U A",CARROT,POTATO,BUFFER3,Buffer,91,56,JOL_Large,User,-,"How likely are you to correctly recall the second item in the pair?|Type your response on a scale from 0-100 and then press Enter.",Study/JOL,BUFFER3,12886,,,9964,10634,,,,50,1
5eb201f369cc97175a5a6490,tyvqy6sdzq,Trevor_EX2,1,103,2020-07-23T15:01:04-07:00,10.045664787292,1,Pure_Unrelated.csv,JOL_S_VersionA.csv,"Size U A","Size U A",SHRIMP,FISH,BUFFER3,Buffer,93,52,JOL_Small,User,-,"How likely are you to correctly recall the second item in the pair?|Type your response on a scale from 0-100 and then press Enter.",Study/JOL,BUFFER3,9729,,,8297,8780,,,,50,1
5eb201f369cc97175a5a6490,tyvqy6sdzq,Trevor_EX2,1,104,2020-07-23T15:01:16-07:00,11.767335176468,1,Pure_Unrelated.csv,JOL_S_VersionA.csv,"Size U A","Size U A",ICE,FROZEN,BUFFER3,Buffer,94,55,JOL_Large,User,-,"How likely are you to correctly recall the second item in the pair?|Type your response on a scale from 0-100 and then press Enter.",Study/JOL,BUFFER3,11454,,,5254,5447,,,,90,1
5eb201f369cc97175a5a6490,tyvqy6sdzq,Trevor_EX2,1,105,2020-07-23T15:01:21-07:00,4.8428118228912,1,Pure_Unrelated.csv,JOL_S_VersionA.csv,"Size U A","Size U A",CAMP,ADVENTURE,BUFFER3,Buffer,95,54,JOL_Small,User,-,"How likely are you to correctly recall the second item in the pair?|Type your response on a scale from 0-100 and then press Enter.",Study/JOL,BUFFER3,4495,,,2483,3070,,,,60,1
5eb201f369cc97175a5a6490,tyvqy6sdzq,Trevor_EX2,1,106,2020-07-23T15:01:29-07:00,7.8721721172333,1,Pure_Unrelated.csv,JOL_S_VersionA.csv,"Size U A","Size U A",NOODLE,STRING,BUFFER3,Buffer,92,53,JOL_Small,User,-,"How likely are you to correctly recall the second item in the pair?|Type your response on a scale from 0-100 and then press Enter.",Study/JOL,BUFFER3,7378,,,5727,6191,,,,10,1
5eb201f369cc97175a5a6490,tyvqy6sdzq,Trevor_EX2,1,107,2020-07-23T15:01:34-07:00,5.4077820777893,1,Pure_Unrelated.csv,JOL_S_VersionA.csv,"Size U A","Size U A",MUTE,WAVE,Study2,U,173,73,JOL_Large,User,-,"How likely are you to correctly recall the second item in the pair?|Type your response on a scale from 0-100 and then press Enter.",Study/JOL,"Study Phase2",4955,,,3971,4413,,,,20,1
5eb201f369cc97175a5a6490,tyvqy6sdzq,Trevor_EX2,1,108,2020-07-23T15:01:37-07:00,3.284126996994,1,Pure_Unrelated.csv,JOL_S_VersionA.csv,"Size U A","Size U A",SLIM,KNOW,Study2,U,164,67,JOL_Large,User,-,"How likely are you to correctly recall the second item in the pair?|Type your response on a scale from 0-100 and then press Enter.",Study/JOL,"Study Phase2",2969,,,1639,2130,,,,20,1
5eb201f369cc97175a5a6490,tyvqy6sdzq,Trevor_EX2,1,109,2020-07-23T15:01:44-07:00,6.6849248409271,1,Pure_Unrelated.csv,JOL_S_VersionA.csv,"Size U A","Size U A",HAND,FIX,Study2,U,105,85,JOL_Small,User,-,"How likely are you to correctly recall the second item in the pair?|Type your response on a scale from 0-100 and then press Enter.",Study/JOL,"Study Phase2",6369,,,3639,3963,,,,60,1
5eb201f369cc97175a5a6490,tyvqy6sdzq,Trevor_EX2,1,110,2020-07-23T15:01:50-07:00,5.6395270824432,1,Pure_Unrelated.csv,JOL_S_VersionA.csv,"Size U A","Size U A",RIDDLE,SUGAR,Study2,U,111,81,JOL_Small,User,-,"How likely are you to correctly recall the second item in the pair?|Type your response on a scale from 0-100 and then press Enter.",Study/JOL,"Study Phase2",5314,,,2189,2806,,,,30,1
5eb201f369cc97175a5a6490,tyvqy6sdzq,Trevor_EX2,1,111,2020-07-23T15:01:57-07:00,7.5140759944916,1,Pure_Unrelated.csv,JOL_S_VersionA.csv,"Size U A","Size U A",BELT,SOON,Study2,U,100,63,JOL_Large,User,-,"How likely are you to correctly recall the second item in the pair?|Type your response on a scale from 0-100 and then press Enter.",Study/JOL,"Study Phase2",7194,,,6156,6440,,,,70,1
5eb201f369cc97175a5a6490,tyvqy6sdzq,Trevor_EX2,1,112,2020-07-23T15:02:03-07:00,5.5647599697113,1,Pure_Unrelated.csv,JOL_S_VersionA.csv,"Size U A","Size U A",INFLATE,DISGUST,Study1,U,76,23,JOL_Small,User,-,"How likely are you to correctly recall the second item in the pair?|Type your response on a scale from 0-100 and then press Enter.",Study/JOL,"Study Phase2",5167,,,4086,4423,,,,60,1
5eb201f369cc97175a5a6490,tyvqy6sdzq,Trevor_EX2,1,113,2020-07-23T15:02:11-07:00,8.4047639369965,1,Pure_Unrelated.csv,JOL_S_VersionA.csv,"Size U A","Size U A",FLOOR,DISCOVER,Study2,U,101,69,JOL_Large,User,-,"How likely are you to correctly recall the second item in the pair?|Type your response on a scale from 0-100 and then press Enter.",Study/JOL,"Study Phase2",7940,,,7341,7515,,,,50,1
5eb201f369cc97175a5a6490,tyvqy6sdzq,Trevor_EX2,1,114,2020-07-23T15:02:15-07:00,3.6088211536407,1,Pure_Unrelated.csv,JOL_S_VersionA.csv,"Size U A","Size U A",WASTE,SEDATE,Study2,U,165,71,JOL_Large,User,-,"How likely are you to correctly recall the second item in the pair?|Type your response on a scale from 0-100 and then press Enter.",Study/JOL,"Study Phase2",3271,,,2730,2879,,,,10,1
5eb201f369cc97175a5a6490,tyvqy6sdzq,Trevor_EX2,1,115,2020-07-23T15:02:20-07:00,5.021360874176,1,Pure_Unrelated.csv,JOL_S_VersionA.csv,"Size U A","Size U A",GUARD,WHEEL,Study2,U,170,86,JOL_Small,User,-,"How likely are you to correctly recall the second item in the pair?|Type your response on a scale from 0-100 and then press Enter.",Study/JOL,"Study Phase2",4700,,,3205,4376,,,,70,1
5eb201f369cc97175a5a6490,tyvqy6sdzq,Trevor_EX2,1,116,2020-07-23T15:02:27-07:00,7.0594489574432,1,Pure_Unrelated.csv,JOL_S_VersionA.csv,"Size U A","Size U A",LAKE,OPINION,Study2,U,160,84,JOL_Small,User,-,"How likely are you to correctly recall the second item in the pair?|Type your response on a scale from 0-100 and then press Enter.",Study/JOL,"Study Phase2",6739,,,5636,5778,,,,10,1
5eb201f369cc97175a5a6490,tyvqy6sdzq,Trevor_EX2,1,117,2020-07-23T15:02:30-07:00,3.5352880954742,1,Pure_Unrelated.csv,JOL_S_VersionA.csv,"Size U A","Size U A",TUCK,ALLOW,Study2,U,108,87,JOL_Small,User,-,"How likely are you to correctly recall the second item in the pair?|Type your response on a scale from 0-100 and then press Enter.",Study/JOL,"Study Phase2",3212,,,2651,2768,,,,10,1
5eb201f369cc97175a5a6490,tyvqy6sdzq,Trevor_EX2,1,118,2020-07-23T15:02:38-07:00,7.400710105896,1,Pure_Unrelated.csv,JOL_S_VersionA.csv,"Size U A","Size U A",CAR,HAPPY,Study2,U,107,92,JOL_Small,User,-,"How likely are you to correctly recall the second item in the pair?|Type your response on a scale from 0-100 and then press Enter.",Study/JOL,"Study Phase2",7086,,,5905,6200,,,,100,1
5eb201f369cc97175a5a6490,tyvqy6sdzq,Trevor_EX2,1,119,2020-07-23T15:02:40-07:00,2.5123949050903,1,Pure_Unrelated.csv,JOL_S_VersionA.csv,"Size U A","Size U A",PUFF,NUMBER,Study2,U,171,72,JOL_Large,User,-,"How likely are you to correctly recall the second item in the pair?|Type your response on a scale from 0-100 and then press Enter.",Study/JOL,"Study Phase2",2188,,,1723,1862,,,,20,1
5eb201f369cc97175a5a6490,tyvqy6sdzq,Trevor_EX2,1,120,2020-07-23T15:02:43-07:00,2.5603919029236,1,Pure_Unrelated.csv,JOL_S_VersionA.csv,"Size U A","Size U A",READY,CORN,Study2,U,158,68,JOL_Large,User,-,"How likely are you to correctly recall the second item in the pair?|Type your response on a scale from 0-100 and then press Enter.",Study/JOL,"Study Phase2",2244,,,1702,1933,,,,20,1
5eb201f369cc97175a5a6490,tyvqy6sdzq,Trevor_EX2,1,121,2020-07-23T15:02:46-07:00,2.8572170734406,1,Pure_Unrelated.csv,JOL_S_VersionA.csv,"Size U A","Size U A",VASE,KING,Study2,U,115,95,JOL_Small,User,-,"How likely are you to correctly recall the second item in the pair?|Type your response on a scale from 0-100 and then press Enter.",Study/JOL,"Study Phase2",2540,,,1374,1583,,,,10,1
5eb201f369cc97175a5a6490,tyvqy6sdzq,Trevor_EX2,1,122,2020-07-23T15:02:48-07:00,2.65376496315,1,Pure_Unrelated.csv,JOL_S_VersionA.csv,"Size U A","Size U A",CLUTTER,PUSHER,Study2,U,96,59,JOL_Large,User,-,"How likely are you to correctly recall the second item in the pair?|Type your response on a scale from 0-100 and then press Enter.",Study/JOL,"Study Phase2",2207,,,1564,1712,,,,10,1
5eb201f369cc97175a5a6490,tyvqy6sdzq,Trevor_EX2,1,123,2020-07-23T15:02:51-07:00,2.4581561088562,1,Pure_Unrelated.csv,JOL_S_VersionA.csv,"Size U A","Size U A",BRONZE,ARTERY,Study2,U,104,80,JOL_Small,User,-,"How likely are you to correctly recall the second item in the pair?|Type your response on a scale from 0-100 and then press Enter.",Study/JOL,"Study Phase2",2141,,,1880,1880,,,,0,1
5eb201f369cc97175a5a6490,tyvqy6sdzq,Trevor_EX2,1,124,2020-07-23T15:02:56-07:00,4.9488198757172,1,Pure_Unrelated.csv,JOL_S_VersionA.csv,"Size U A","Size U A",Business,Death,Study2,U,102,94,JOL_Small,User,-,"How likely are you to correctly recall the second item in the pair?|Type your response on a scale from 0-100 and then press Enter.",Study/JOL,"Study Phase2",4633,,,1642,4286,,,,90,1
5eb201f369cc97175a5a6490,tyvqy6sdzq,Trevor_EX2,1,125,2020-07-23T15:03:04-07:00,8.1936881542206,1,Pure_Unrelated.csv,JOL_S_VersionA.csv,"Size U A","Size U A",LION,ART,Study2,U,109,74,JOL_Large,User,-,"How likely are you to correctly recall the second item in the pair?|Type your response on a scale from 0-100 and then press Enter.",Study/JOL,"Study Phase2",7878,,,7348,7501,,,,90,1
5eb201f369cc97175a5a6490,tyvqy6sdzq,Trevor_EX2,1,126,2020-07-23T15:03:11-07:00,6.6173980236053,1,Pure_Unrelated.csv,JOL_S_VersionA.csv,"Size U A","Size U A",ZOO,THUMB,Study2,U,168,70,JOL_Large,User,-,"How likely are you to correctly recall the second item in the pair?|Type your response on a scale from 0-100 and then press Enter.",Study/JOL,"Study Phase2",6274,,,4012,5599,,,,60,1
5eb201f369cc97175a5a6490,tyvqy6sdzq,Trevor_EX2,1,127,2020-07-23T15:03:17-07:00,6.6081709861755,1,Pure_Unrelated.csv,JOL_S_VersionA.csv,"Size U A","Size U A",WOULD,CASH,Study2,U,113,75,JOL_Large,User,-,"How likely are you to correctly recall the second item in the pair?|Type your response on a scale from 0-100 and then press Enter.",Study/JOL,"Study Phase2",6292,,,5709,5842,,,,40,1
5eb201f369cc97175a5a6490,tyvqy6sdzq,Trevor_EX2,1,128,2020-07-23T15:03:20-07:00,2.5337178707123,1,Pure_Unrelated.csv,JOL_S_VersionA.csv,"Size U A","Size U A",ADD,VALLEY,Study2,U,112,60,JOL_Large,User,-,"How likely are you to correctly recall the second item in the pair?|Type your response on a scale from 0-100 and then press Enter.",Study/JOL,"Study Phase2",2219,,,1037,1286,,,,10,1
5eb201f369cc97175a5a6490,tyvqy6sdzq,Trevor_EX2,1,129,2020-07-23T15:03:23-07:00,2.8022439479828,1,Pure_Unrelated.csv,JOL_S_VersionA.csv,"Size U A","Size U A",SPELL,BONE,Study2,U,174,66,JOL_Large,User,-,"How likely are you to correctly recall the second item in the pair?|Type your response on a scale from 0-100 and then press Enter.",Study/JOL,"Study Phase2",2483,,,1848,2005,,,,60,1
5eb201f369cc97175a5a6490,tyvqy6sdzq,Trevor_EX2,1,130,2020-07-23T15:03:33-07:00,10.746775150299,1,Pure_Unrelated.csv,JOL_S_VersionA.csv,"Size U A","Size U A",HUNGRY,PARK,Study2,U,98,78,JOL_Small,User,-,"How likely are you to correctly recall the second item in the pair?|Type your response on a scale from 0-100 and then press Enter.",Study/JOL,"Study Phase2",10427,,,9576,9661,,,,80,1
5eb201f369cc97175a5a6490,tyvqy6sdzq,Trevor_EX2,1,131,2020-07-23T15:03:35-07:00,1.9578468799591,1,Pure_Unrelated.csv,JOL_S_VersionA.csv,"Size U A","Size U A",PUT,ROLL,Study2,U,163,57,JOL_Large,User,-,"How likely are you to correctly recall the second item in the pair?|Type your response on a scale from 0-100 and then press Enter.",Study/JOL,"Study Phase2",1726,,,1300,1300,,,,1,1
5eb201f369cc97175a5a6490,tyvqy6sdzq,Trevor_EX2,1,132,2020-07-23T15:03:38-07:00,3.0097591876984,1,Pure_Unrelated.csv,JOL_S_VersionA.csv,"Size U A","Size U A",SMOOTH,OMIT,Study2,U,157,90,JOL_Small,User,-,"How likely are you to correctly recall the second item in the pair?|Type your response on a scale from 0-100 and then press Enter.",Study/JOL,"Study Phase2",2685,,,1914,2260,,,,20,1
5eb201f369cc97175a5a6490,tyvqy6sdzq,Trevor_EX2,1,133,2020-07-23T15:03:45-07:00,7.0956637859344,1,Pure_Unrelated.csv,JOL_S_VersionA.csv,"Size U A","Size U A",DESIRE,NOISE,Study2,U,169,93,JOL_Small,User,-,"How likely are you to correctly recall the second item in the pair?|Type your response on a scale from 0-100 and then press Enter.",Study/JOL,"Study Phase2",2916,,,1882,2059,,,,20,0.933
5eb201f369cc97175a5a6490,tyvqy6sdzq,Trevor_EX2,1,134,2020-07-23T15:03:47-07:00,1.5875370502472,1,Pure_Unrelated.csv,JOL_S_VersionA.csv,"Size U A","Size U A",ROAD,SCENT,Study2,U,166,96,JOL_Small,User,-,"How likely are you to correctly recall the second item in the pair?|Type your response on a scale from 0-100 and then press Enter.",Study/JOL,"Study Phase2",1354,,,589,871,,,,20,1
5eb201f369cc97175a5a6490,tyvqy6sdzq,Trevor_EX2,1,135,2020-07-23T15:03:49-07:00,2.0975270271301,1,Pure_Unrelated.csv,JOL_S_VersionA.csv,"Size U A","Size U A",SWING,FOG,Study2,U,175,89,JOL_Small,User,-,"How likely are you to correctly recall the second item in the pair?|Type your response on a scale from 0-100 and then press Enter.",Study/JOL,"Study Phase2",1783,,,701,939,,,,20,1
5eb201f369cc97175a5a6490,tyvqy6sdzq,Trevor_EX2,1,136,2020-07-23T15:03:51-07:00,1.8684139251709,1,Pure_Unrelated.csv,JOL_S_VersionA.csv,"Size U A","Size U A",SYSTEM,LICK,Study2,U,167,79,JOL_Small,User,-,"How likely are you to correctly recall the second item in the pair?|Type your response on a scale from 0-100 and then press Enter.",Study/JOL,"Study Phase2",1634,,,1154,1325,,,,20,1
5eb201f369cc97175a5a6490,tyvqy6sdzq,Trevor_EX2,1,137,2020-07-23T15:03:54-07:00,2.9475991725922,1,Pure_Unrelated.csv,JOL_S_VersionA.csv,"Size U A","Size U A",WOMAN,LIFT,Study2,U,99,64,JOL_Large,User,-,"How likely are you to correctly recall the second item in the pair?|Type your response on a scale from 0-100 and then press Enter.",Study/JOL,"Study Phase2",2626,,,1983,2241,,,,100,1
5eb201f369cc97175a5a6490,tyvqy6sdzq,Trevor_EX2,1,138,2020-07-23T15:03:59-07:00,5.3627178668976,1,Pure_Unrelated.csv,JOL_S_VersionA.csv,"Size U A","Size U A",SACKING,DIETARY,Study2,U,97,77,JOL_Small,User,-,"How likely are you to correctly recall the second item in the pair?|Type your response on a scale from 0-100 and then press Enter.",Study/JOL,"Study Phase2",5036,,,4197,4197,,,,0,1
5eb201f369cc97175a5a6490,tyvqy6sdzq,Trevor_EX2,1,139,2020-07-23T15:04:03-07:00,4.1426260471344,1,Pure_Unrelated.csv,JOL_S_VersionA.csv,"Size U A","Size U A",ACCIDENT,STRONG,Study2,U,110,65,JOL_Large,User,-,"How likely are you to correctly recall the second item in the pair?|Type your response on a scale from 0-100 and then press Enter.",Study/JOL,"Study Phase2",3827,,,2724,3399,,,,20,1
5eb201f369cc97175a5a6490,tyvqy6sdzq,Trevor_EX2,1,140,2020-07-23T15:04:06-07:00,2.6639719009399,1,Pure_Unrelated.csv,JOL_S_VersionA.csv,"Size U A","Size U A",NULL,COUGH,Study2,U,156,91,JOL_Small,User,-,"How likely are you to correctly recall the second item in the pair?|Type your response on a scale from 0-100 and then press Enter.",Study/JOL,"Study Phase2",2346,,,1485,1907,,,,20,1
5eb201f369cc97175a5a6490,tyvqy6sdzq,Trevor_EX2,1,141,2020-07-23T15:04:09-07:00,2.8650281429291,1,Pure_Unrelated.csv,JOL_S_VersionA.csv,"Size U A","Size U A",DETECT,FREE,Study2,U,162,82,JOL_Small,User,-,"How likely are you to correctly recall the second item in the pair?|Type your response on a scale from 0-100 and then press Enter.",Study/JOL,"Study Phase2",2536,,,2188,2314,,,,20,1
5eb201f369cc97175a5a6490,tyvqy6sdzq,Trevor_EX2,1,142,2020-07-23T15:04:12-07:00,3.0171940326691,1,Pure_Unrelated.csv,JOL_S_VersionA.csv,"Size U A","Size U A",CLUTTER,PUSHER,Study2,U,96,59,JOL_Large,User,-,"How likely are you to correctly recall the second item in the pair?|Type your response on a scale from 0-100 and then press Enter.",Study/JOL,"Study Phase2",2699,,,1187,1342,,,,10,1
5eb201f369cc97175a5a6490,tyvqy6sdzq,Trevor_EX2,1,143,2020-07-23T15:04:20-07:00,7.7952489852905,1,Pure_Unrelated.csv,JOL_S_VersionA.csv,"Size U A","Size U A",SICK,HIDE,Study2,U,114,76,JOL_Large,User,-,"How likely are you to correctly recall the second item in the pair?|Type your response on a scale from 0-100 and then press Enter.",Study/JOL,"Study Phase2",7479,,,6271,6459,,,,90,1
5eb201f369cc97175a5a6490,tyvqy6sdzq,Trevor_EX2,1,144,2020-07-23T15:04:25-07:00,5.1236069202423,1,Pure_Unrelated.csv,JOL_S_VersionA.csv,"Size U A","Size U A",FLOAT,HARMONY,Study2,U,161,61,JOL_Large,User,-,"How likely are you to correctly recall the second item in the pair?|Type your response on a scale from 0-100 and then press Enter.",Study/JOL,"Study Phase2",4791,,,4294,4563,,,,10,1
5eb201f369cc97175a5a6490,tyvqy6sdzq,Trevor_EX2,1,145,2020-07-23T15:04:27-07:00,2.646301984787,1,Pure_Unrelated.csv,JOL_S_VersionA.csv,"Size U A","Size U A",SIGHT,DEBATE,Study2,U,103,62,JOL_Large,User,-,"How likely are you to correctly recall the second item in the pair?|Type your response on a scale from 0-100 and then press Enter.",Study/JOL,"Study Phase2",2332,,,1540,2113,,,,20,1
5eb201f369cc97175a5a6490,tyvqy6sdzq,Trevor_EX2,1,146,2020-07-23T15:04:35-07:00,7.0390610694885,1,Pure_Unrelated.csv,JOL_S_VersionA.csv,"Size U A","Size U A",POSITION,MACHINE,Study2,U,106,88,JOL_Small,User,-,"How likely are you to correctly recall the second item in the pair?|Type your response on a scale from 0-100 and then press Enter.",Study/JOL,"Study Phase2",2337,,,1937,2068,,,,10,0.917
5eb201f369cc97175a5a6490,tyvqy6sdzq,Trevor_EX2,1,147,2020-07-23T15:04:39-07:00,4.1548850536346,1,Pure_Unrelated.csv,JOL_S_VersionA.csv,"Size U A","Size U A",MONTH,YEAR,BUFFER4,Buffer,177,101,JOL_Large,User,-,"How likely are you to correctly recall the second item in the pair?|Type your response on a scale from 0-100 and then press Enter.",Study/JOL,BUFFER4,3834,,,3291,3538,,,,100,1
5eb201f369cc97175a5a6490,tyvqy6sdzq,Trevor_EX2,1,148,2020-07-23T15:04:48-07:00,8.9570820331573,1,Pure_Unrelated.csv,JOL_S_VersionA.csv,"Size U A","Size U A",SPRING,MARCH,BUFFER4,Buffer,179,97,JOL_Large,User,-,"How likely are you to correctly recall the second item in the pair?|Type your response on a scale from 0-100 and then press Enter.",Study/JOL,BUFFER4,8640,,,6946,7759,,,,100,1
5eb201f369cc97175a5a6490,tyvqy6sdzq,Trevor_EX2,1,149,2020-07-23T15:04:50-07:00,2.6267039775848,1,Pure_Unrelated.csv,JOL_S_VersionA.csv,"Size U A","Size U A",DAYS,WEEKS,BUFFER4,Buffer,176,99,JOL_Small,User,-,"How likely are you to correctly recall the second item in the pair?|Type your response on a scale from 0-100 and then press Enter.",Study/JOL,BUFFER4,2309,,,1799,2075,,,,100,1
5eb201f369cc97175a5a6490,tyvqy6sdzq,Trevor_EX2,1,150,2020-07-23T15:05:03-07:00,13.233500957489,1,Pure_Unrelated.csv,JOL_S_VersionA.csv,"Size U A","Size U A",OCTOBER,SPOOKY,BUFFER4,Buffer,180,100,JOL_Small,User,-,"How likely are you to correctly recall the second item in the pair?|Type your response on a scale from 0-100 and then press Enter.",Study/JOL,BUFFER4,12914,,,10126,12284,,,,97,1
5eb201f369cc97175a5a6490,tyvqy6sdzq,Trevor_EX2,1,151,2020-07-23T15:05:07-07:00,3.3077828884125,1,Pure_Unrelated.csv,JOL_S_VersionA.csv,"Size U A","Size U A",TOOL,SHED,BUFFER4,Buffer,178,98,JOL_Large,User,-,"How likely are you to correctly recall the second item in the pair?|Type your response on a scale from 0-100 and then press Enter.",Study/JOL,BUFFER4,2992,,,1662,2678,,,,100,1
5eb201f369cc97175a5a6490,tyvqy6sdzq,Trevor_EX2,1,152,2020-07-23T15:05:16-07:00,9.3888020515442,1,Pure_Unrelated.csv,JOL_S_VersionA.csv,"Size U A","Size U A",,,,,,0,Instruct,User,-,"You have completed this section. Please press Enter.",Filler_Instruction,Instruct5,9074,,,-1,-1,,,,,0.977
5eb201f369cc97175a5a6490,tyvqy6sdzq,Trevor_EX2,1,153,2020-07-23T15:07:17-07:00,120.32481312752,1,Pure_Unrelated.csv,JOL_S_VersionA.csv,"Size U A","Size U A",,,,,,0,FreeRecall,120,120,"Please list the 50 US states in reverse alphabetical order (z - a). The task will automatically advance to the next screen after two minutes.",,Filler2,120002,"WYOMING West Virginia TEXAS TENNESSEE OHIO NEW YORK New Mexico KANSAS FLORIDA CALIFORNIA ARIZONA ALABAMA",0,11345,69657,0,0,,,0.997
5eb201f369cc97175a5a6490,tyvqy6sdzq,Trevor_EX2,1,154,2020-07-23T15:08:21-07:00,64.2794008255,1,Pure_Unrelated.csv,JOL_S_VersionA.csv,"Size U A","Size U A",,,,,,0,Instruct,-,10,"You will now be presented with the first word from each of the previously studied item pairs. Please type the missing word. If you do not know the word, you may guess or press Enter to skip forward to the next pair.",,Instruct6,63964,,,-1,-1,,,,,1
5eb201f369cc97175a5a6490,tyvqy6sdzq,Trevor_EX2,1,155,2020-07-23T15:08:33-07:00,12.606289148331,1,Pure_Unrelated.csv,JOL_S_VersionA.csv,"Size U A","Size U A",POSITION,MACHINE,Study2,U,106,88,Test,User,-,,Recall,Recall2,12289,SKIP,18.181818181818,11024,11508,0,0,,,1
5eb201f369cc97175a5a6490,tyvqy6sdzq,Trevor_EX2,1,156,2020-07-23T15:08:37-07:00,3.1966907978058,1,Pure_Unrelated.csv,JOL_S_VersionA.csv,"Size U A","Size U A",SYSTEM,LICK,Study2,U,167,79,Test,User,-,,Recall,Recall2,2882,SKIP,25,1363,2137,0,0,,,1
5eb201f369cc97175a5a6490,tyvqy6sdzq,Trevor_EX2,1,157,2020-07-23T15:08:40-07:00,3.7330920696259,1,Pure_Unrelated.csv,JOL_S_VersionA.csv,"Size U A","Size U A",SPELL,BONE,Study2,U,174,66,Test,User,-,,Recall,Recall2,3409,BONE,100,2029,2486,1,1,,,1
5eb201f369cc97175a5a6490,tyvqy6sdzq,Trevor_EX2,1,158,2020-07-23T15:08:43-07:00,3.1252119541168,1,Pure_Unrelated.csv,JOL_S_VersionA.csv,"Size U A","Size U A",SMOOTH,OMIT,Study2,U,157,90,Test,User,-,,Recall,Recall2,2799,SKIP,25,1597,2151,0,0,,,1
5eb201f369cc97175a5a6490,tyvqy6sdzq,Trevor_EX2,1,159,2020-07-23T15:08:49-07:00,5.7739222049713,1,Pure_Unrelated.csv,JOL_S_VersionA.csv,"Size U A","Size U A",FLOOR,DISCOVER,Study2,U,101,69,Test,User,-,,Recall,Recall2,5417,DISCOVER,100,1209,4567,1,1,,,1
5eb201f369cc97175a5a6490,tyvqy6sdzq,Trevor_EX2,1,160,2020-07-23T15:08:52-07:00,2.8138329982758,1,Pure_Unrelated.csv,JOL_S_VersionA.csv,"Size U A","Size U A",DETECT,FREE,Study2,U,162,82,Test,User,-,,Recall,Recall2,2480,SKIP,0,1568,1955,0,0,,,1
5eb201f369cc97175a5a6490,tyvqy6sdzq,Trevor_EX2,1,161,2020-07-23T15:08:57-07:00,4.6564869880676,1,Pure_Unrelated.csv,JOL_S_VersionA.csv,"Size U A","Size U A",HAND,FIX,Study2,U,105,85,Test,User,-,,Recall,Recall2,4328,FIX,100,3113,3464,1,1,,,1
5eb201f369cc97175a5a6490,tyvqy6sdzq,Trevor_EX2,1,162,2020-07-23T15:08:59-07:00,2.6937689781189,1,Pure_Unrelated.csv,JOL_S_VersionA.csv,"Size U A","Size U A",LION,ART,Study2,U,109,74,Test,User,-,,Recall,Recall2,2263,ART,100,1254,1625,1,1,,,1
5eb201f369cc97175a5a6490,tyvqy6sdzq,Trevor_EX2,1,163,2020-07-23T15:09:02-07:00,3.0835399627686,1,Pure_Unrelated.csv,JOL_S_VersionA.csv,"Size U A","Size U A",SIGHT,DEBATE,Study2,U,103,62,Test,User,-,,Recall,Recall2,2763,SKIP,0,925,2176,0,0,,,1
5eb201f369cc97175a5a6490,tyvqy6sdzq,Trevor_EX2,1,164,2020-07-23T15:09:04-07:00,1.8689270019531,1,Pure_Unrelated.csv,JOL_S_VersionA.csv,"Size U A","Size U A",VASE,KING,Study2,U,115,95,Test,User,-,,Recall,Recall2,1632,,0,-1,-1,0,0,,,1
5eb201f369cc97175a5a6490,tyvqy6sdzq,Trevor_EX2,1,165,2020-07-23T15:09:12-07:00,7.7628660202026,1,Pure_Unrelated.csv,JOL_S_VersionA.csv,"Size U A","Size U A",RIDDLE,SUGAR,Study2,U,111,81,Test,User,-,,Recall,Recall2,7437,SKIP,22.222222222222,3879,4691,0,0,,,1
5eb201f369cc97175a5a6490,tyvqy6sdzq,Trevor_EX2,1,166,2020-07-23T15:09:14-07:00,1.9446558952332,1,Pure_Unrelated.csv,JOL_S_VersionA.csv,"Size U A","Size U A",SWING,FOG,Study2,U,175,89,Test,User,-,,Recall,Recall2,1704,SKIP,0,765,1217,0,0,,,1
5eb201f369cc97175a5a6490,tyvqy6sdzq,Trevor_EX2,1,167,2020-07-23T15:09:19-07:00,4.5740580558777,1,Pure_Unrelated.csv,JOL_S_VersionA.csv,"Size U A","Size U A",BELT,SOON,Study2,U,100,63,Test,User,-,,Recall,Recall2,4253,SOON,100,3192,3653,1,1,,,1
5eb201f369cc97175a5a6490,tyvqy6sdzq,Trevor_EX2,1,168,2020-07-23T15:09:24-07:00,4.8766849040985,1,Pure_Unrelated.csv,JOL_S_VersionA.csv,"Size U A","Size U A",MUTE,WAVE,Study2,U,173,73,Test,User,-,,Recall,Recall2,4542,WAVE,100,3488,3970,1,1,,,1
5eb201f369cc97175a5a6490,tyvqy6sdzq,Trevor_EX2,1,169,2020-07-23T15:09:30-07:00,6.4480459690094,1,Pure_Unrelated.csv,JOL_S_VersionA.csv,"Size U A","Size U A",LAKE,OPINION,Study2,U,160,84,Test,User,-,,Recall,Recall2,5944,SKIP,18.181818181818,4101,4988,0,0,,,1
5eb201f369cc97175a5a6490,tyvqy6sdzq,Trevor_EX2,1,170,2020-07-23T15:09:39-07:00,8.8032531738281,1,Pure_Unrelated.csv,JOL_S_VersionA.csv,"Size U A","Size U A",BRONZE,ARTERY,Study2,U,104,80,Test,User,-,,Recall,Recall2,8223,SKIP,0,6149,6880,0,0,,,1
5eb201f369cc97175a5a6490,tyvqy6sdzq,Trevor_EX2,1,171,2020-07-23T15:09:42-07:00,3.0939178466797,1,Pure_Unrelated.csv,JOL_S_VersionA.csv,"Size U A","Size U A",INFLATE,DISGUST,Study1,U,76,23,Test,User,-,,Recall,Recall2,2778,SKIP,18.181818181818,1156,2173,0,0,,,1
5eb201f369cc97175a5a6490,tyvqy6sdzq,Trevor_EX2,1,172,2020-07-23T15:09:44-07:00,2.5121932029724,1,Pure_Unrelated.csv,JOL_S_VersionA.csv,"Size U A","Size U A",SLIM,KNOW,Study2,U,164,67,Test,User,-,,Recall,Recall2,2193,SKIP,25,822,1340,0,0,,,1
5eb201f369cc97175a5a6490,tyvqy6sdzq,Trevor_EX2,1,173,2020-07-23T15:09:47-07:00,2.9048597812653,1,Pure_Unrelated.csv,JOL_S_VersionA.csv,"Size U A","Size U A",PUT,ROLL,Study2,U,163,57,Test,User,-,,Recall,Recall2,2574,SKIP,0,809,1444,0,0,,,1
5eb201f369cc97175a5a6490,tyvqy6sdzq,Trevor_EX2,1,174,2020-07-23T15:09:52-07:00,4.7391841411591,1,Pure_Unrelated.csv,JOL_S_VersionA.csv,"Size U A","Size U A",ROAD,SCENT,Study2,U,166,96,Test,User,-,,Recall,Recall2,4421,SKIP,22.222222222222,2530,3167,0,0,,,1
5eb201f369cc97175a5a6490,tyvqy6sdzq,Trevor_EX2,1,175,2020-07-23T15:10:05-07:00,12.861247062683,1,Pure_Unrelated.csv,JOL_S_VersionA.csv,"Size U A","Size U A",WASTE,SEDATE,Study2,U,165,71,Test,User,-,,Recall,Recall2,12539,HIDE,40,10339,12092,0,0,,,1
5eb201f369cc97175a5a6490,tyvqy6sdzq,Trevor_EX2,1,176,2020-07-23T15:10:15-07:00,10.01698589325,1,Pure_Unrelated.csv,JOL_S_VersionA.csv,"Size U A","Size U A",CAR,HAPPY,Study2,U,107,92,Test,User,-,,Recall,Recall2,9686,ADVENTURE,14.285714285714,6589,8749,0,0,,,1
5eb201f369cc97175a5a6490,tyvqy6sdzq,Trevor_EX2,1,177,2020-07-23T15:10:19-07:00,4.440258026123,1,Pure_Unrelated.csv,JOL_S_VersionA.csv,"Size U A","Size U A",NULL,COUGH,Study2,U,156,91,Test,User,-,,Recall,Recall2,4114,SKIP,0,2648,3079,0,0,,,1
5eb201f369cc97175a5a6490,tyvqy6sdzq,Trevor_EX2,1,178,2020-07-23T15:10:23-07:00,3.4492919445038,1,Pure_Unrelated.csv,JOL_S_VersionA.csv,"Size U A","Size U A",WOULD,CASH,Study2,U,113,75,Test,User,-,,Recall,Recall2,2736,CASH,100,1592,2058,1,1,,,1
5eb201f369cc97175a5a6490,tyvqy6sdzq,Trevor_EX2,1,179,2020-07-23T15:10:28-07:00,5.2030961513519,1,Pure_Unrelated.csv,JOL_S_VersionA.csv,"Size U A","Size U A",ZOO,THUMB,Study2,U,168,70,Test,User,-,,Recall,Recall2,4701,LION,0,1868,4058,0,0,,,1
5eb201f369cc97175a5a6490,tyvqy6sdzq,Trevor_EX2,1,180,2020-07-23T15:10:31-07:00,2.8218579292297,1,Pure_Unrelated.csv,JOL_S_VersionA.csv,"Size U A","Size U A",WOMAN,LIFT,Study2,U,99,64,Test,User,-,,Recall,Recall2,2501,LIFT,100,1335,1877,1,1,,,1
5eb201f369cc97175a5a6490,tyvqy6sdzq,Trevor_EX2,1,181,2020-07-23T15:10:34-07:00,3.5287840366364,1,Pure_Unrelated.csv,JOL_S_VersionA.csv,"Size U A","Size U A",CLUTTER,PUSHER,Study2,U,96,59,Test,User,-,,Recall,Recall2,3199,SKIP,20,1003,2592,0,0,,,1
5eb201f369cc97175a5a6490,tyvqy6sdzq,Trevor_EX2,1,182,2020-07-23T15:10:38-07:00,3.7114019393921,1,Pure_Unrelated.csv,JOL_S_VersionA.csv,"Size U A","Size U A",Business,Death,Study2,U,102,94,Test,User,-,,Recall,Recall2,3383,DEATH,100,1682,2346,1,1,,,1
5eb201f369cc97175a5a6490,tyvqy6sdzq,Trevor_EX2,1,183,2020-07-23T15:10:41-07:00,2.9426100254059,1,Pure_Unrelated.csv,JOL_S_VersionA.csv,"Size U A","Size U A",SICK,HIDE,Study2,U,114,76,Test,User,-,,Recall,Recall2,2610,HIDE,100,1622,2136,1,1,,,1
5eb201f369cc97175a5a6490,tyvqy6sdzq,Trevor_EX2,1,184,2020-07-23T15:10:44-07:00,2.7989959716797,1,Pure_Unrelated.csv,JOL_S_VersionA.csv,"Size U A","Size U A",DESIRE,NOISE,Study2,U,169,93,Test,User,-,,Recall,Recall2,2479,SKIP,22.222222222222,1225,1611,0,0,,,1
5eb201f369cc97175a5a6490,tyvqy6sdzq,Trevor_EX2,1,185,2020-07-23T15:10:46-07:00,2.1282598972321,1,Pure_Unrelated.csv,JOL_S_VersionA.csv,"Size U A","Size U A",CLUTTER,PUSHER,Study2,U,96,59,Test,User,-,,Recall,Recall2,1876,SKIP,20,749,1196,0,0,,,1
5eb201f369cc97175a5a6490,tyvqy6sdzq,Trevor_EX2,1,186,2020-07-23T15:10:48-07:00,2.5131180286407,1,Pure_Unrelated.csv,JOL_S_VersionA.csv,"Size U A","Size U A",PUFF,NUMBER,Study2,U,171,72,Test,User,-,,Recall,Recall2,2191,SKIP,0,812,1271,0,0,,,1
5eb201f369cc97175a5a6490,tyvqy6sdzq,Trevor_EX2,1,187,2020-07-23T15:10:54-07:00,5.380676984787,1,Pure_Unrelated.csv,JOL_S_VersionA.csv,"Size U A","Size U A",ACCIDENT,STRONG,Study2,U,110,65,Test,User,-,,Recall,Recall2,5045,SKIP,20,2145,4483,0,0,,,1
5eb201f369cc97175a5a6490,tyvqy6sdzq,Trevor_EX2,1,188,2020-07-23T15:11:00-07:00,6.4536809921265,1,Pure_Unrelated.csv,JOL_S_VersionA.csv,"Size U A","Size U A",FLOAT,HARMONY,Study2,U,161,61,Test,User,-,,Recall,Recall2,2118,SKIP,0,1063,1627,0,0,,,0.909
5eb201f369cc97175a5a6490,tyvqy6sdzq,Trevor_EX2,1,189,2020-07-23T15:11:06-07:00,5.3814961910248,1,Pure_Unrelated.csv,JOL_S_VersionA.csv,"Size U A","Size U A",GUARD,WHEEL,Study2,U,170,86,Test,User,-,,Recall,Recall2,5052,WHEEL,100,1200,4110,1,1,,,1
5eb201f369cc97175a5a6490,tyvqy6sdzq,Trevor_EX2,1,190,2020-07-23T15:11:08-07:00,2.5220189094543,1,Pure_Unrelated.csv,JOL_S_VersionA.csv,"Size U A","Size U A",TUCK,ALLOW,Study2,U,108,87,Test,User,-,,Recall,Recall2,2190,SKIP,0,865,1384,0,0,,,1
5eb201f369cc97175a5a6490,tyvqy6sdzq,Trevor_EX2,1,191,2020-07-23T15:11:12-07:00,3.849839925766,1,Pure_Unrelated.csv,JOL_S_VersionA.csv,"Size U A","Size U A",READY,CORN,Study2,U,158,68,Test,User,-,,Recall,Recall2,3522,SKIP,0,1171,2077,0,0,,,1
5eb201f369cc97175a5a6490,tyvqy6sdzq,Trevor_EX2,1,192,2020-07-23T15:11:18-07:00,5.6046600341797,1,Pure_Unrelated.csv,JOL_S_VersionA.csv,"Size U A","Size U A",ADD,VALLEY,Study2,U,112,60,Test,User,-,,Recall,Recall2,5283,FISH,0,928,4606,0,0,,,1
5eb201f369cc97175a5a6490,tyvqy6sdzq,Trevor_EX2,1,193,2020-07-23T15:11:23-07:00,5.1459019184113,1,Pure_Unrelated.csv,JOL_S_VersionA.csv,"Size U A","Size U A",SACKING,DIETARY,Study2,U,97,77,Test,User,-,,Recall,Recall2,4820,SKIP,18.181818181818,1106,3943,0,0,,,1
5eb201f369cc97175a5a6490,tyvqy6sdzq,Trevor_EX2,1,194,2020-07-23T15:11:29-07:00,6.3957171440125,1,Pure_Unrelated.csv,JOL_S_VersionA.csv,"Size U A","Size U A",HUNGRY,PARK,Study2,U,98,78,Test,User,-,,Recall,Recall2,5948,PARK,100,2414,5142,1,1,,,1
5eb201f369cc97175a5a6490,tyvqy6sdzq,Trevor_EX2,1,195,2020-07-23T15:11:32-07:00,2.7937710285187,1,Pure_Unrelated.csv,JOL_S_VersionA.csv,"Size U A","Size U A",,,,,,0,Instruct,User,-,"You have completed this section. Please press Enter.",,Instruct7,1451,,,-1,-1,,,,,1
5eb201f369cc97175a5a6490,tyvqy6sdzq,Trevor_EX2,1,196,2020-07-23T15:11:35-07:00,2.6446130275726,1,Pure_Unrelated.csv,JOL_S_VersionA.csv,"Size U A","Size U A",,,,,,0,Instruct,User,-,"The following screen will ask you a few questions abour your experience today. You must complete these questions to receive credit.",,Instruct8,2328,,,-1,-1,,,,,1
