Username,ID,ExperimentName,Session,Trial,Date,TimeDif,"Condition Number","Stimuli File","Order File","Condition Description","Condition Notes",Stimuli*Cue,Stimuli*Answer,Stimuli*Shuffle,"Stimuli*Stimuli Notes",Stimuli*Value,Procedure*Item,"Procedure*Trial Type","Procedure*Max Time","Procedure*Min Time",Procedure*Text,"Procedure*Procedure Notes",Procedure*Shuffle,Response*RT,Response*Response,Response*Accuracy,Response*RTfirst,Response*RTlast,Response*strictAcc,Response*lenientAcc,Response*focus,Response*JOL,Response*Focus
5e6449ae5932461d728d2152,zz19xw94v5,Trevor_EX2,1,1,2020-07-23T14:40:55-07:00,22.757477998734,2,Pure_Unrelated.csv,JOL_S_VersionB.csv,"Size U B","Size U B",,,,,,0,Instruct,-,5,"In this section, you will be presented with a series of word pairs.",Initial_Instruct,Instruct1,22559,,,-1,-1,,,,,0.652
5e6449ae5932461d728d2152,zz19xw94v5,Trevor_EX2,1,2,2020-07-23T14:41:54-07:00,58.440740823746,2,Pure_Unrelated.csv,JOL_S_VersionB.csv,"Size U B","Size U B",,,,,,0,Instruct,-,5,"As you study, you will be asked to rate your ability to remember the second item in the pair if you were only shown the first at test. You will make these ratings using a 0 to 100 Scale.",,Instruct13,58191,,,-1,-1,,,,,1
5e6449ae5932461d728d2152,zz19xw94v5,Trevor_EX2,1,3,2020-07-23T14:42:26-07:00,32.478362083435,2,Pure_Unrelated.csv,JOL_S_VersionB.csv,"Size U B","Size U B",,,,,,0,Instruct,-,10,"For example, if you are given the pair CAT - DOG, a rating of 0 indicates that you would not remember DOG at test, while a rating of 100 indicates full certainty that you would remember the word DOG at test.",,Instruct14,32225,,,-1,-1,,,,,1
5e6449ae5932461d728d2152,zz19xw94v5,Trevor_EX2,1,4,2020-07-23T14:42:39-07:00,12.604082107544,2,Pure_Unrelated.csv,JOL_S_VersionB.csv,"Size U B","Size U B",,,,,,0,Instruct,-,10,"When making your ratings, it is criticial that you use the full range of the scale. You will be disqualified for only giving ratings of 0 or 100! After making your rating, press Enter to advance to the next pair.",,Instruct15,12376,,,-1,-1,,,,,1
5e6449ae5932461d728d2152,zz19xw94v5,Trevor_EX2,1,5,2020-07-23T14:42:41-07:00,2.1633667945862,2,Pure_Unrelated.csv,JOL_S_VersionB.csv,"Size U B","Size U B",,,,,,0,Instruct,User,-,"You will now begin the study. Press Enter when you are ready to begin.",,Instruct16,1909,,,-1,-1,,,,,1
5e6449ae5932461d728d2152,zz19xw94v5,Trevor_EX2,1,6,2020-07-23T14:42:54-07:00,12.85031414032,2,Pure_Unrelated.csv,JOL_S_VersionB.csv,"Size U B","Size U B",NOODLE,STRING,BUFFER3,Buffer,92,55,JOL_Large,User,-,"How likely are you to correctly recall the second item in the pair?|Type your response on a scale from 0-100 and then press Enter.",Study/JOL,BUFFER,12624,,,4137,4884,,,,50,0.531
5e6449ae5932461d728d2152,zz19xw94v5,Trevor_EX2,1,7,2020-07-23T14:42:58-07:00,4.0694849491119,2,Pure_Unrelated.csv,JOL_S_VersionB.csv,"Size U B","Size U B",CAMP,ADVENTURE,BUFFER3,Buffer,95,56,JOL_Large,User,-,"How likely are you to correctly recall the second item in the pair?|Type your response on a scale from 0-100 and then press Enter.",Study/JOL,BUFFER,3838,,,1941,2188,,,,80,1
5e6449ae5932461d728d2152,zz19xw94v5,Trevor_EX2,1,8,2020-07-23T14:43:13-07:00,15.261297941208,2,Pure_Unrelated.csv,JOL_S_VersionB.csv,"Size U B","Size U B",CARROT,POTATO,BUFFER3,Buffer,91,53,JOL_Small,User,-,"How likely are you to correctly recall the second item in the pair?|Type your response on a scale from 0-100 and then press Enter.",Study/JOL,BUFFER,14990,,,13076,13700,,,,40,0.387
5e6449ae5932461d728d2152,zz19xw94v5,Trevor_EX2,1,9,2020-07-23T14:43:30-07:00,17.105070114136,2,Pure_Unrelated.csv,JOL_S_VersionB.csv,"Size U B","Size U B",ICE,FROZEN,BUFFER3,Buffer,94,52,JOL_Small,User,-,"How likely are you to correctly recall the second item in the pair?|Type your response on a scale from 0-100 and then press Enter.",Study/JOL,BUFFER,16835,,,15262,15454,,,,90,0.212
5e6449ae5932461d728d2152,zz19xw94v5,Trevor_EX2,1,10,2020-07-23T14:43:40-07:00,9.8015458583832,2,Pure_Unrelated.csv,JOL_S_VersionB.csv,"Size U B","Size U B",SHRIMP,FISH,BUFFER3,Buffer,93,54,JOL_Small,User,-,"How likely are you to correctly recall the second item in the pair?|Type your response on a scale from 0-100 and then press Enter.",Study/JOL,BUFFER,9561,,,8127,8418,,,,75,0.313
5e6449ae5932461d728d2152,zz19xw94v5,Trevor_EX2,1,11,2020-07-23T14:44:00-07:00,19.518270015717,2,Pure_Unrelated.csv,JOL_S_VersionB.csv,"Size U B","Size U B",GUARD,WHEEL,Study2,U,170,87,JOL_Small,User,-,"How likely are you to correctly recall the second item in the pair?|Type your response on a scale from 0-100 and then press Enter.",Study/JOL,"Study Phase",19268,,,12392,17673,,,,30,0.485
5e6449ae5932461d728d2152,zz19xw94v5,Trevor_EX2,1,12,2020-07-23T14:44:07-07:00,7.589387178421,2,Pure_Unrelated.csv,JOL_S_VersionB.csv,"Size U B","Size U B",WOMAN,LIFT,Study2,U,99,64,JOL_Large,User,-,"How likely are you to correctly recall the second item in the pair?|Type your response on a scale from 0-100 and then press Enter.",Study/JOL,"Study Phase",6270,,,3004,5009,,,,55,1
5e6449ae5932461d728d2152,zz19xw94v5,Trevor_EX2,1,13,2020-07-23T14:44:21-07:00,13.614503860474,2,Pure_Unrelated.csv,JOL_S_VersionB.csv,"Size U B","Size U B",WOULD,CASH,Study2,U,113,74,JOL_Large,User,-,"How likely are you to correctly recall the second item in the pair?|Type your response on a scale from 0-100 and then press Enter.",Study/JOL,"Study Phase",13282,,,11314,11942,,,,25,0.358
5e6449ae5932461d728d2152,zz19xw94v5,Trevor_EX2,1,14,2020-07-23T14:44:44-07:00,23.429988145828,2,Pure_Unrelated.csv,JOL_S_VersionB.csv,"Size U B","Size U B",LION,ART,Study2,U,109,75,JOL_Large,User,-,"How likely are you to correctly recall the second item in the pair?|Type your response on a scale from 0-100 and then press Enter.",Study/JOL,"Study Phase",23194,,,20995,21446,,,,30,0.681
5e6449ae5932461d728d2152,zz19xw94v5,Trevor_EX2,1,15,2020-07-23T14:45:01-07:00,16.398270845413,2,Pure_Unrelated.csv,JOL_S_VersionB.csv,"Size U B","Size U B",SACKING,DIETARY,Study2,U,97,88,JOL_Small,User,-,"How likely are you to correctly recall the second item in the pair?|Type your response on a scale from 0-100 and then press Enter.",Study/JOL,"Study Phase",16163,,,15125,15480,,,,15,0.383
5e6449ae5932461d728d2152,zz19xw94v5,Trevor_EX2,1,16,2020-07-23T14:45:14-07:00,13.914767026901,2,Pure_Unrelated.csv,JOL_S_VersionB.csv,"Size U B","Size U B",CAR,HAPPY,Study2,U,107,95,JOL_Small,User,-,"How likely are you to correctly recall the second item in the pair?|Type your response on a scale from 0-100 and then press Enter.",Study/JOL,"Study Phase",13663,,,12666,13044,,,,50,0.551
5e6449ae5932461d728d2152,zz19xw94v5,Trevor_EX2,1,17,2020-07-23T14:45:23-07:00,8.9485690593719,2,Pure_Unrelated.csv,JOL_S_VersionB.csv,"Size U B","Size U B",HAND,FIX,Study2,U,105,69,JOL_Large,User,-,"How likely are you to correctly recall the second item in the pair?|Type your response on a scale from 0-100 and then press Enter.",Study/JOL,"Study Phase",8657,,,7705,7905,,,,55,0.409
5e6449ae5932461d728d2152,zz19xw94v5,Trevor_EX2,1,18,2020-07-23T14:45:35-07:00,11.570991039276,2,Pure_Unrelated.csv,JOL_S_VersionB.csv,"Size U B","Size U B",VASE,KING,Study2,U,115,71,JOL_Large,User,-,"How likely are you to correctly recall the second item in the pair?|Type your response on a scale from 0-100 and then press Enter.",Study/JOL,"Study Phase",11300,,,8580,8824,,,,12,0.544
5e6449ae5932461d728d2152,zz19xw94v5,Trevor_EX2,1,19,2020-07-23T14:45:49-07:00,14.17573595047,2,Pure_Unrelated.csv,JOL_S_VersionB.csv,"Size U B","Size U B",PUFF,NUMBER,Study2,U,171,90,JOL_Small,User,-,"How likely are you to correctly recall the second item in the pair?|Type your response on a scale from 0-100 and then press Enter.",Study/JOL,"Study Phase",13923,,,12049,13155,,,,15,0.529
5e6449ae5932461d728d2152,zz19xw94v5,Trevor_EX2,1,20,2020-07-23T14:46:03-07:00,13.332953929901,2,Pure_Unrelated.csv,JOL_S_VersionB.csv,"Size U B","Size U B",CLUTTER,PUSHER,Study2,U,96,85,JOL_Small,User,-,"How likely are you to correctly recall the second item in the pair?|Type your response on a scale from 0-100 and then press Enter.",Study/JOL,"Study Phase",13067,,,12276,12784,,,,20,0.394
5e6449ae5932461d728d2152,zz19xw94v5,Trevor_EX2,1,21,2020-07-23T14:46:12-07:00,9.0340960025787,2,Pure_Unrelated.csv,JOL_S_VersionB.csv,"Size U B","Size U B",WASTE,SEDATE,Study2,U,165,80,JOL_Small,User,-,"How likely are you to correctly recall the second item in the pair?|Type your response on a scale from 0-100 and then press Enter.",Study/JOL,"Study Phase",8767,,,8154,8460,,,,35,0.386
5e6449ae5932461d728d2152,zz19xw94v5,Trevor_EX2,1,22,2020-07-23T14:46:18-07:00,6.173614025116,2,Pure_Unrelated.csv,JOL_S_VersionB.csv,"Size U B","Size U B",SYSTEM,LICK,Study2,U,167,79,JOL_Small,User,-,"How likely are you to correctly recall the second item in the pair?|Type your response on a scale from 0-100 and then press Enter.",Study/JOL,"Study Phase",5911,,,4299,4781,,,,40,1
5e6449ae5932461d728d2152,zz19xw94v5,Trevor_EX2,1,23,2020-07-23T14:46:32-07:00,14.160881996155,2,Pure_Unrelated.csv,JOL_S_VersionB.csv,"Size U B","Size U B",DETECT,FREE,Study2,U,162,67,JOL_Large,User,-,"How likely are you to correctly recall the second item in the pair?|Type your response on a scale from 0-100 and then press Enter.",Study/JOL,"Study Phase",13924,,,13268,13580,,,,60,0.243
5e6449ae5932461d728d2152,zz19xw94v5,Trevor_EX2,1,24,2020-07-23T14:46:36-07:00,3.909040927887,2,Pure_Unrelated.csv,JOL_S_VersionB.csv,"Size U B","Size U B",FLOOR,DISCOVER,Study2,U,101,84,JOL_Small,User,-,"How likely are you to correctly recall the second item in the pair?|Type your response on a scale from 0-100 and then press Enter.",Study/JOL,"Study Phase",3375,,,2713,3045,,,,75,1
5e6449ae5932461d728d2152,zz19xw94v5,Trevor_EX2,1,25,2020-07-23T14:46:55-07:00,19.277556180954,2,Pure_Unrelated.csv,JOL_S_VersionB.csv,"Size U B","Size U B",ADD,VALLEY,Study2,U,112,82,JOL_Small,User,-,"How likely are you to correctly recall the second item in the pair?|Type your response on a scale from 0-100 and then press Enter.",Study/JOL,"Study Phase",18968,,,18340,18678,,,,50,0.168
5e6449ae5932461d728d2152,zz19xw94v5,Trevor_EX2,1,26,2020-07-23T14:47:00-07:00,4.591668844223,2,Pure_Unrelated.csv,JOL_S_VersionB.csv,"Size U B","Size U B",SLIM,KNOW,Study2,U,164,61,JOL_Large,User,-,"How likely are you to correctly recall the second item in the pair?|Type your response on a scale from 0-100 and then press Enter.",Study/JOL,"Study Phase",4351,,,3644,4011,,,,60,1
5e6449ae5932461d728d2152,zz19xw94v5,Trevor_EX2,1,27,2020-07-23T14:47:13-07:00,13.805230140686,2,Pure_Unrelated.csv,JOL_S_VersionB.csv,"Size U B","Size U B",RIDDLE,SUGAR,Study2,U,111,81,JOL_Small,User,-,"How likely are you to correctly recall the second item in the pair?|Type your response on a scale from 0-100 and then press Enter.",Study/JOL,"Study Phase",13531,,,11107,12525,,,,65,0.412
5e6449ae5932461d728d2152,zz19xw94v5,Trevor_EX2,1,28,2020-07-23T14:47:31-07:00,17.334100961685,2,Pure_Unrelated.csv,JOL_S_VersionB.csv,"Size U B","Size U B",SMOOTH,OMIT,Study2,U,157,86,JOL_Small,User,-,"How likely are you to correctly recall the second item in the pair?|Type your response on a scale from 0-100 and then press Enter.",Study/JOL,"Study Phase",17064,,,7049,7469,,,,70,0.547
5e6449ae5932461d728d2152,zz19xw94v5,Trevor_EX2,1,29,2020-07-23T14:47:40-07:00,9.6230659484863,2,Pure_Unrelated.csv,JOL_S_VersionB.csv,"Size U B","Size U B",READY,CORN,Study2,U,158,65,JOL_Large,User,-,"How likely are you to correctly recall the second item in the pair?|Type your response on a scale from 0-100 and then press Enter.",Study/JOL,"Study Phase",9394,,,8439,8976,,,,45,0.447
5e6449ae5932461d728d2152,zz19xw94v5,Trevor_EX2,1,30,2020-07-23T14:48:03-07:00,22.51037311554,2,Pure_Unrelated.csv,JOL_S_VersionB.csv,"Size U B","Size U B",POSITION,MACHINE,Study2,U,106,96,JOL_Small,User,-,"How likely are you to correctly recall the second item in the pair?|Type your response on a scale from 0-100 and then press Enter.",Study/JOL,"Study Phase",22238,,,21188,21434,,,,65,0.179
5e6449ae5932461d728d2152,zz19xw94v5,Trevor_EX2,1,31,2020-07-23T14:48:13-07:00,10.189939022064,2,Pure_Unrelated.csv,JOL_S_VersionB.csv,"Size U B","Size U B",PUT,ROLL,Study2,U,163,60,JOL_Large,User,-,"How likely are you to correctly recall the second item in the pair?|Type your response on a scale from 0-100 and then press Enter.",Study/JOL,"Study Phase",9903,,,8967,9222,,,,55,0.48
5e6449ae5932461d728d2152,zz19xw94v5,Trevor_EX2,1,32,2020-07-23T14:48:27-07:00,14.277021884918,2,Pure_Unrelated.csv,JOL_S_VersionB.csv,"Size U B","Size U B",LAKE,OPINION,Study2,U,160,91,JOL_Small,User,-,"How likely are you to correctly recall the second item in the pair?|Type your response on a scale from 0-100 and then press Enter.",Study/JOL,"Study Phase",14035,,,4214,5678,,,,65,0.549
5e6449ae5932461d728d2152,zz19xw94v5,Trevor_EX2,1,33,2020-07-23T14:48:49-07:00,21.533699989319,2,Pure_Unrelated.csv,JOL_S_VersionB.csv,"Size U B","Size U B",SIGHT,DEBATE,Study2,U,103,92,JOL_Small,User,-,"How likely are you to correctly recall the second item in the pair?|Type your response on a scale from 0-100 and then press Enter.",Study/JOL,"Study Phase",21273,,,20741,20993,,,,80,0.168
5e6449ae5932461d728d2152,zz19xw94v5,Trevor_EX2,1,34,2020-07-23T14:48:54-07:00,5.2464239597321,2,Pure_Unrelated.csv,JOL_S_VersionB.csv,"Size U B","Size U B",TAX,OWL,Study1,U,72,23,JOL_Small,User,-,"How likely are you to correctly recall the second item in the pair?|Type your response on a scale from 0-100 and then press Enter.",Study/JOL,"Study Phase",5024,,,2968,4415,,,,60,1
5e6449ae5932461d728d2152,zz19xw94v5,Trevor_EX2,1,35,2020-07-23T14:49:11-07:00,16.649597167969,2,Pure_Unrelated.csv,JOL_S_VersionB.csv,"Size U B","Size U B",HUNGRY,PARK,Study2,U,98,72,JOL_Large,User,-,"How likely are you to correctly recall the second item in the pair?|Type your response on a scale from 0-100 and then press Enter.",Study/JOL,"Study Phase",16395,,,12558,16104,,,,80,0.427
5e6449ae5932461d728d2152,zz19xw94v5,Trevor_EX2,1,36,2020-07-23T14:49:17-07:00,6.0480129718781,2,Pure_Unrelated.csv,JOL_S_VersionB.csv,"Size U B","Size U B",SICK,HIDE,Study2,U,114,89,JOL_Small,User,-,"How likely are you to correctly recall the second item in the pair?|Type your response on a scale from 0-100 and then press Enter.",Study/JOL,"Study Phase",5726,,,4083,4792,,,,60,1
5e6449ae5932461d728d2152,zz19xw94v5,Trevor_EX2,1,37,2020-07-23T14:49:40-07:00,23.111418008804,2,Pure_Unrelated.csv,JOL_S_VersionB.csv,"Size U B","Size U B",MUTE,WAVE,Study2,U,173,59,JOL_Large,User,-,"How likely are you to correctly recall the second item in the pair?|Type your response on a scale from 0-100 and then press Enter.",Study/JOL,"Study Phase",22870,,,18753,22021,,,,80,0.452
5e6449ae5932461d728d2152,zz19xw94v5,Trevor_EX2,1,38,2020-07-23T14:49:54-07:00,13.670219898224,2,Pure_Unrelated.csv,JOL_S_VersionB.csv,"Size U B","Size U B",ROAD,SCENT,Study2,U,166,62,JOL_Large,User,-,"How likely are you to correctly recall the second item in the pair?|Type your response on a scale from 0-100 and then press Enter.",Study/JOL,"Study Phase",12451,,,11424,11920,,,,85,0.587
5e6449ae5932461d728d2152,zz19xw94v5,Trevor_EX2,1,39,2020-07-23T14:50:09-07:00,15.134953022003,2,Pure_Unrelated.csv,JOL_S_VersionB.csv,"Size U B","Size U B",DESIRE,NOISE,Study2,U,169,63,JOL_Large,User,-,"How likely are you to correctly recall the second item in the pair?|Type your response on a scale from 0-100 and then press Enter.",Study/JOL,"Study Phase",14889,,,10048,14384,,,,75,0.56
5e6449ae5932461d728d2152,zz19xw94v5,Trevor_EX2,1,40,2020-07-23T14:50:18-07:00,9.5016360282898,2,Pure_Unrelated.csv,JOL_S_VersionB.csv,"Size U B","Size U B",FLOAT,HARMONY,Study2,U,161,57,JOL_Large,User,-,"How likely are you to correctly recall the second item in the pair?|Type your response on a scale from 0-100 and then press Enter.",Study/JOL,"Study Phase",9233,,,8614,8993,,,,70,0.34
5e6449ae5932461d728d2152,zz19xw94v5,Trevor_EX2,1,41,2020-07-23T14:50:31-07:00,12.468231916428,2,Pure_Unrelated.csv,JOL_S_VersionB.csv,"Size U B","Size U B",ACCIDENT,STRONG,Study2,U,110,76,JOL_Large,User,-,"How likely are you to correctly recall the second item in the pair?|Type your response on a scale from 0-100 and then press Enter.",Study/JOL,"Study Phase",12202,,,11087,11689,,,,80,0.328
5e6449ae5932461d728d2152,zz19xw94v5,Trevor_EX2,1,42,2020-07-23T14:50:45-07:00,13.976343154907,2,Pure_Unrelated.csv,JOL_S_VersionB.csv,"Size U B","Size U B",BELT,SOON,Study2,U,100,66,JOL_Large,User,-,"How likely are you to correctly recall the second item in the pair?|Type your response on a scale from 0-100 and then press Enter.",Study/JOL,"Study Phase",13652,,,8680,13396,,,,70,0.58
5e6449ae5932461d728d2152,zz19xw94v5,Trevor_EX2,1,43,2020-07-23T14:50:56-07:00,10.957380771637,2,Pure_Unrelated.csv,JOL_S_VersionB.csv,"Size U B","Size U B",Business,Death,Study2,U,102,93,JOL_Small,User,-,"How likely are you to correctly recall the second item in the pair?|Type your response on a scale from 0-100 and then press Enter.",Study/JOL,"Study Phase",10668,,,9998,10248,,,,65,0.333
5e6449ae5932461d728d2152,zz19xw94v5,Trevor_EX2,1,44,2020-07-23T14:51:18-07:00,21.967881202698,2,Pure_Unrelated.csv,JOL_S_VersionB.csv,"Size U B","Size U B",MUTE,WAVE,Study2,U,173,59,JOL_Large,User,-,"How likely are you to correctly recall the second item in the pair?|Type your response on a scale from 0-100 and then press Enter.",Study/JOL,"Study Phase",21715,,,18231,21383,,,,50,0.349
5e6449ae5932461d728d2152,zz19xw94v5,Trevor_EX2,1,45,2020-07-23T14:51:29-07:00,11.100579023361,2,Pure_Unrelated.csv,JOL_S_VersionB.csv,"Size U B","Size U B",SPELL,BONE,Study2,U,174,68,JOL_Large,User,-,"How likely are you to correctly recall the second item in the pair?|Type your response on a scale from 0-100 and then press Enter.",Study/JOL,"Study Phase",10856,,,10044,10600,,,,60,0.4
5e6449ae5932461d728d2152,zz19xw94v5,Trevor_EX2,1,46,2020-07-23T14:51:32-07:00,3.6688058376312,2,Pure_Unrelated.csv,JOL_S_VersionB.csv,"Size U B","Size U B",ZOO,THUMB,Study2,U,168,94,JOL_Small,User,-,"How likely are you to correctly recall the second item in the pair?|Type your response on a scale from 0-100 and then press Enter.",Study/JOL,"Study Phase",3390,,,1898,3111,,,,45,1
5e6449ae5932461d728d2152,zz19xw94v5,Trevor_EX2,1,47,2020-07-23T14:51:45-07:00,12.996251106262,2,Pure_Unrelated.csv,JOL_S_VersionB.csv,"Size U B","Size U B",JELLY,NAUGHTY,Study2,U,172,70,JOL_Large,User,-,"How likely are you to correctly recall the second item in the pair?|Type your response on a scale from 0-100 and then press Enter.",Study/JOL,"Study Phase",12752,,,11821,12440,,,,40,0.313
5e6449ae5932461d728d2152,zz19xw94v5,Trevor_EX2,1,48,2020-07-23T14:52:02-07:00,16.708539962769,2,Pure_Unrelated.csv,JOL_S_VersionB.csv,"Size U B","Size U B",STOMACH,TOWN,Study2,U,159,77,JOL_Small,User,-,"How likely are you to correctly recall the second item in the pair?|Type your response on a scale from 0-100 and then press Enter.",Study/JOL,"Study Phase",16457,,,14376,16149,,,,65,0.458
5e6449ae5932461d728d2152,zz19xw94v5,Trevor_EX2,1,49,2020-07-23T14:52:12-07:00,10.330087900162,2,Pure_Unrelated.csv,JOL_S_VersionB.csv,"Size U B","Size U B",BRONZE,ARTERY,Study2,U,104,73,JOL_Large,User,-,"How likely are you to correctly recall the second item in the pair?|Type your response on a scale from 0-100 and then press Enter.",Study/JOL,"Study Phase",10096,,,8965,9244,,,,65,0.373
5e6449ae5932461d728d2152,zz19xw94v5,Trevor_EX2,1,50,2020-07-23T14:52:26-07:00,13.375348091125,2,Pure_Unrelated.csv,JOL_S_VersionB.csv,"Size U B","Size U B",SWING,FOG,Study2,U,175,78,JOL_Small,User,-,"How likely are you to correctly recall the second item in the pair?|Type your response on a scale from 0-100 and then press Enter.",Study/JOL,"Study Phase",13113,,,12108,12831,,,,25,0.318
5e6449ae5932461d728d2152,zz19xw94v5,Trevor_EX2,1,51,2020-07-23T14:52:29-07:00,3.4075980186462,2,Pure_Unrelated.csv,JOL_S_VersionB.csv,"Size U B","Size U B",SPRING,MARCH,BUFFER4,Buffer,179,101,JOL_Large,User,-,"How likely are you to correctly recall the second item in the pair?|Type your response on a scale from 0-100 and then press Enter.",Study/JOL,BUFFER2,3126,,,2531,2739,,,,80,1
5e6449ae5932461d728d2152,zz19xw94v5,Trevor_EX2,1,52,2020-07-23T14:52:32-07:00,2.9284460544586,2,Pure_Unrelated.csv,JOL_S_VersionB.csv,"Size U B","Size U B",OCTOBER,SPOOKY,BUFFER4,Buffer,180,99,JOL_Small,User,-,"How likely are you to correctly recall the second item in the pair?|Type your response on a scale from 0-100 and then press Enter.",Study/JOL,BUFFER2,2681,,,1919,2149,,,,90,1
5e6449ae5932461d728d2152,zz19xw94v5,Trevor_EX2,1,53,2020-07-23T14:52:48-07:00,15.73331785202,2,Pure_Unrelated.csv,JOL_S_VersionB.csv,"Size U B","Size U B",DAYS,WEEKS,BUFFER4,Buffer,176,100,JOL_Small,User,-,"How likely are you to correctly recall the second item in the pair?|Type your response on a scale from 0-100 and then press Enter.",Study/JOL,BUFFER2,15478,,,14631,15088,,,,85,0.218
5e6449ae5932461d728d2152,zz19xw94v5,Trevor_EX2,1,54,2020-07-23T14:52:51-07:00,2.9867680072784,2,Pure_Unrelated.csv,JOL_S_VersionB.csv,"Size U B","Size U B",TOOL,SHED,BUFFER4,Buffer,178,97,JOL_Large,User,-,"How likely are you to correctly recall the second item in the pair?|Type your response on a scale from 0-100 and then press Enter.",Study/JOL,BUFFER2,2680,,,1561,2110,,,,90,1
5e6449ae5932461d728d2152,zz19xw94v5,Trevor_EX2,1,55,2020-07-23T14:53:04-07:00,12.969162940979,2,Pure_Unrelated.csv,JOL_S_VersionB.csv,"Size U B","Size U B",MONTH,YEAR,BUFFER4,Buffer,177,98,JOL_Large,User,-,"How likely are you to correctly recall the second item in the pair?|Type your response on a scale from 0-100 and then press Enter.",Study/JOL,BUFFER2,12740,,,9425,12353,,,,90,0.469
5e6449ae5932461d728d2152,zz19xw94v5,Trevor_EX2,1,56,2020-07-23T14:53:06-07:00,1.9181590080261,2,Pure_Unrelated.csv,JOL_S_VersionB.csv,"Size U B","Size U B",,,,,,0,Instruct,User,-,"You have completed this section. Please press Enter.",Filler_Instruction,Instruct2,1702,,,-1,-1,,,,,1
5e6449ae5932461d728d2152,zz19xw94v5,Trevor_EX2,1,57,2020-07-23T14:55:06-07:00,120.54923605919,2,Pure_Unrelated.csv,JOL_S_VersionB.csv,"Size U B","Size U B",,,,,,0,FreeRecall,120,120,"Please list the 50 US states in alphabetical order. The task will automatically advance to the next screen after two minutes.",,Filler1,120300,"alaska, boston, california, florida, hawaii, illinios, iowa, ",0,9190,109029,0,0,,,0.855
5e6449ae5932461d728d2152,zz19xw94v5,Trevor_EX2,1,58,2020-07-23T14:55:19-07:00,12.268834114075,2,Pure_Unrelated.csv,JOL_S_VersionB.csv,"Size U B","Size U B",,,,,,0,Instruct,-,10,"You will now be presented with the first word from each of the previously studied item pairs. Please type the missing word. If you do not know the word, you may guess or press Enter to skip forward to the next pair.",,Instruct3,11425,,,-1,-1,,,,,0.886
5e6449ae5932461d728d2152,zz19xw94v5,Trevor_EX2,1,59,2020-07-23T14:55:30-07:00,11.226934909821,2,Pure_Unrelated.csv,JOL_S_VersionB.csv,"Size U B","Size U B",CLUTTER,PUSHER,Study2,U,96,85,Test,User,-,,Recall,Recall1,10951,decultter,40,8809,10640,0,0,,,0.582
5e6449ae5932461d728d2152,zz19xw94v5,Trevor_EX2,1,60,2020-07-23T14:55:37-07:00,7.3944220542908,2,Pure_Unrelated.csv,JOL_S_VersionB.csv,"Size U B","Size U B",PUT,ROLL,Study2,U,163,60,Test,User,-,,Recall,Recall1,7127,roll,100,6065,6852,1,1,,,0.444
5e6449ae5932461d728d2152,zz19xw94v5,Trevor_EX2,1,61,2020-07-23T14:55:44-07:00,6.4801828861237,2,Pure_Unrelated.csv,JOL_S_VersionB.csv,"Size U B","Size U B",STOMACH,TOWN,Study2,U,159,77,Test,User,-,,Recall,Recall1,6219,,0,-1,-1,0,0,,,0.438
5e6449ae5932461d728d2152,zz19xw94v5,Trevor_EX2,1,62,2020-07-23T14:56:03-07:00,19.627799034119,2,Pure_Unrelated.csv,JOL_S_VersionB.csv,"Size U B","Size U B",GUARD,WHEEL,Study2,U,170,87,Test,User,-,,Recall,Recall1,19338,,0,-1,-1,0,0,,,0.155
5e6449ae5932461d728d2152,zz19xw94v5,Trevor_EX2,1,63,2020-07-23T14:56:10-07:00,6.8727869987488,2,Pure_Unrelated.csv,JOL_S_VersionB.csv,"Size U B","Size U B",FLOOR,DISCOVER,Study2,U,101,84,Test,User,-,,Recall,Recall1,6584,,0,-1,-1,0,0,,,0.303
5e6449ae5932461d728d2152,zz19xw94v5,Trevor_EX2,1,64,2020-07-23T14:56:19-07:00,9.2853190898895,2,Pure_Unrelated.csv,JOL_S_VersionB.csv,"Size U B","Size U B",READY,CORN,Study2,U,158,65,Test,User,-,,Recall,Recall1,9023,corn,100,7214,8586,1,1,,,0.37
5e6449ae5932461d728d2152,zz19xw94v5,Trevor_EX2,1,65,2020-07-23T14:56:38-07:00,18.172981023788,2,Pure_Unrelated.csv,JOL_S_VersionB.csv,"Size U B","Size U B",LION,ART,Study2,U,109,75,Test,User,-,,Recall,Recall1,17926,art,100,17202,17646,1,1,,,0.2
5e6449ae5932461d728d2152,zz19xw94v5,Trevor_EX2,1,66,2020-07-23T14:56:47-07:00,9.1832268238068,2,Pure_Unrelated.csv,JOL_S_VersionB.csv,"Size U B","Size U B",FLOAT,HARMONY,Study2,U,161,57,Test,User,-,,Recall,Recall1,8963,,0,-1,-1,0,0,,,0.356
5e6449ae5932461d728d2152,zz19xw94v5,Trevor_EX2,1,67,2020-07-23T14:56:55-07:00,7.9996840953827,2,Pure_Unrelated.csv,JOL_S_VersionB.csv,"Size U B","Size U B",SMOOTH,OMIT,Study2,U,157,86,Test,User,-,,Recall,Recall1,7747,,0,-1,-1,0,0,,,0.256
5e6449ae5932461d728d2152,zz19xw94v5,Trevor_EX2,1,68,2020-07-23T14:57:02-07:00,6.9204080104828,2,Pure_Unrelated.csv,JOL_S_VersionB.csv,"Size U B","Size U B",DESIRE,NOISE,Study2,U,169,63,Test,User,-,,Recall,Recall1,6658,noise,100,5709,6493,1,1,,,0.324
5e6449ae5932461d728d2152,zz19xw94v5,Trevor_EX2,1,69,2020-07-23T14:57:09-07:00,7.2984240055084,2,Pure_Unrelated.csv,JOL_S_VersionB.csv,"Size U B","Size U B",LAKE,OPINION,Study2,U,160,91,Test,User,-,,Recall,Recall1,7062,,0,-1,-1,0,0,,,0.278
5e6449ae5932461d728d2152,zz19xw94v5,Trevor_EX2,1,70,2020-07-23T14:57:20-07:00,10.597589969635,2,Pure_Unrelated.csv,JOL_S_VersionB.csv,"Size U B","Size U B",SACKING,DIETARY,Study2,U,97,88,Test,User,-,,Recall,Recall1,10349,dietary,100,8746,10113,1,1,,,0.365
5e6449ae5932461d728d2152,zz19xw94v5,Trevor_EX2,1,71,2020-07-23T14:57:36-07:00,16.533662080765,2,Pure_Unrelated.csv,JOL_S_VersionB.csv,"Size U B","Size U B",HAND,FIX,Study2,U,105,69,Test,User,-,,Recall,Recall1,16288,fix,100,15720,16130,1,1,,,0.171
5e6449ae5932461d728d2152,zz19xw94v5,Trevor_EX2,1,72,2020-07-23T14:57:45-07:00,8.7384948730469,2,Pure_Unrelated.csv,JOL_S_VersionB.csv,"Size U B","Size U B",DETECT,FREE,Study2,U,162,67,Test,User,-,,Recall,Recall1,8479,free,100,7422,8248,1,1,,,0.279
5e6449ae5932461d728d2152,zz19xw94v5,Trevor_EX2,1,73,2020-07-23T14:57:53-07:00,8.2559139728546,2,Pure_Unrelated.csv,JOL_S_VersionB.csv,"Size U B","Size U B",HUNGRY,PARK,Study2,U,98,72,Test,User,-,,Recall,Recall1,7984,park,100,7179,7755,1,1,,,0.325
5e6449ae5932461d728d2152,zz19xw94v5,Trevor_EX2,1,74,2020-07-23T14:58:04-07:00,10.643760204315,2,Pure_Unrelated.csv,JOL_S_VersionB.csv,"Size U B","Size U B",BELT,SOON,Study2,U,100,66,Test,User,-,,Recall,Recall1,10385,,0,-1,-1,0,0,,,0.25
5e6449ae5932461d728d2152,zz19xw94v5,Trevor_EX2,1,75,2020-07-23T14:58:14-07:00,10.155579805374,2,Pure_Unrelated.csv,JOL_S_VersionB.csv,"Size U B","Size U B",SYSTEM,LICK,Study2,U,167,79,Test,User,-,,Recall,Recall1,9891,,0,-1,-1,0,0,,,0.24
5e6449ae5932461d728d2152,zz19xw94v5,Trevor_EX2,1,76,2020-07-23T14:58:32-07:00,18.325836181641,2,Pure_Unrelated.csv,JOL_S_VersionB.csv,"Size U B","Size U B",WOULD,CASH,Study2,U,113,74,Test,User,-,,Recall,Recall1,18097,,0,-1,-1,0,0,,,0.615
5e6449ae5932461d728d2152,zz19xw94v5,Trevor_EX2,1,77,2020-07-23T14:58:42-07:00,9.7321319580078,2,Pure_Unrelated.csv,JOL_S_VersionB.csv,"Size U B","Size U B",WOMAN,LIFT,Study2,U,99,64,Test,User,-,,Recall,Recall1,9488,lift,100,8295,9067,1,1,,,0.313
5e6449ae5932461d728d2152,zz19xw94v5,Trevor_EX2,1,78,2020-07-23T14:58:56-07:00,13.781501054764,2,Pure_Unrelated.csv,JOL_S_VersionB.csv,"Size U B","Size U B",SWING,FOG,Study2,U,175,78,Test,User,-,,Recall,Recall1,13526,log,66.666666666667,12675,13162,0,0,,,0.456
5e6449ae5932461d728d2152,zz19xw94v5,Trevor_EX2,1,79,2020-07-23T14:59:03-07:00,7.5843579769135,2,Pure_Unrelated.csv,JOL_S_VersionB.csv,"Size U B","Size U B",SPELL,BONE,Study2,U,174,68,Test,User,-,,Recall,Recall1,7329,,0,-1,-1,0,0,,,0.324
5e6449ae5932461d728d2152,zz19xw94v5,Trevor_EX2,1,80,2020-07-23T14:59:12-07:00,8.6019349098206,2,Pure_Unrelated.csv,JOL_S_VersionB.csv,"Size U B","Size U B",VASE,KING,Study2,U,115,71,Test,User,-,,Recall,Recall1,8358,king,100,7014,7902,1,1,,,0.357
5e6449ae5932461d728d2152,zz19xw94v5,Trevor_EX2,1,81,2020-07-23T14:59:22-07:00,9.4962320327759,2,Pure_Unrelated.csv,JOL_S_VersionB.csv,"Size U B","Size U B",CAR,HAPPY,Study2,U,107,95,Test,User,-,,Recall,Recall1,9261,happy,100,7455,8968,1,1,,,0.426
5e6449ae5932461d728d2152,zz19xw94v5,Trevor_EX2,1,82,2020-07-23T14:59:35-07:00,13.311601877213,2,Pure_Unrelated.csv,JOL_S_VersionB.csv,"Size U B","Size U B",MUTE,WAVE,Study2,U,173,59,Test,User,-,,Recall,Recall1,12990,,0,-1,-1,0,0,,,0.415
5e6449ae5932461d728d2152,zz19xw94v5,Trevor_EX2,1,83,2020-07-23T14:59:45-07:00,10.538852214813,2,Pure_Unrelated.csv,JOL_S_VersionB.csv,"Size U B","Size U B",RIDDLE,SUGAR,Study2,U,111,81,Test,User,-,,Recall,Recall1,10290,sugar,100,8502,9974,1,1,,,0.442
5e6449ae5932461d728d2152,zz19xw94v5,Trevor_EX2,1,84,2020-07-23T14:59:54-07:00,8.338161945343,2,Pure_Unrelated.csv,JOL_S_VersionB.csv,"Size U B","Size U B",TAX,OWL,Study1,U,72,23,Test,User,-,,Recall,Recall1,8077,,0,-1,-1,0,0,,,0.244
5e6449ae5932461d728d2152,zz19xw94v5,Trevor_EX2,1,85,2020-07-23T15:00:02-07:00,8.678484916687,2,Pure_Unrelated.csv,JOL_S_VersionB.csv,"Size U B","Size U B",ROAD,SCENT,Study2,U,166,62,Test,User,-,,Recall,Recall1,8432,,0,-1,-1,0,0,,,0.256
5e6449ae5932461d728d2152,zz19xw94v5,Trevor_EX2,1,86,2020-07-23T15:00:14-07:00,12.095966100693,2,Pure_Unrelated.csv,JOL_S_VersionB.csv,"Size U B","Size U B",SIGHT,DEBATE,Study2,U,103,92,Test,User,-,,Recall,Recall1,11827,debate,100,10210,11450,1,1,,,0.5
5e6449ae5932461d728d2152,zz19xw94v5,Trevor_EX2,1,87,2020-07-23T15:00:28-07:00,13.171747922897,2,Pure_Unrelated.csv,JOL_S_VersionB.csv,"Size U B","Size U B",BRONZE,ARTERY,Study2,U,104,73,Test,User,-,,Recall,Recall1,12910,artery,100,8424,11452,1,1,,,0.538
5e6449ae5932461d728d2152,zz19xw94v5,Trevor_EX2,1,88,2020-07-23T15:00:36-07:00,8.116103887558,2,Pure_Unrelated.csv,JOL_S_VersionB.csv,"Size U B","Size U B",JELLY,NAUGHTY,Study2,U,172,70,Test,User,-,,Recall,Recall1,7851,,0,-1,-1,0,0,,,0.4
5e6449ae5932461d728d2152,zz19xw94v5,Trevor_EX2,1,89,2020-07-23T15:00:45-07:00,9.3925590515137,2,Pure_Unrelated.csv,JOL_S_VersionB.csv,"Size U B","Size U B",ZOO,THUMB,Study2,U,168,94,Test,User,-,,Recall,Recall1,9143,thumb,100,6874,8764,1,1,,,0.435
5e6449ae5932461d728d2152,zz19xw94v5,Trevor_EX2,1,90,2020-07-23T15:00:54-07:00,8.5782060623169,2,Pure_Unrelated.csv,JOL_S_VersionB.csv,"Size U B","Size U B",ADD,VALLEY,Study2,U,112,82,Test,User,-,,Recall,Recall1,8319,valley,100,6395,7959,1,1,,,0.452
5e6449ae5932461d728d2152,zz19xw94v5,Trevor_EX2,1,91,2020-07-23T15:01:04-07:00,9.8352799415588,2,Pure_Unrelated.csv,JOL_S_VersionB.csv,"Size U B","Size U B",ACCIDENT,STRONG,Study2,U,110,76,Test,User,-,,Recall,Recall1,8408,,0,-1,-1,0,0,,,0.163
5e6449ae5932461d728d2152,zz19xw94v5,Trevor_EX2,1,92,2020-07-23T15:01:14-07:00,10.42821598053,2,Pure_Unrelated.csv,JOL_S_VersionB.csv,"Size U B","Size U B",PUFF,NUMBER,Study2,U,171,90,Test,User,-,,Recall,Recall1,9971,number,100,8387,9601,1,1,,,0.34
5e6449ae5932461d728d2152,zz19xw94v5,Trevor_EX2,1,93,2020-07-23T15:01:24-07:00,10.067828178406,2,Pure_Unrelated.csv,JOL_S_VersionB.csv,"Size U B","Size U B",POSITION,MACHINE,Study2,U,106,96,Test,User,-,,Recall,Recall1,9780,machine,100,7490,9454,1,1,,,0.449
5e6449ae5932461d728d2152,zz19xw94v5,Trevor_EX2,1,94,2020-07-23T15:01:34-07:00,10.019822835922,2,Pure_Unrelated.csv,JOL_S_VersionB.csv,"Size U B","Size U B",WASTE,SEDATE,Study2,U,165,80,Test,User,-,,Recall,Recall1,9741,,0,-1,-1,0,0,,,0.224
5e6449ae5932461d728d2152,zz19xw94v5,Trevor_EX2,1,95,2020-07-23T15:01:44-07:00,10.308237075806,2,Pure_Unrelated.csv,JOL_S_VersionB.csv,"Size U B","Size U B",SLIM,KNOW,Study2,U,164,61,Test,User,-,,Recall,Recall1,10060,know,100,8922,9686,1,1,,,0.294
5e6449ae5932461d728d2152,zz19xw94v5,Trevor_EX2,1,96,2020-07-23T15:01:52-07:00,7.3987710475922,2,Pure_Unrelated.csv,JOL_S_VersionB.csv,"Size U B","Size U B",MUTE,WAVE,Study2,U,173,59,Test,User,-,,Recall,Recall1,7176,,0,-1,-1,0,0,,,0.222
5e6449ae5932461d728d2152,zz19xw94v5,Trevor_EX2,1,97,2020-07-23T15:02:00-07:00,8.2739298343658,2,Pure_Unrelated.csv,JOL_S_VersionB.csv,"Size U B","Size U B",SICK,HIDE,Study2,U,114,89,Test,User,-,,Recall,Recall1,8019,hide,100,6694,7547,1,1,,,0.39
5e6449ae5932461d728d2152,zz19xw94v5,Trevor_EX2,1,98,2020-07-23T15:02:13-07:00,12.62714099884,2,Pure_Unrelated.csv,JOL_S_VersionB.csv,"Size U B","Size U B",Business,Death,Study2,U,102,93,Test,User,-,,Recall,Recall1,12371,death,100,10697,11958,1,1,,,0.323
5e6449ae5932461d728d2152,zz19xw94v5,Trevor_EX2,1,99,2020-07-23T15:02:30-07:00,17.699407100677,2,Pure_Unrelated.csv,JOL_S_VersionB.csv,"Size U B","Size U B",,,,,,0,Instruct,-,10,"You will now be presented with a new set of word pairs. Please study each pair. Remember that your memory will be tested! When finished, press Enter to move to the next pair.",Initial_Instruct,Instruct4,17464,,,-1,-1,,,,,0.364
5e6449ae5932461d728d2152,zz19xw94v5,Trevor_EX2,1,100,2020-07-23T15:02:51-07:00,20.731534004211,2,Pure_Unrelated.csv,JOL_S_VersionB.csv,"Size U B","Size U B",,,,,,0,Instruct,,10,"You will again be asked to rate your ability to remember these items using a 0 to 100 scale. Remember to use the full range of the scale!",,Instruct10,19296,,,-1,-1,,,,,0.825
5e6449ae5932461d728d2152,zz19xw94v5,Trevor_EX2,1,101,2020-07-23T15:02:54-07:00,3.1712779998779,2,Pure_Unrelated.csv,JOL_S_VersionB.csv,"Size U B","Size U B",,,,,,0,Instruct,User,-,"Press Enter when you are readty to begin",,Instruct11,2922,,,-1,-1,,,,,1
5e6449ae5932461d728d2152,zz19xw94v5,Trevor_EX2,1,102,2020-07-23T15:02:58-07:00,4.0265901088715,2,Pure_Unrelated.csv,JOL_S_VersionB.csv,"Size U B","Size U B",SPACE,JAM,BUFFER1,Buffer,5,5,JOL_Large,User,-,"How likely are you to correctly recall the second item in the pair?|Type your response on a scale from 0-100 and then press Enter.",Study/JOL,BUFFER3,3789,,,2483,3405,,,,95,1
5e6449ae5932461d728d2152,zz19xw94v5,Trevor_EX2,1,103,2020-07-23T15:03:20-07:00,21.419717788696,2,Pure_Unrelated.csv,JOL_S_VersionB.csv,"Size U B","Size U B",SCARE,HIDE,BUFFER1,Buffer,4,6,JOL_Large,User,-,"How likely are you to correctly recall the second item in the pair?|Type your response on a scale from 0-100 and then press Enter.",Study/JOL,BUFFER3,21144,,,20325,20734,,,,75,0.142
5e6449ae5932461d728d2152,zz19xw94v5,Trevor_EX2,1,104,2020-07-23T15:03:32-07:00,11.820032119751,2,Pure_Unrelated.csv,JOL_S_VersionB.csv,"Size U B","Size U B",BASEBALL,CATCHER,BUFFER1,Buffer,2,2,JOL_Small,User,-,"How likely are you to correctly recall the second item in the pair?|Type your response on a scale from 0-100 and then press Enter.",Study/JOL,BUFFER3,11567,,,10366,10596,,,,65,0.31
5e6449ae5932461d728d2152,zz19xw94v5,Trevor_EX2,1,105,2020-07-23T15:03:50-07:00,18.273251056671,2,Pure_Unrelated.csv,JOL_S_VersionB.csv,"Size U B","Size U B",TREES,GREEN,BUFFER1,Buffer,1,3,JOL_Small,User,-,"How likely are you to correctly recall the second item in the pair?|Type your response on a scale from 0-100 and then press Enter.",Study/JOL,BUFFER3,18034,,,17353,17652,,,,75,0.626
5e6449ae5932461d728d2152,zz19xw94v5,Trevor_EX2,1,106,2020-07-23T15:04:00-07:00,9.9007928371429,2,Pure_Unrelated.csv,JOL_S_VersionB.csv,"Size U B","Size U B",PEANUT,BUTTER,BUFFER1,Buffer,3,4,JOL_Small,User,-,"How likely are you to correctly recall the second item in the pair?|Type your response on a scale from 0-100 and then press Enter.",Study/JOL,BUFFER3,9614,,,8846,9243,,,,95,0.306
5e6449ae5932461d728d2152,zz19xw94v5,Trevor_EX2,1,107,2020-07-23T15:05:01-07:00,61.702960014343,2,Pure_Unrelated.csv,JOL_S_VersionB.csv,"Size U B","Size U B",MAIN,SCAR,Study1,U,25,31,JOL_Small,User,-,"How likely are you to correctly recall the second item in the pair?|Type your response on a scale from 0-100 and then press Enter.",Study/JOL,"Study Phase2",61411,,,60829,61049,,,,55,0.38
5e6449ae5932461d728d2152,zz19xw94v5,Trevor_EX2,1,108,2020-07-23T15:05:10-07:00,8.7702150344849,2,Pure_Unrelated.csv,JOL_S_VersionB.csv,"Size U B","Size U B",GRIND,STAND,Study1,U,85,7,JOL_Large,User,-,"How likely are you to correctly recall the second item in the pair?|Type your response on a scale from 0-100 and then press Enter.",Study/JOL,"Study Phase2",8497,,,7816,8129,,,,75,0.302
5e6449ae5932461d728d2152,zz19xw94v5,Trevor_EX2,1,109,2020-07-23T15:05:15-07:00,4.2923140525818,2,Pure_Unrelated.csv,JOL_S_VersionB.csv,"Size U B","Size U B",ROSE,NEGLECT,Study1,U,82,32,JOL_Small,User,-,"How likely are you to correctly recall the second item in the pair?|Type your response on a scale from 0-100 and then press Enter.",Study/JOL,"Study Phase2",4020,,,2665,3333,,,,45,1
5e6449ae5932461d728d2152,zz19xw94v5,Trevor_EX2,1,110,2020-07-23T15:05:31-07:00,16.539767980576,2,Pure_Unrelated.csv,JOL_S_VersionB.csv,"Size U B","Size U B",FUTURE,SINCERE,Study1,U,70,20,JOL_Large,User,-,"How likely are you to correctly recall the second item in the pair?|Type your response on a scale from 0-100 and then press Enter.",Study/JOL,"Study Phase2",16278,,,15709,15976,,,,65,0.207
5e6449ae5932461d728d2152,zz19xw94v5,Trevor_EX2,1,111,2020-07-23T15:05:34-07:00,2.823548078537,2,Pure_Unrelated.csv,JOL_S_VersionB.csv,"Size U B","Size U B",TAX,OWL,Study1,U,72,23,JOL_Large,User,-,"How likely are you to correctly recall the second item in the pair?|Type your response on a scale from 0-100 and then press Enter.",Study/JOL,"Study Phase2",2573,,,1928,2235,,,,60,1
5e6449ae5932461d728d2152,zz19xw94v5,Trevor_EX2,1,112,2020-07-23T15:05:43-07:00,8.6387498378754,2,Pure_Unrelated.csv,JOL_S_VersionB.csv,"Size U B","Size U B",SHELL,SHAKE,Study1,U,13,12,JOL_Large,User,-,"How likely are you to correctly recall the second item in the pair?|Type your response on a scale from 0-100 and then press Enter.",Study/JOL,"Study Phase2",8365,,,7806,8049,,,,65,0.357
5e6449ae5932461d728d2152,zz19xw94v5,Trevor_EX2,1,113,2020-07-23T15:05:57-07:00,14.71706199646,2,Pure_Unrelated.csv,JOL_S_VersionB.csv,"Size U B","Size U B",VEHICLE,CHARM,Study1,U,10,27,JOL_Small,User,-,"How likely are you to correctly recall the second item in the pair?|Type your response on a scale from 0-100 and then press Enter.",Study/JOL,"Study Phase2",14462,,,13862,14067,,,,55,0.479
5e6449ae5932461d728d2152,zz19xw94v5,Trevor_EX2,1,114,2020-07-23T15:06:12-07:00,14.30232000351,2,Pure_Unrelated.csv,JOL_S_VersionB.csv,"Size U B","Size U B",CAKE,CLOTHES,Study1,U,16,45,JOL_Small,User,-,"How likely are you to correctly recall the second item in the pair?|Type your response on a scale from 0-100 and then press Enter.",Study/JOL,"Study Phase2",14019,,,10112,13676,,,,35,0.563
5e6449ae5932461d728d2152,zz19xw94v5,Trevor_EX2,1,115,2020-07-23T15:06:25-07:00,13.654881000519,2,Pure_Unrelated.csv,JOL_S_VersionB.csv,"Size U B","Size U B",PARCEL,THROAT,Study1,U,67,17,JOL_Large,User,-,"How likely are you to correctly recall the second item in the pair?|Type your response on a scale from 0-100 and then press Enter.",Study/JOL,"Study Phase2",13365,,,9633,13065,,,,65,0.448
5e6449ae5932461d728d2152,zz19xw94v5,Trevor_EX2,1,116,2020-07-23T15:06:35-07:00,9.9442210197449,2,Pure_Unrelated.csv,JOL_S_VersionB.csv,"Size U B","Size U B",LEASE,TOIL,Study1,U,20,11,JOL_Large,User,-,"How likely are you to correctly recall the second item in the pair?|Type your response on a scale from 0-100 and then press Enter.",Study/JOL,"Study Phase2",9629,,,7708,9248,,,,45,0.51
5e6449ae5932461d728d2152,zz19xw94v5,Trevor_EX2,1,117,2020-07-23T15:06:40-07:00,5.3072910308838,2,Pure_Unrelated.csv,JOL_S_VersionB.csv,"Size U B","Size U B",MAZE,ELECTION,Study1,U,9,46,JOL_Small,User,-,"How likely are you to correctly recall the second item in the pair?|Type your response on a scale from 0-100 and then press Enter.",Study/JOL,"Study Phase2",5067,,,2344,4814,,,,50,1
5e6449ae5932461d728d2152,zz19xw94v5,Trevor_EX2,1,118,2020-07-23T15:06:52-07:00,11.739398002625,2,Pure_Unrelated.csv,JOL_S_VersionB.csv,"Size U B","Size U B",JUSTICE,MAROON,Study1,U,6,38,JOL_Small,User,-,"How likely are you to correctly recall the second item in the pair?|Type your response on a scale from 0-100 and then press Enter.",Study/JOL,"Study Phase2",11480,,,10624,10874,,,,35,0.397
5e6449ae5932461d728d2152,zz19xw94v5,Trevor_EX2,1,119,2020-07-23T15:07:00-07:00,8.3166611194611,2,Pure_Unrelated.csv,JOL_S_VersionB.csv,"Size U B","Size U B",NAME,HATE,Study1,U,17,36,JOL_Small,User,-,"How likely are you to correctly recall the second item in the pair?|Type your response on a scale from 0-100 and then press Enter.",Study/JOL,"Study Phase2",8046,,,7213,7508,,,,35,1
5e6449ae5932461d728d2152,zz19xw94v5,Trevor_EX2,1,120,2020-07-23T15:07:23-07:00,22.999135017395,2,Pure_Unrelated.csv,JOL_S_VersionB.csv,"Size U B","Size U B",TEMPERATURE,MORNING,Study1,U,23,44,JOL_Small,User,-,"How likely are you to correctly recall the second item in the pair?|Type your response on a scale from 0-100 and then press Enter.",Study/JOL,"Study Phase2",22737,,,20773,22277,,,,75,0.518
5e6449ae5932461d728d2152,zz19xw94v5,Trevor_EX2,1,121,2020-07-23T15:07:35-07:00,11.139910936356,2,Pure_Unrelated.csv,JOL_S_VersionB.csv,"Size U B","Size U B",MIRROR,CHILDREN,Study1,U,24,28,JOL_Small,User,-,"How likely are you to correctly recall the second item in the pair?|Type your response on a scale from 0-100 and then press Enter.",Study/JOL,"Study Phase2",10882,,,10253,10494,,,,35,0.345
5e6449ae5932461d728d2152,zz19xw94v5,Trevor_EX2,1,122,2020-07-23T15:07:44-07:00,9.4421050548553,2,Pure_Unrelated.csv,JOL_S_VersionB.csv,"Size U B","Size U B",DIFFICULT,POOR,Study1,U,81,16,JOL_Large,User,-,"How likely are you to correctly recall the second item in the pair?|Type your response on a scale from 0-100 and then press Enter.",Study/JOL,"Study Phase2",9120,,,8557,8774,,,,45,0.37
5e6449ae5932461d728d2152,zz19xw94v5,Trevor_EX2,1,123,2020-07-23T15:07:47-07:00,3.1066408157349,2,Pure_Unrelated.csv,JOL_S_VersionB.csv,"Size U B","Size U B",MOAT,CLEAR,Study1,U,19,41,JOL_Small,User,-,"How likely are you to correctly recall the second item in the pair?|Type your response on a scale from 0-100 and then press Enter.",Study/JOL,"Study Phase2",2810,,,2117,2555,,,,30,1
5e6449ae5932461d728d2152,zz19xw94v5,Trevor_EX2,1,124,2020-07-23T15:08:02-07:00,14.509307146072,2,Pure_Unrelated.csv,JOL_S_VersionB.csv,"Size U B","Size U B",GIVE,STEAK,Study1,U,8,21,JOL_Large,User,-,"How likely are you to correctly recall the second item in the pair?|Type your response on a scale from 0-100 and then press Enter.",Study/JOL,"Study Phase2",14278,,,13669,13891,,,,65,0.292
5e6449ae5932461d728d2152,zz19xw94v5,Trevor_EX2,1,125,2020-07-23T15:08:11-07:00,9.7138319015503,2,Pure_Unrelated.csv,JOL_S_VersionB.csv,"Size U B","Size U B",STRESS,YAM,Study1,U,68,14,JOL_Large,User,-,"How likely are you to correctly recall the second item in the pair?|Type your response on a scale from 0-100 and then press Enter.",Study/JOL,"Study Phase2",9481,,,8698,9232,,,,40,0.333
5e6449ae5932461d728d2152,zz19xw94v5,Trevor_EX2,1,126,2020-07-23T15:08:18-07:00,6.9475221633911,2,Pure_Unrelated.csv,JOL_S_VersionB.csv,"Size U B","Size U B",WARN,SEA,Study1,U,80,34,JOL_Small,User,-,"How likely are you to correctly recall the second item in the pair?|Type your response on a scale from 0-100 and then press Enter.",Study/JOL,"Study Phase2",6677,,,6040,6259,,,,35,0.412
5e6449ae5932461d728d2152,zz19xw94v5,Trevor_EX2,1,127,2020-07-23T15:08:28-07:00,10.026978969574,2,Pure_Unrelated.csv,JOL_S_VersionB.csv,"Size U B","Size U B",RESIST,GLUE,Study1,U,69,22,JOL_Large,User,-,"How likely are you to correctly recall the second item in the pair?|Type your response on a scale from 0-100 and then press Enter.",Study/JOL,"Study Phase2",9755,,,9112,9376,,,,25,0.388
5e6449ae5932461d728d2152,zz19xw94v5,Trevor_EX2,1,128,2020-07-23T15:08:40-07:00,11.790313959122,2,Pure_Unrelated.csv,JOL_S_VersionB.csv,"Size U B","Size U B",LISTEN,FICTION,Study1,U,14,30,JOL_Small,User,-,"How likely are you to correctly recall the second item in the pair?|Type your response on a scale from 0-100 and then press Enter.",Study/JOL,"Study Phase2",11518,,,10853,11168,,,,25,0.362
5e6449ae5932461d728d2152,zz19xw94v5,Trevor_EX2,1,129,2020-07-23T15:08:49-07:00,8.9984700679779,2,Pure_Unrelated.csv,JOL_S_VersionB.csv,"Size U B","Size U B",LOAN,SIGN,Study1,U,21,8,JOL_Large,User,-,"How likely are you to correctly recall the second item in the pair?|Type your response on a scale from 0-100 and then press Enter.",Study/JOL,"Study Phase2",8748,,,7910,8440,,,,45,0.318
5e6449ae5932461d728d2152,zz19xw94v5,Trevor_EX2,1,130,2020-07-23T15:08:58-07:00,8.4331188201904,2,Pure_Unrelated.csv,JOL_S_VersionB.csv,"Size U B","Size U B",FUZZY,BANG,Study1,U,18,24,JOL_Large,User,-,"How likely are you to correctly recall the second item in the pair?|Type your response on a scale from 0-100 and then press Enter.",Study/JOL,"Study Phase2",8180,,,7501,7880,,,,60,0.39
5e6449ae5932461d728d2152,zz19xw94v5,Trevor_EX2,1,131,2020-07-23T15:09:12-07:00,14.035894155502,2,Pure_Unrelated.csv,JOL_S_VersionB.csv,"Size U B","Size U B",STRETCH,CLOTH,Study1,U,7,26,JOL_Large,User,-,"How likely are you to correctly recall the second item in the pair?|Type your response on a scale from 0-100 and then press Enter.",Study/JOL,"Study Phase2",13796,,,13039,13521,,,,30,0.217
5e6449ae5932461d728d2152,zz19xw94v5,Trevor_EX2,1,132,2020-07-23T15:09:16-07:00,4.688462972641,2,Pure_Unrelated.csv,JOL_S_VersionB.csv,"Size U B","Size U B",DONKEY,LUSH,Study1,U,84,39,JOL_Small,User,-,"How likely are you to correctly recall the second item in the pair?|Type your response on a scale from 0-100 and then press Enter.",Study/JOL,"Study Phase2",4437,,,3696,3911,,,,65,1
5e6449ae5932461d728d2152,zz19xw94v5,Trevor_EX2,1,133,2020-07-23T15:09:29-07:00,12.423003911972,2,Pure_Unrelated.csv,JOL_S_VersionB.csv,"Size U B","Size U B",RIPE,VERIFY,Study1,U,83,35,JOL_Small,User,-,"How likely are you to correctly recall the second item in the pair?|Type your response on a scale from 0-100 and then press Enter.",Study/JOL,"Study Phase2",12163,,,11242,11950,,,,70,0.246
5e6449ae5932461d728d2152,zz19xw94v5,Trevor_EX2,1,134,2020-07-23T15:09:38-07:00,9.6558570861816,2,Pure_Unrelated.csv,JOL_S_VersionB.csv,"Size U B","Size U B",NUMBER,HARD,Study1,U,78,42,JOL_Small,User,-,"How likely are you to correctly recall the second item in the pair?|Type your response on a scale from 0-100 and then press Enter.",Study/JOL,"Study Phase2",9211,,,8579,8913,,,,75,0.511
5e6449ae5932461d728d2152,zz19xw94v5,Trevor_EX2,1,135,2020-07-23T15:09:48-07:00,9.1227550506592,2,Pure_Unrelated.csv,JOL_S_VersionB.csv,"Size U B","Size U B",BAT,SHAKY,Study1,U,66,43,JOL_Small,User,-,"How likely are you to correctly recall the second item in the pair?|Type your response on a scale from 0-100 and then press Enter.",Study/JOL,"Study Phase2",8878,,,8190,8469,,,,65,0.4
5e6449ae5932461d728d2152,zz19xw94v5,Trevor_EX2,1,136,2020-07-23T15:09:59-07:00,11.446628808975,2,Pure_Unrelated.csv,JOL_S_VersionB.csv,"Size U B","Size U B",KEYS,JOKE,Study1,U,15,33,JOL_Small,User,-,"How likely are you to correctly recall the second item in the pair?|Type your response on a scale from 0-100 and then press Enter.",Study/JOL,"Study Phase2",11207,,,8774,9009,,,,45,0.456
5e6449ae5932461d728d2152,zz19xw94v5,Trevor_EX2,1,137,2020-07-23T15:10:04-07:00,4.6104960441589,2,Pure_Unrelated.csv,JOL_S_VersionB.csv,"Size U B","Size U B",DEGREE,CHAIR,Study1,U,71,29,JOL_Small,User,-,"How likely are you to correctly recall the second item in the pair?|Type your response on a scale from 0-100 and then press Enter.",Study/JOL,"Study Phase2",4378,,,2580,3711,,,,30,1
5e6449ae5932461d728d2152,zz19xw94v5,Trevor_EX2,1,138,2020-07-23T15:10:23-07:00,19.230948925018,2,Pure_Unrelated.csv,JOL_S_VersionB.csv,"Size U B","Size U B",CRAYON,RATE,Study1,U,79,25,JOL_Large,User,-,"How likely are you to correctly recall the second item in the pair?|Type your response on a scale from 0-100 and then press Enter.",Study/JOL,"Study Phase2",18895,,,16956,18578,,,,65,0.547
5e6449ae5932461d728d2152,zz19xw94v5,Trevor_EX2,1,139,2020-07-23T15:10:30-07:00,7.3461530208588,2,Pure_Unrelated.csv,JOL_S_VersionB.csv,"Size U B","Size U B",PET,MOON,Study1,U,74,19,JOL_Large,User,-,"How likely are you to correctly recall the second item in the pair?|Type your response on a scale from 0-100 and then press Enter.",Study/JOL,"Study Phase2",7100,,,5463,6702,,,,45,0.583
5e6449ae5932461d728d2152,zz19xw94v5,Trevor_EX2,1,140,2020-07-23T15:10:38-07:00,7.9014511108398,2,Pure_Unrelated.csv,JOL_S_VersionB.csv,"Size U B","Size U B",MEAT,OBTAIN,Study1,U,11,37,JOL_Small,User,-,"How likely are you to correctly recall the second item in the pair?|Type your response on a scale from 0-100 and then press Enter.",Study/JOL,"Study Phase2",7643,,,7084,7392,,,,70,0.462
5e6449ae5932461d728d2152,zz19xw94v5,Trevor_EX2,1,141,2020-07-23T15:10:46-07:00,8.2074370384216,2,Pure_Unrelated.csv,JOL_S_VersionB.csv,"Size U B","Size U B",THICK,CONTEST,Study1,U,73,13,JOL_Large,User,-,"How likely are you to correctly recall the second item in the pair?|Type your response on a scale from 0-100 and then press Enter.",Study/JOL,"Study Phase2",7926,,,7143,7573,,,,75,0.325
5e6449ae5932461d728d2152,zz19xw94v5,Trevor_EX2,1,142,2020-07-23T15:10:56-07:00,9.244148015976,2,Pure_Unrelated.csv,JOL_S_VersionB.csv,"Size U B","Size U B",BOTH,OUNCE,Study1,U,22,15,JOL_Large,User,-,"How likely are you to correctly recall the second item in the pair?|Type your response on a scale from 0-100 and then press Enter.",Study/JOL,"Study Phase2",8990,,,8512,8715,,,,65,1
5e6449ae5932461d728d2152,zz19xw94v5,Trevor_EX2,1,143,2020-07-23T15:11:09-07:00,13.185096025467,2,Pure_Unrelated.csv,JOL_S_VersionB.csv,"Size U B","Size U B",DIZZY,SWEATER,Study1,U,77,9,JOL_Large,User,-,"How likely are you to correctly recall the second item in the pair?|Type your response on a scale from 0-100 and then press Enter.",Study/JOL,"Study Phase2",12946,,,12266,12661,,,,70,0.262
5e6449ae5932461d728d2152,zz19xw94v5,Trevor_EX2,1,144,2020-07-23T15:11:16-07:00,7.7447400093079,2,Pure_Unrelated.csv,JOL_S_VersionB.csv,"Size U B","Size U B",CRACKLE,ABLE,Study1,U,12,40,JOL_Small,User,-,"How likely are you to correctly recall the second item in the pair?|Type your response on a scale from 0-100 and then press Enter.",Study/JOL,"Study Phase2",7463,,,6948,7208,,,,35,0.447
5e6449ae5932461d728d2152,zz19xw94v5,Trevor_EX2,1,145,2020-07-23T15:11:28-07:00,11.66986489296,2,Pure_Unrelated.csv,JOL_S_VersionB.csv,"Size U B","Size U B",INFLATE,DISGUST,Study1,U,76,18,JOL_Large,User,-,"How likely are you to correctly recall the second item in the pair?|Type your response on a scale from 0-100 and then press Enter.",Study/JOL,"Study Phase2",11411,,,10840,11135,,,,70,0.362
5e6449ae5932461d728d2152,zz19xw94v5,Trevor_EX2,1,146,2020-07-23T15:11:37-07:00,8.5047240257263,2,Pure_Unrelated.csv,JOL_S_VersionB.csv,"Size U B","Size U B",BROAD,INFECT,Study1,U,75,10,JOL_Large,User,-,"How likely are you to correctly recall the second item in the pair?|Type your response on a scale from 0-100 and then press Enter.",Study/JOL,"Study Phase2",8222,,,7601,7992,,,,70,0.381
5e6449ae5932461d728d2152,zz19xw94v5,Trevor_EX2,1,147,2020-07-23T15:11:44-07:00,7.7788610458374,2,Pure_Unrelated.csv,JOL_S_VersionB.csv,"Size U B","Size U B",SHERRIF,POLICE,BUFFER2,Buffer,87,49,JOL_Small,User,-,"How likely are you to correctly recall the second item in the pair?|Type your response on a scale from 0-100 and then press Enter.",Study/JOL,BUFFER4,7510,,,6831,7186,,,,85,0.395
5e6449ae5932461d728d2152,zz19xw94v5,Trevor_EX2,1,148,2020-07-23T15:11:53-07:00,8.3190469741821,2,Pure_Unrelated.csv,JOL_S_VersionB.csv,"Size U B","Size U B",GEESE,GOOSE,BUFFER2,Buffer,86,51,JOL_Large,User,-,"How likely are you to correctly recall the second item in the pair?|Type your response on a scale from 0-100 and then press Enter.",Study/JOL,BUFFER4,8037,,,7602,7789,,,,90,0.317
5e6449ae5932461d728d2152,zz19xw94v5,Trevor_EX2,1,149,2020-07-23T15:11:56-07:00,3.24840092659,2,Pure_Unrelated.csv,JOL_S_VersionB.csv,"Size U B","Size U B",MALT,CHOCOLATE,BUFFER2,Buffer,88,50,JOL_Small,User,-,"How likely are you to correctly recall the second item in the pair?|Type your response on a scale from 0-100 and then press Enter.",Study/JOL,BUFFER4,2966,,,2295,2660,,,,85,1
5e6449ae5932461d728d2152,zz19xw94v5,Trevor_EX2,1,150,2020-07-23T15:12:05-07:00,8.9968681335449,2,Pure_Unrelated.csv,JOL_S_VersionB.csv,"Size U B","Size U B",THING,STUFF,BUFFER2,Buffer,90,48,JOL_Large,User,-,"How likely are you to correctly recall the second item in the pair?|Type your response on a scale from 0-100 and then press Enter.",Study/JOL,BUFFER4,8747,,,7870,8358,,,,75,0.318
5e6449ae5932461d728d2152,zz19xw94v5,Trevor_EX2,1,151,2020-07-23T15:12:08-07:00,2.7478849887848,2,Pure_Unrelated.csv,JOL_S_VersionB.csv,"Size U B","Size U B",MOON,SPACE,BUFFER2,Buffer,89,47,JOL_Large,User,-,"How likely are you to correctly recall the second item in the pair?|Type your response on a scale from 0-100 and then press Enter.",Study/JOL,BUFFER4,2494,,,1449,2026,,,,95,1
5e6449ae5932461d728d2152,zz19xw94v5,Trevor_EX2,1,152,2020-07-23T15:12:10-07:00,1.951239824295,2,Pure_Unrelated.csv,JOL_S_VersionB.csv,"Size U B","Size U B",,,,,,0,Instruct,User,-,"You have completed this section. Please press Enter.",Filler_Instruction,Instruct5,1758,,,-1,-1,,,,,1
5e6449ae5932461d728d2152,zz19xw94v5,Trevor_EX2,1,153,2020-07-23T15:14:10-07:00,120.27368617058,2,Pure_Unrelated.csv,JOL_S_VersionB.csv,"Size U B","Size U B",,,,,,0,FreeRecall,120,120,"Please list the 50 US states in reverse alphabetical order (z - a). The task will automatically advance to the next screen after two minutes.",,Filler2,120003,"aslaska, california, florida, illinois, idaho, iowa, nebraska, nevada, ",0,6345,53293,0,0,,,0.908
5e6449ae5932461d728d2152,zz19xw94v5,Trevor_EX2,1,154,2020-07-23T15:14:28-07:00,18.230799913406,2,Pure_Unrelated.csv,JOL_S_VersionB.csv,"Size U B","Size U B",,,,,,0,Instruct,-,10,"You will now be presented with the first word from each of the previously studied item pairs. Please type the missing word. If you do not know the word, you may guess or press Enter to skip forward to the next pair.",,Instruct6,17978,,,-1,-1,,,,,1
5e6449ae5932461d728d2152,zz19xw94v5,Trevor_EX2,1,155,2020-07-23T15:14:38-07:00,10.063525915146,2,Pure_Unrelated.csv,JOL_S_VersionB.csv,"Size U B","Size U B",JUSTICE,MAROON,Study1,U,6,38,Test,User,-,,Recall,Recall2,9806,,0,-1,-1,0,0,,,0.511
5e6449ae5932461d728d2152,zz19xw94v5,Trevor_EX2,1,156,2020-07-23T15:14:49-07:00,10.871431112289,2,Pure_Unrelated.csv,JOL_S_VersionB.csv,"Size U B","Size U B",MOAT,CLEAR,Study1,U,19,41,Test,User,-,,Recall,Recall2,10619,,0,-1,-1,0,0,,,0.278
5e6449ae5932461d728d2152,zz19xw94v5,Trevor_EX2,1,157,2020-07-23T15:15:00-07:00,10.722766876221,2,Pure_Unrelated.csv,JOL_S_VersionB.csv,"Size U B","Size U B",DIFFICULT,POOR,Study1,U,81,16,Test,User,-,,Recall,Recall2,10466,poor,100,9352,10065,1,1,,,0.623
5e6449ae5932461d728d2152,zz19xw94v5,Trevor_EX2,1,158,2020-07-23T15:15:13-07:00,13.030626058578,2,Pure_Unrelated.csv,JOL_S_VersionB.csv,"Size U B","Size U B",INFLATE,DISGUST,Study1,U,76,18,Test,User,-,,Recall,Recall2,12799,,0,-1,-1,0,0,,,0.156
5e6449ae5932461d728d2152,zz19xw94v5,Trevor_EX2,1,159,2020-07-23T15:15:20-07:00,7.1540739536285,2,Pure_Unrelated.csv,JOL_S_VersionB.csv,"Size U B","Size U B",WARN,SEA,Study1,U,80,34,Test,User,-,,Recall,Recall2,6899,sea,100,5572,6564,1,1,,,0.429
5e6449ae5932461d728d2152,zz19xw94v5,Trevor_EX2,1,160,2020-07-23T15:15:26-07:00,6.3580989837646,2,Pure_Unrelated.csv,JOL_S_VersionB.csv,"Size U B","Size U B",PARCEL,THROAT,Study1,U,67,17,Test,User,-,,Recall,Recall2,6105,,0,-1,-1,0,0,,,0.226
5e6449ae5932461d728d2152,zz19xw94v5,Trevor_EX2,1,161,2020-07-23T15:15:33-07:00,6.9150540828705,2,Pure_Unrelated.csv,JOL_S_VersionB.csv,"Size U B","Size U B",RESIST,GLUE,Study1,U,69,22,Test,User,-,,Recall,Recall2,6649,,0,-1,-1,0,0,,,0.294
5e6449ae5932461d728d2152,zz19xw94v5,Trevor_EX2,1,162,2020-07-23T15:15:52-07:00,18.941275119781,2,Pure_Unrelated.csv,JOL_S_VersionB.csv,"Size U B","Size U B",MIRROR,CHILDREN,Study1,U,24,28,Test,User,-,,Recall,Recall2,18666,children,100,16130,18232,1,1,,,0.66
5e6449ae5932461d728d2152,zz19xw94v5,Trevor_EX2,1,163,2020-07-23T15:16:06-07:00,13.903287887573,2,Pure_Unrelated.csv,JOL_S_VersionB.csv,"Size U B","Size U B",TEMPERATURE,MORNING,Study1,U,23,44,Test,User,-,,Recall,Recall2,13641,morning,100,11435,13022,1,1,,,0.696
5e6449ae5932461d728d2152,zz19xw94v5,Trevor_EX2,1,164,2020-07-23T15:16:19-07:00,12.979109048843,2,Pure_Unrelated.csv,JOL_S_VersionB.csv,"Size U B","Size U B",BROAD,INFECT,Study1,U,75,10,Test,User,-,,Recall,Recall2,12731,infect,100,11122,12401,1,1,,,0.578
5e6449ae5932461d728d2152,zz19xw94v5,Trevor_EX2,1,165,2020-07-23T15:16:45-07:00,25.891690969467,2,Pure_Unrelated.csv,JOL_S_VersionB.csv,"Size U B","Size U B",LOAN,SIGN,Study1,U,21,8,Test,User,-,,Recall,Recall2,25645,sign,100,24842,25455,1,1,,,0.86
5e6449ae5932461d728d2152,zz19xw94v5,Trevor_EX2,1,166,2020-07-23T15:16:50-07:00,5.1793880462646,2,Pure_Unrelated.csv,JOL_S_VersionB.csv,"Size U B","Size U B",TAX,OWL,Study1,U,72,23,Test,User,-,,Recall,Recall2,4922,,0,-1,-1,0,0,,,0.32
5e6449ae5932461d728d2152,zz19xw94v5,Trevor_EX2,1,167,2020-07-23T15:16:57-07:00,6.5561678409576,2,Pure_Unrelated.csv,JOL_S_VersionB.csv,"Size U B","Size U B",STRESS,YAM,Study1,U,68,14,Test,User,-,,Recall,Recall2,5963,,0,-1,-1,0,0,,,0.267
5e6449ae5932461d728d2152,zz19xw94v5,Trevor_EX2,1,168,2020-07-23T15:17:05-07:00,7.923712015152,2,Pure_Unrelated.csv,JOL_S_VersionB.csv,"Size U B","Size U B",MAZE,ELECTION,Study1,U,9,46,Test,User,-,,Recall,Recall2,7548,,0,-1,-1,0,0,,,0.211
5e6449ae5932461d728d2152,zz19xw94v5,Trevor_EX2,1,169,2020-07-23T15:17:14-07:00,9.2198531627655,2,Pure_Unrelated.csv,JOL_S_VersionB.csv,"Size U B","Size U B",GIVE,STEAK,Study1,U,8,21,Test,User,-,,Recall,Recall2,8956,steak,100,7661,8670,1,1,,,0.311
5e6449ae5932461d728d2152,zz19xw94v5,Trevor_EX2,1,170,2020-07-23T15:17:20-07:00,5.9976818561554,2,Pure_Unrelated.csv,JOL_S_VersionB.csv,"Size U B","Size U B",MEAT,OBTAIN,Study1,U,11,37,Test,User,-,,Recall,Recall2,5738,obtain,100,4113,5488,1,1,,,0.552
5e6449ae5932461d728d2152,zz19xw94v5,Trevor_EX2,1,171,2020-07-23T15:17:25-07:00,5.2370610237122,2,Pure_Unrelated.csv,JOL_S_VersionB.csv,"Size U B","Size U B",CRAYON,RATE,Study1,U,79,25,Test,User,-,,Recall,Recall2,4981,,0,-1,-1,0,0,,,0.32
5e6449ae5932461d728d2152,zz19xw94v5,Trevor_EX2,1,172,2020-07-23T15:17:31-07:00,5.9647009372711,2,Pure_Unrelated.csv,JOL_S_VersionB.csv,"Size U B","Size U B",FUZZY,BANG,Study1,U,18,24,Test,User,-,,Recall,Recall2,5701,bang,100,5159,5534,1,1,,,0.31
5e6449ae5932461d728d2152,zz19xw94v5,Trevor_EX2,1,173,2020-07-23T15:17:36-07:00,4.4774050712585,2,Pure_Unrelated.csv,JOL_S_VersionB.csv,"Size U B","Size U B",THICK,CONTEST,Study1,U,73,13,Test,User,-,,Recall,Recall2,4214,contest,100,2054,3681,1,1,,,1
5e6449ae5932461d728d2152,zz19xw94v5,Trevor_EX2,1,174,2020-07-23T15:17:44-07:00,8.4824221134186,2,Pure_Unrelated.csv,JOL_S_VersionB.csv,"Size U B","Size U B",KEYS,JOKE,Study1,U,15,33,Test,User,-,,Recall,Recall2,8224,joke,100,7380,8088,1,1,,,0.571
5e6449ae5932461d728d2152,zz19xw94v5,Trevor_EX2,1,175,2020-07-23T15:17:49-07:00,4.9451608657837,2,Pure_Unrelated.csv,JOL_S_VersionB.csv,"Size U B","Size U B",BOTH,OUNCE,Study1,U,22,15,Test,User,-,,Recall,Recall2,4709,,0,-1,-1,0,0,,,0.292
5e6449ae5932461d728d2152,zz19xw94v5,Trevor_EX2,1,176,2020-07-23T15:17:50-07:00,1.1614689826965,2,Pure_Unrelated.csv,JOL_S_VersionB.csv,"Size U B","Size U B",MAIN,SCAR,Study1,U,25,31,Test,User,-,,Recall,Recall2,967,,0,-1,-1,0,0,,,1
5e6449ae5932461d728d2152,zz19xw94v5,Trevor_EX2,1,177,2020-07-23T15:17:58-07:00,7.7247681617737,2,Pure_Unrelated.csv,JOL_S_VersionB.csv,"Size U B","Size U B",STRETCH,CLOTH,Study1,U,7,26,Test,User,-,,Recall,Recall2,7452,,0,-1,-1,0,0,,,0.211
5e6449ae5932461d728d2152,zz19xw94v5,Trevor_EX2,1,178,2020-07-23T15:17:59-07:00,1.3338859081268,2,Pure_Unrelated.csv,JOL_S_VersionB.csv,"Size U B","Size U B",NUMBER,HARD,Study1,U,78,42,Test,User,-,,Recall,Recall2,1116,,0,-1,-1,0,0,,,1
5e6449ae5932461d728d2152,zz19xw94v5,Trevor_EX2,1,179,2020-07-23T15:18:07-07:00,7.5638689994812,2,Pure_Unrelated.csv,JOL_S_VersionB.csv,"Size U B","Size U B",BAT,SHAKY,Study1,U,66,43,Test,User,-,,Recall,Recall2,6156,shaky,100,4834,5858,1,1,,,0.516
5e6449ae5932461d728d2152,zz19xw94v5,Trevor_EX2,1,180,2020-07-23T15:18:12-07:00,5.1085751056671,2,Pure_Unrelated.csv,JOL_S_VersionB.csv,"Size U B","Size U B",DIZZY,SWEATER,Study1,U,77,9,Test,User,-,,Recall,Recall2,4861,,0,-1,-1,0,0,,,0.28
5e6449ae5932461d728d2152,zz19xw94v5,Trevor_EX2,1,181,2020-07-23T15:18:19-07:00,7.3492739200592,2,Pure_Unrelated.csv,JOL_S_VersionB.csv,"Size U B","Size U B",LISTEN,FICTION,Study1,U,14,30,Test,User,-,,Recall,Recall2,7091,,0,-1,-1,0,0,,,0.361
5e6449ae5932461d728d2152,zz19xw94v5,Trevor_EX2,1,182,2020-07-23T15:18:26-07:00,6.6445860862732,2,Pure_Unrelated.csv,JOL_S_VersionB.csv,"Size U B","Size U B",ROSE,NEGLECT,Study1,U,82,32,Test,User,-,,Recall,Recall2,6409,neglect,100,5143,6232,1,1,,,0.545
5e6449ae5932461d728d2152,zz19xw94v5,Trevor_EX2,1,183,2020-07-23T15:18:39-07:00,13.513130903244,2,Pure_Unrelated.csv,JOL_S_VersionB.csv,"Size U B","Size U B",CRACKLE,ABLE,Study1,U,12,40,Test,User,-,,Recall,Recall2,13260,,0,-1,-1,0,0,,,0.194
5e6449ae5932461d728d2152,zz19xw94v5,Trevor_EX2,1,184,2020-07-23T15:18:47-07:00,7.1867311000824,2,Pure_Unrelated.csv,JOL_S_VersionB.csv,"Size U B","Size U B",DONKEY,LUSH,Study1,U,84,39,Test,User,-,,Recall,Recall2,6938,,0,-1,-1,0,0,,,0.229
5e6449ae5932461d728d2152,zz19xw94v5,Trevor_EX2,1,185,2020-07-23T15:18:53-07:00,6.7748799324036,2,Pure_Unrelated.csv,JOL_S_VersionB.csv,"Size U B","Size U B",PET,MOON,Study1,U,74,19,Test,User,-,,Recall,Recall2,6522,,0,-1,-1,0,0,,,0.242
5e6449ae5932461d728d2152,zz19xw94v5,Trevor_EX2,1,186,2020-07-23T15:18:56-07:00,2.4305849075317,2,Pure_Unrelated.csv,JOL_S_VersionB.csv,"Size U B","Size U B",RIPE,VERIFY,Study1,U,83,35,Test,User,-,,Recall,Recall2,2168,,0,-1,-1,0,0,,,0.545
5e6449ae5932461d728d2152,zz19xw94v5,Trevor_EX2,1,187,2020-07-23T15:19:03-07:00,7.1628620624542,2,Pure_Unrelated.csv,JOL_S_VersionB.csv,"Size U B","Size U B",FUTURE,SINCERE,Study1,U,70,20,Test,User,-,,Recall,Recall2,6915,sincere,100,5456,6786,1,1,,,0.4
5e6449ae5932461d728d2152,zz19xw94v5,Trevor_EX2,1,188,2020-07-23T15:19:04-07:00,0.94126391410828,2,Pure_Unrelated.csv,JOL_S_VersionB.csv,"Size U B","Size U B",VEHICLE,CHARM,Study1,U,10,27,Test,User,-,,Recall,Recall2,749,,0,-1,-1,0,0,,,1
5e6449ae5932461d728d2152,zz19xw94v5,Trevor_EX2,1,189,2020-07-23T15:19:13-07:00,9.2608981132507,2,Pure_Unrelated.csv,JOL_S_VersionB.csv,"Size U B","Size U B",CAKE,CLOTHES,Study1,U,16,45,Test,User,-,,Recall,Recall2,9015,clothes,100,7175,8390,1,1,,,0.478
5e6449ae5932461d728d2152,zz19xw94v5,Trevor_EX2,1,190,2020-07-23T15:19:17-07:00,4.0730428695679,2,Pure_Unrelated.csv,JOL_S_VersionB.csv,"Size U B","Size U B",LEASE,TOIL,Study1,U,20,11,Test,User,-,,Recall,Recall2,3818,,0,1352,1352,0,0,,,1
5e6449ae5932461d728d2152,zz19xw94v5,Trevor_EX2,1,191,2020-07-23T15:19:26-07:00,8.5116090774536,2,Pure_Unrelated.csv,JOL_S_VersionB.csv,"Size U B","Size U B",DEGREE,CHAIR,Study1,U,71,29,Test,User,-,,Recall,Recall2,8242,chair,100,7431,8093,1,1,,,0.333
5e6449ae5932461d728d2152,zz19xw94v5,Trevor_EX2,1,192,2020-07-23T15:19:28-07:00,2.4546270370483,2,Pure_Unrelated.csv,JOL_S_VersionB.csv,"Size U B","Size U B",GRIND,STAND,Study1,U,85,7,Test,User,-,,Recall,Recall2,2205,,0,-1,-1,0,0,,,0.636
5e6449ae5932461d728d2152,zz19xw94v5,Trevor_EX2,1,193,2020-07-23T15:19:29-07:00,0.85161590576172,2,Pure_Unrelated.csv,JOL_S_VersionB.csv,"Size U B","Size U B",SHELL,SHAKE,Study1,U,13,12,Test,User,-,,Recall,Recall2,663,,0,-1,-1,0,0,,,1
5e6449ae5932461d728d2152,zz19xw94v5,Trevor_EX2,1,194,2020-07-23T15:19:35-07:00,5.658233165741,2,Pure_Unrelated.csv,JOL_S_VersionB.csv,"Size U B","Size U B",NAME,HATE,Study1,U,17,36,Test,User,-,,Recall,Recall2,5405,,0,-1,-1,0,0,,,0.393
5e6449ae5932461d728d2152,zz19xw94v5,Trevor_EX2,1,195,2020-07-23T15:19:36-07:00,1.3384339809418,2,Pure_Unrelated.csv,JOL_S_VersionB.csv,"Size U B","Size U B",,,,,,0,Instruct,User,-,"You have completed this section. Please press Enter.",,Instruct7,1053,,,-1,-1,,,,,1
5e6449ae5932461d728d2152,zz19xw94v5,Trevor_EX2,1,196,2020-07-23T15:19:38-07:00,1.7054920196533,2,Pure_Unrelated.csv,JOL_S_VersionB.csv,"Size U B","Size U B",,,,,,0,Instruct,User,-,"The following screen will ask you a few questions abour your experience today. You must complete these questions to receive credit.",,Instruct8,1494,,,-1,-1,,,,,1
