Username,ID,ExperimentName,Session,Trial,Date,TimeDif,"Condition Number","Stimuli File","Order File","Condition Description","Condition Notes",Stimuli*Cue,Stimuli*Answer,Stimuli*Shuffle,"Stimuli*Stimuli Notes",Stimuli*Value,Procedure*Item,"Procedure*Trial Type","Procedure*Max Time","Procedure*Min Time",Procedure*Text,"Procedure*Procedure Notes",Procedure*Shuffle,Response*RT,Response*Response,Response*Accuracy,Response*RTfirst,Response*RTlast,Response*strictAcc,Response*lenientAcc,Response*focus,Response*JOL,Response*Focus
5ee7a70c55e80504fa3bc6ab,juf0qrd5ol,Trevor_EX2,1,1,2020-07-23T14:48:14-07:00,5.2907428741455,4,Pure_Unrelated.csv,JOL_H_VersionB.csv,"Highlight U B","Highlight U B",,,,,,0,Instruct,-,5,"In this section, you will be presented with a series of word pairs.",Initial_Instruct,Instruct1,5093,,,-1,-1,,,,,0.846
5ee7a70c55e80504fa3bc6ab,juf0qrd5ol,Trevor_EX2,1,2,2020-07-23T14:48:26-07:00,11.684491157532,4,Pure_Unrelated.csv,JOL_H_VersionB.csv,"Highlight U B","Highlight U B",,,,,,0,Instruct,-,5,"As you study, you will be asked to rate your ability to remember the second item in the pair if you were only shown the first at test. You will make these ratings using a 0 to 100 Scale.",,Instruct13,11377,,,-1,-1,,,,,1
5ee7a70c55e80504fa3bc6ab,juf0qrd5ol,Trevor_EX2,1,3,2020-07-23T14:48:38-07:00,11.723011016846,4,Pure_Unrelated.csv,JOL_H_VersionB.csv,"Highlight U B","Highlight U B",,,,,,0,Instruct,-,10,"For example, if you are given the pair CAT - DOG, a rating of 0 indicates that you would not remember DOG at test, while a rating of 100 indicates full certainty that you would remember the word DOG at test.",,Instruct14,10421,,,-1,-1,,,,,1
5ee7a70c55e80504fa3bc6ab,juf0qrd5ol,Trevor_EX2,1,4,2020-07-23T14:48:48-07:00,10.672852993011,4,Pure_Unrelated.csv,JOL_H_VersionB.csv,"Highlight U B","Highlight U B",,,,,,0,Instruct,-,10,"When making your ratings, it is criticial that you use the full range of the scale. You will be disqualified for only giving ratings of 0 or 100! After making your rating, press Enter to advance to the next pair.",,Instruct15,10372,,,-1,-1,,,,,1
5ee7a70c55e80504fa3bc6ab,juf0qrd5ol,Trevor_EX2,1,5,2020-07-23T14:48:50-07:00,1.9451489448547,4,Pure_Unrelated.csv,JOL_H_VersionB.csv,"Highlight U B","Highlight U B",,,,,,0,Instruct,User,-,"You will now begin the study. Press Enter when you are ready to begin.",,Instruct16,1660,,,-1,-1,,,,,1
5ee7a70c55e80504fa3bc6ab,juf0qrd5ol,Trevor_EX2,1,6,2020-07-23T14:48:59-07:00,8.2294180393219,4,Pure_Unrelated.csv,JOL_H_VersionB.csv,"Highlight U B","Highlight U B",CAMP,ADVENTURE,BUFFER3,Buffer,95,54,JOL_H,User,-,"How likely are you to correctly recall the second item in the pair?|Type your response on a scale from 0-100 and then press Enter.",Study/JOL,BUFFER,7914,,,6563,6833,,,,40,1
5ee7a70c55e80504fa3bc6ab,juf0qrd5ol,Trevor_EX2,1,7,2020-07-23T14:49:02-07:00,3.8253829479218,4,Pure_Unrelated.csv,JOL_H_VersionB.csv,"Highlight U B","Highlight U B",SHRIMP,FISH,BUFFER3,Buffer,93,56,JOL_H,User,-,"How likely are you to correctly recall the second item in the pair?|Type your response on a scale from 0-100 and then press Enter.",Study/JOL,BUFFER,3532,,,2828,3035,,,,60,1
5ee7a70c55e80504fa3bc6ab,juf0qrd5ol,Trevor_EX2,1,8,2020-07-23T14:49:05-07:00,3.1199870109558,4,Pure_Unrelated.csv,JOL_H_VersionB.csv,"Highlight U B","Highlight U B",NOODLE,STRING,BUFFER3,Buffer,92,55,JOL_H,User,-,"How likely are you to correctly recall the second item in the pair?|Type your response on a scale from 0-100 and then press Enter.",Study/JOL,BUFFER,2811,,,1883,2242,,,,50,1
5ee7a70c55e80504fa3bc6ab,juf0qrd5ol,Trevor_EX2,1,9,2020-07-23T14:49:10-07:00,4.3077459335327,4,Pure_Unrelated.csv,JOL_H_VersionB.csv,"Highlight U B","Highlight U B",ICE,FROZEN,BUFFER3,Buffer,94,53,JOL,User,-,"How likely are you to correctly recall the second item in the pair?|Type your response on a scale from 0-100 and then press Enter.",Study/JOL,BUFFER,4014,,,3367,3430,,,,90,1
5ee7a70c55e80504fa3bc6ab,juf0qrd5ol,Trevor_EX2,1,10,2020-07-23T14:49:13-07:00,3.5702559947968,4,Pure_Unrelated.csv,JOL_H_VersionB.csv,"Highlight U B","Highlight U B",CARROT,POTATO,BUFFER3,Buffer,91,52,JOL,User,-,"How likely are you to correctly recall the second item in the pair?|Type your response on a scale from 0-100 and then press Enter.",Study/JOL,BUFFER,3278,,,1821,2253,,,,20,1
5ee7a70c55e80504fa3bc6ab,juf0qrd5ol,Trevor_EX2,1,11,2020-07-23T14:49:16-07:00,3.0279941558838,4,Pure_Unrelated.csv,JOL_H_VersionB.csv,"Highlight U B","Highlight U B",POSITION,MACHINE,Study2,U,106,80,JOL,User,-,"How likely are you to correctly recall the second item in the pair?|Type your response on a scale from 0-100 and then press Enter.",Study/JOL,"Study Phase",2720,,,2439,2439,,,,5,1
5ee7a70c55e80504fa3bc6ab,juf0qrd5ol,Trevor_EX2,1,12,2020-07-23T14:49:20-07:00,3.2487478256226,4,Pure_Unrelated.csv,JOL_H_VersionB.csv,"Highlight U B","Highlight U B",TUCK,ALLOW,Study2,U,108,71,JOL_H,User,-,"How likely are you to correctly recall the second item in the pair?|Type your response on a scale from 0-100 and then press Enter.",Study/JOL,"Study Phase",2941,,,2565,2565,,,,5,1
5ee7a70c55e80504fa3bc6ab,juf0qrd5ol,Trevor_EX2,1,13,2020-07-23T14:49:22-07:00,2.0711960792542,4,Pure_Unrelated.csv,JOL_H_VersionB.csv,"Highlight U B","Highlight U B",ROAD,SCENT,Study2,U,166,89,JOL,User,-,"How likely are you to correctly recall the second item in the pair?|Type your response on a scale from 0-100 and then press Enter.",Study/JOL,"Study Phase",1780,,,1484,1484,,,,5,1
5ee7a70c55e80504fa3bc6ab,juf0qrd5ol,Trevor_EX2,1,14,2020-07-23T14:49:24-07:00,1.9280669689178,4,Pure_Unrelated.csv,JOL_H_VersionB.csv,"Highlight U B","Highlight U B",SLIM,KNOW,Study2,U,164,64,JOL_H,User,-,"How likely are you to correctly recall the second item in the pair?|Type your response on a scale from 0-100 and then press Enter.",Study/JOL,"Study Phase",1627,,,1395,1395,,,,5,1
5ee7a70c55e80504fa3bc6ab,juf0qrd5ol,Trevor_EX2,1,15,2020-07-23T14:49:25-07:00,1.8245489597321,4,Pure_Unrelated.csv,JOL_H_VersionB.csv,"Highlight U B","Highlight U B",DETECT,FREE,Study2,U,162,66,JOL_H,User,-,"How likely are you to correctly recall the second item in the pair?|Type your response on a scale from 0-100 and then press Enter.",Study/JOL,"Study Phase",1533,,,1261,1261,,,,5,1
5ee7a70c55e80504fa3bc6ab,juf0qrd5ol,Trevor_EX2,1,16,2020-07-23T14:49:28-07:00,2.8972599506378,4,Pure_Unrelated.csv,JOL_H_VersionB.csv,"Highlight U B","Highlight U B",HAND,FIX,Study2,U,105,76,JOL_H,User,-,"How likely are you to correctly recall the second item in the pair?|Type your response on a scale from 0-100 and then press Enter.",Study/JOL,"Study Phase",2592,,,1992,2231,,,,25,1
5ee7a70c55e80504fa3bc6ab,juf0qrd5ol,Trevor_EX2,1,17,2020-07-23T14:49:32-07:00,3.5067601203918,4,Pure_Unrelated.csv,JOL_H_VersionB.csv,"Highlight U B","Highlight U B",WOULD,CASH,Study2,U,113,69,JOL_H,User,-,"How likely are you to correctly recall the second item in the pair?|Type your response on a scale from 0-100 and then press Enter.",Study/JOL,"Study Phase",3210,,,2482,2889,,,,20,1
5ee7a70c55e80504fa3bc6ab,juf0qrd5ol,Trevor_EX2,1,18,2020-07-23T14:49:35-07:00,3.0860688686371,4,Pure_Unrelated.csv,JOL_H_VersionB.csv,"Highlight U B","Highlight U B",PUT,ROLL,Study2,U,163,92,JOL,User,-,"How likely are you to correctly recall the second item in the pair?|Type your response on a scale from 0-100 and then press Enter.",Study/JOL,"Study Phase",2780,,,1796,2403,,,,10,1
5ee7a70c55e80504fa3bc6ab,juf0qrd5ol,Trevor_EX2,1,19,2020-07-23T14:49:37-07:00,2.2199461460114,4,Pure_Unrelated.csv,JOL_H_VersionB.csv,"Highlight U B","Highlight U B",STOMACH,TOWN,Study2,U,159,67,JOL_H,User,-,"How likely are you to correctly recall the second item in the pair?|Type your response on a scale from 0-100 and then press Enter.",Study/JOL,"Study Phase",1842,,,1546,1546,,,,5,1
5ee7a70c55e80504fa3bc6ab,juf0qrd5ol,Trevor_EX2,1,20,2020-07-23T14:49:39-07:00,2.1002910137177,4,Pure_Unrelated.csv,JOL_H_VersionB.csv,"Highlight U B","Highlight U B",MUTE,WAVE,Study2,U,173,81,JOL,User,-,"How likely are you to correctly recall the second item in the pair?|Type your response on a scale from 0-100 and then press Enter.",Study/JOL,"Study Phase",1805,,,1548,1548,,,,0,1
5ee7a70c55e80504fa3bc6ab,juf0qrd5ol,Trevor_EX2,1,21,2020-07-23T14:49:41-07:00,1.5150229930878,4,Pure_Unrelated.csv,JOL_H_VersionB.csv,"Highlight U B","Highlight U B",WOMAN,LIFT,Study2,U,99,57,JOL_H,User,-,"How likely are you to correctly recall the second item in the pair?|Type your response on a scale from 0-100 and then press Enter.",Study/JOL,"Study Phase",1232,,,1000,1000,,,,0,1
5ee7a70c55e80504fa3bc6ab,juf0qrd5ol,Trevor_EX2,1,22,2020-07-23T14:49:42-07:00,1.5112829208374,4,Pure_Unrelated.csv,JOL_H_VersionB.csv,"Highlight U B","Highlight U B",LION,ART,Study2,U,109,94,JOL,User,-,"How likely are you to correctly recall the second item in the pair?|Type your response on a scale from 0-100 and then press Enter.",Study/JOL,"Study Phase",1200,,,912,912,,,,0,1
5ee7a70c55e80504fa3bc6ab,juf0qrd5ol,Trevor_EX2,1,23,2020-07-23T14:49:44-07:00,1.2684350013733,4,Pure_Unrelated.csv,JOL_H_VersionB.csv,"Highlight U B","Highlight U B",ZOO,THUMB,Study2,U,168,75,JOL_H,User,-,"How likely are you to correctly recall the second item in the pair?|Type your response on a scale from 0-100 and then press Enter.",Study/JOL,"Study Phase",965,,,677,677,,,,0,1
5ee7a70c55e80504fa3bc6ab,juf0qrd5ol,Trevor_EX2,1,24,2020-07-23T14:49:45-07:00,1.4266300201416,4,Pure_Unrelated.csv,JOL_H_VersionB.csv,"Highlight U B","Highlight U B",SICK,HIDE,Study2,U,114,88,JOL,User,-,"How likely are you to correctly recall the second item in the pair?|Type your response on a scale from 0-100 and then press Enter.",Study/JOL,"Study Phase",1125,,,789,789,,,,0,1
5ee7a70c55e80504fa3bc6ab,juf0qrd5ol,Trevor_EX2,1,25,2020-07-23T14:49:47-07:00,1.5403470993042,4,Pure_Unrelated.csv,JOL_H_VersionB.csv,"Highlight U B","Highlight U B",ADD,VALLEY,Study2,U,112,59,JOL_H,User,-,"How likely are you to correctly recall the second item in the pair?|Type your response on a scale from 0-100 and then press Enter.",Study/JOL,"Study Phase",1243,,,906,906,,,,0,1
5ee7a70c55e80504fa3bc6ab,juf0qrd5ol,Trevor_EX2,1,26,2020-07-23T14:49:48-07:00,1.5613398551941,4,Pure_Unrelated.csv,JOL_H_VersionB.csv,"Highlight U B","Highlight U B",SPELL,BONE,Study2,U,174,87,JOL,User,-,"How likely are you to correctly recall the second item in the pair?|Type your response on a scale from 0-100 and then press Enter.",Study/JOL,"Study Phase",1268,,,971,971,,,,0,1
5ee7a70c55e80504fa3bc6ab,juf0qrd5ol,Trevor_EX2,1,27,2020-07-23T14:49:50-07:00,2.2828979492188,4,Pure_Unrelated.csv,JOL_H_VersionB.csv,"Highlight U B","Highlight U B",LISTEN,FICTION,Study1,U,14,23,JOL,User,-,"How likely are you to correctly recall the second item in the pair?|Type your response on a scale from 0-100 and then press Enter.",Study/JOL,"Study Phase",1976,,,1680,1680,,,,0,1
5ee7a70c55e80504fa3bc6ab,juf0qrd5ol,Trevor_EX2,1,28,2020-07-23T14:49:53-07:00,2.5132851600647,4,Pure_Unrelated.csv,JOL_H_VersionB.csv,"Highlight U B","Highlight U B",FLOAT,HARMONY,Study2,U,161,90,JOL,User,-,"How likely are you to correctly recall the second item in the pair?|Type your response on a scale from 0-100 and then press Enter.",Study/JOL,"Study Phase",2222,,,1238,1238,,,,0,1
5ee7a70c55e80504fa3bc6ab,juf0qrd5ol,Trevor_EX2,1,29,2020-07-23T14:49:55-07:00,2.4069139957428,4,Pure_Unrelated.csv,JOL_H_VersionB.csv,"Highlight U B","Highlight U B",SACKING,DIETARY,Study2,U,97,65,JOL_H,User,-,"How likely are you to correctly recall the second item in the pair?|Type your response on a scale from 0-100 and then press Enter.",Study/JOL,"Study Phase",2097,,,1873,1873,,,,0,1
5ee7a70c55e80504fa3bc6ab,juf0qrd5ol,Trevor_EX2,1,30,2020-07-23T14:49:57-07:00,1.614944934845,4,Pure_Unrelated.csv,JOL_H_VersionB.csv,"Highlight U B","Highlight U B",FLOOR,DISCOVER,Study2,U,101,62,JOL_H,User,-,"How likely are you to correctly recall the second item in the pair?|Type your response on a scale from 0-100 and then press Enter.",Study/JOL,"Study Phase",1308,,,595,595,,,,0,1
5ee7a70c55e80504fa3bc6ab,juf0qrd5ol,Trevor_EX2,1,31,2020-07-23T14:49:58-07:00,1.3683879375458,4,Pure_Unrelated.csv,JOL_H_VersionB.csv,"Highlight U B","Highlight U B",ADD,VALLEY,Study2,U,112,59,JOL_H,User,-,"How likely are you to correctly recall the second item in the pair?|Type your response on a scale from 0-100 and then press Enter.",Study/JOL,"Study Phase",1066,,,642,642,,,,0,1
5ee7a70c55e80504fa3bc6ab,juf0qrd5ol,Trevor_EX2,1,32,2020-07-23T14:50:00-07:00,1.2598741054535,4,Pure_Unrelated.csv,JOL_H_VersionB.csv,"Highlight U B","Highlight U B",PUFF,NUMBER,Study2,U,171,96,JOL,User,-,"How likely are you to correctly recall the second item in the pair?|Type your response on a scale from 0-100 and then press Enter.",Study/JOL,"Study Phase",951,,,663,663,,,,0,1
5ee7a70c55e80504fa3bc6ab,juf0qrd5ol,Trevor_EX2,1,33,2020-07-23T14:50:02-07:00,2.440141916275,4,Pure_Unrelated.csv,JOL_H_VersionB.csv,"Highlight U B","Highlight U B",RIDDLE,SUGAR,Study2,U,111,61,JOL_H,User,-,"How likely are you to correctly recall the second item in the pair?|Type your response on a scale from 0-100 and then press Enter.",Study/JOL,"Study Phase",1152,,,888,888,,,,0,1
5ee7a70c55e80504fa3bc6ab,juf0qrd5ol,Trevor_EX2,1,34,2020-07-23T14:50:03-07:00,1.119353055954,4,Pure_Unrelated.csv,JOL_H_VersionB.csv,"Highlight U B","Highlight U B",JELLY,NAUGHTY,Study2,U,172,77,JOL,User,-,"How likely are you to correctly recall the second item in the pair?|Type your response on a scale from 0-100 and then press Enter.",Study/JOL,"Study Phase",818,,,569,569,,,,0,1
5ee7a70c55e80504fa3bc6ab,juf0qrd5ol,Trevor_EX2,1,35,2020-07-23T14:50:05-07:00,2.0315730571747,4,Pure_Unrelated.csv,JOL_H_VersionB.csv,"Highlight U B","Highlight U B",READY,CORN,Study2,U,158,60,JOL_H,User,-,"How likely are you to correctly recall the second item in the pair?|Type your response on a scale from 0-100 and then press Enter.",Study/JOL,"Study Phase",748,,,508,508,,,,0,1
5ee7a70c55e80504fa3bc6ab,juf0qrd5ol,Trevor_EX2,1,36,2020-07-23T14:50:08-07:00,2.5480608940125,4,Pure_Unrelated.csv,JOL_H_VersionB.csv,"Highlight U B","Highlight U B",HUNGRY,PARK,Study2,U,98,78,JOL,User,-,"How likely are you to correctly recall the second item in the pair?|Type your response on a scale from 0-100 and then press Enter.",Study/JOL,"Study Phase",1250,,,938,938,,,,0,1
5ee7a70c55e80504fa3bc6ab,juf0qrd5ol,Trevor_EX2,1,37,2020-07-23T14:50:09-07:00,1.3320591449738,4,Pure_Unrelated.csv,JOL_H_VersionB.csv,"Highlight U B","Highlight U B",SYSTEM,LICK,Study2,U,167,70,JOL_H,User,-,"How likely are you to correctly recall the second item in the pair?|Type your response on a scale from 0-100 and then press Enter.",Study/JOL,"Study Phase",1033,,,689,689,,,,0,1
5ee7a70c55e80504fa3bc6ab,juf0qrd5ol,Trevor_EX2,1,38,2020-07-23T14:50:10-07:00,1.2710089683533,4,Pure_Unrelated.csv,JOL_H_VersionB.csv,"Highlight U B","Highlight U B",SIGHT,DEBATE,Study2,U,103,63,JOL_H,User,-,"How likely are you to correctly recall the second item in the pair?|Type your response on a scale from 0-100 and then press Enter.",Study/JOL,"Study Phase",979,,,747,747,,,,0,1
5ee7a70c55e80504fa3bc6ab,juf0qrd5ol,Trevor_EX2,1,39,2020-07-23T14:50:12-07:00,1.7098479270935,4,Pure_Unrelated.csv,JOL_H_VersionB.csv,"Highlight U B","Highlight U B",SWING,FOG,Study2,U,175,85,JOL,User,-,"How likely are you to correctly recall the second item in the pair?|Type your response on a scale from 0-100 and then press Enter.",Study/JOL,"Study Phase",1393,,,537,537,,,,0,1
5ee7a70c55e80504fa3bc6ab,juf0qrd5ol,Trevor_EX2,1,40,2020-07-23T14:50:15-07:00,2.7852909564972,4,Pure_Unrelated.csv,JOL_H_VersionB.csv,"Highlight U B","Highlight U B",CAR,HAPPY,Study2,U,107,95,JOL,User,-,"How likely are you to correctly recall the second item in the pair?|Type your response on a scale from 0-100 and then press Enter.",Study/JOL,"Study Phase",2477,,,2244,2244,,,,0,1
5ee7a70c55e80504fa3bc6ab,juf0qrd5ol,Trevor_EX2,1,41,2020-07-23T14:50:16-07:00,1.0584659576416,4,Pure_Unrelated.csv,JOL_H_VersionB.csv,"Highlight U B","Highlight U B",WASTE,SEDATE,Study2,U,165,73,JOL_H,User,-,"How likely are you to correctly recall the second item in the pair?|Type your response on a scale from 0-100 and then press Enter.",Study/JOL,"Study Phase",757,,,493,493,,,,0,1
5ee7a70c55e80504fa3bc6ab,juf0qrd5ol,Trevor_EX2,1,42,2020-07-23T14:50:17-07:00,1.0412330627441,4,Pure_Unrelated.csv,JOL_H_VersionB.csv,"Highlight U B","Highlight U B",VASE,KING,Study2,U,115,86,JOL,User,-,"How likely are you to correctly recall the second item in the pair?|Type your response on a scale from 0-100 and then press Enter.",Study/JOL,"Study Phase",747,,,482,482,,,,0,1
5ee7a70c55e80504fa3bc6ab,juf0qrd5ol,Trevor_EX2,1,43,2020-07-23T14:50:18-07:00,0.99037313461304,4,Pure_Unrelated.csv,JOL_H_VersionB.csv,"Highlight U B","Highlight U B",GUARD,WHEEL,Study2,U,170,72,JOL_H,User,-,"How likely are you to correctly recall the second item in the pair?|Type your response on a scale from 0-100 and then press Enter.",Study/JOL,"Study Phase",691,,,442,442,,,,0,1
5ee7a70c55e80504fa3bc6ab,juf0qrd5ol,Trevor_EX2,1,44,2020-07-23T14:50:19-07:00,1.4189209938049,4,Pure_Unrelated.csv,JOL_H_VersionB.csv,"Highlight U B","Highlight U B",ACCIDENT,STRONG,Study2,U,110,93,JOL,User,-,"How likely are you to correctly recall the second item in the pair?|Type your response on a scale from 0-100 and then press Enter.",Study/JOL,"Study Phase",1128,,,544,544,,,,0,1
5ee7a70c55e80504fa3bc6ab,juf0qrd5ol,Trevor_EX2,1,45,2020-07-23T14:50:21-07:00,2.0378978252411,4,Pure_Unrelated.csv,JOL_H_VersionB.csv,"Highlight U B","Highlight U B",CLUTTER,PUSHER,Study2,U,96,79,JOL,User,-,"How likely are you to correctly recall the second item in the pair?|Type your response on a scale from 0-100 and then press Enter.",Study/JOL,"Study Phase",1724,,,692,692,,,,0,1
5ee7a70c55e80504fa3bc6ab,juf0qrd5ol,Trevor_EX2,1,46,2020-07-23T14:50:24-07:00,2.242928981781,4,Pure_Unrelated.csv,JOL_H_VersionB.csv,"Highlight U B","Highlight U B",NULL,COUGH,Study2,U,156,74,JOL_H,User,-,"How likely are you to correctly recall the second item in the pair?|Type your response on a scale from 0-100 and then press Enter.",Study/JOL,"Study Phase",1945,,,553,553,,,,0,1
5ee7a70c55e80504fa3bc6ab,juf0qrd5ol,Trevor_EX2,1,47,2020-07-23T14:50:25-07:00,1.2296741008759,4,Pure_Unrelated.csv,JOL_H_VersionB.csv,"Highlight U B","Highlight U B",BRONZE,ARTERY,Study2,U,104,82,JOL,User,-,"How likely are you to correctly recall the second item in the pair?|Type your response on a scale from 0-100 and then press Enter.",Study/JOL,"Study Phase",934,,,734,734,,,,0,1
5ee7a70c55e80504fa3bc6ab,juf0qrd5ol,Trevor_EX2,1,48,2020-07-23T14:50:26-07:00,1.1182370185852,4,Pure_Unrelated.csv,JOL_H_VersionB.csv,"Highlight U B","Highlight U B",LAKE,OPINION,Study2,U,160,68,JOL_H,User,-,"How likely are you to correctly recall the second item in the pair?|Type your response on a scale from 0-100 and then press Enter.",Study/JOL,"Study Phase",818,,,585,585,,,,0,1
5ee7a70c55e80504fa3bc6ab,juf0qrd5ol,Trevor_EX2,1,49,2020-07-23T14:50:27-07:00,1.500951051712,4,Pure_Unrelated.csv,JOL_H_VersionB.csv,"Highlight U B","Highlight U B",Business,Death,Study2,U,102,91,JOL,User,-,"How likely are you to correctly recall the second item in the pair?|Type your response on a scale from 0-100 and then press Enter.",Study/JOL,"Study Phase",1202,,,922,922,,,,0,1
5ee7a70c55e80504fa3bc6ab,juf0qrd5ol,Trevor_EX2,1,50,2020-07-23T14:50:29-07:00,1.2095608711243,4,Pure_Unrelated.csv,JOL_H_VersionB.csv,"Highlight U B","Highlight U B",SMOOTH,OMIT,Study2,U,157,84,JOL,User,-,"How likely are you to correctly recall the second item in the pair?|Type your response on a scale from 0-100 and then press Enter.",Study/JOL,"Study Phase",921,,,665,665,,,,0,1
5ee7a70c55e80504fa3bc6ab,juf0qrd5ol,Trevor_EX2,1,51,2020-07-23T14:50:32-07:00,3.7580749988556,4,Pure_Unrelated.csv,JOL_H_VersionB.csv,"Highlight U B","Highlight U B",MONTH,YEAR,BUFFER4,Buffer,177,98,JOL_H,User,-,"How likely are you to correctly recall the second item in the pair?|Type your response on a scale from 0-100 and then press Enter.",Study/JOL,BUFFER2,3458,,,2586,3185,,,,100,1
5ee7a70c55e80504fa3bc6ab,juf0qrd5ol,Trevor_EX2,1,52,2020-07-23T14:50:35-07:00,2.8885769844055,4,Pure_Unrelated.csv,JOL_H_VersionB.csv,"Highlight U B","Highlight U B",TOOL,SHED,BUFFER4,Buffer,178,100,JOL,User,-,"How likely are you to correctly recall the second item in the pair?|Type your response on a scale from 0-100 and then press Enter.",Study/JOL,BUFFER2,2582,,,1782,2005,,,,70,1
5ee7a70c55e80504fa3bc6ab,juf0qrd5ol,Trevor_EX2,1,53,2020-07-23T14:50:38-07:00,2.2312190532684,4,Pure_Unrelated.csv,JOL_H_VersionB.csv,"Highlight U B","Highlight U B",DAYS,WEEKS,BUFFER4,Buffer,176,101,JOL,User,-,"How likely are you to correctly recall the second item in the pair?|Type your response on a scale from 0-100 and then press Enter.",Study/JOL,BUFFER2,1830,,,1037,1573,,,,100,1
5ee7a70c55e80504fa3bc6ab,juf0qrd5ol,Trevor_EX2,1,54,2020-07-23T14:50:41-07:00,3.1429109573364,4,Pure_Unrelated.csv,JOL_H_VersionB.csv,"Highlight U B","Highlight U B",OCTOBER,SPOOKY,BUFFER4,Buffer,180,99,JOL_H,User,-,"How likely are you to correctly recall the second item in the pair?|Type your response on a scale from 0-100 and then press Enter.",Study/JOL,BUFFER2,2745,,,1897,2360,,,,75,1
5ee7a70c55e80504fa3bc6ab,juf0qrd5ol,Trevor_EX2,1,55,2020-07-23T14:50:43-07:00,2.7263140678406,4,Pure_Unrelated.csv,JOL_H_VersionB.csv,"Highlight U B","Highlight U B",SPRING,MARCH,BUFFER4,Buffer,179,97,JOL_H,User,-,"How likely are you to correctly recall the second item in the pair?|Type your response on a scale from 0-100 and then press Enter.",Study/JOL,BUFFER2,2426,,,2090,2145,,,,75,1
5ee7a70c55e80504fa3bc6ab,juf0qrd5ol,Trevor_EX2,1,56,2020-07-23T14:50:45-07:00,1.2539880275726,4,Pure_Unrelated.csv,JOL_H_VersionB.csv,"Highlight U B","Highlight U B",,,,,,0,Instruct,User,-,"You have completed this section. Please press Enter.",Filler_Instruction,Instruct2,956,,,-1,-1,,,,,1
5ee7a70c55e80504fa3bc6ab,juf0qrd5ol,Trevor_EX2,1,57,2020-07-23T14:52:46-07:00,121.40599989891,4,Pure_Unrelated.csv,JOL_H_VersionB.csv,"Highlight U B","Highlight U B",,,,,,0,FreeRecall,120,120,"Please list the 50 US states in alphabetical order. The task will automatically advance to the next screen after two minutes.",,Filler1,120001,"Alabama Connecticut California Florida Mississippi New York South Dakota Texas Washington DC",0,7129,117880,0,0,,,0.997
5ee7a70c55e80504fa3bc6ab,juf0qrd5ol,Trevor_EX2,1,58,2020-07-23T14:52:57-07:00,10.740794181824,4,Pure_Unrelated.csv,JOL_H_VersionB.csv,"Highlight U B","Highlight U B",,,,,,0,Instruct,-,10,"You will now be presented with the first word from each of the previously studied item pairs. Please type the missing word. If you do not know the word, you may guess or press Enter to skip forward to the next pair.",,Instruct3,10421,,,-1,-1,,,,,0.925
5ee7a70c55e80504fa3bc6ab,juf0qrd5ol,Trevor_EX2,1,59,2020-07-23T14:53:01-07:00,4.2189698219299,4,Pure_Unrelated.csv,JOL_H_VersionB.csv,"Highlight U B","Highlight U B",PUT,ROLL,Study2,U,163,92,Test,User,-,,Recall,Recall1,3917,In,0,3397,3741,0,0,,,1
5ee7a70c55e80504fa3bc6ab,juf0qrd5ol,Trevor_EX2,1,60,2020-07-23T14:53:04-07:00,2.9126040935516,4,Pure_Unrelated.csv,JOL_H_VersionB.csv,"Highlight U B","Highlight U B",POSITION,MACHINE,Study2,U,106,80,Test,User,-,,Recall,Recall1,1601,,0,-1,-1,0,0,,,1
5ee7a70c55e80504fa3bc6ab,juf0qrd5ol,Trevor_EX2,1,61,2020-07-23T14:53:05-07:00,1.495285987854,4,Pure_Unrelated.csv,JOL_H_VersionB.csv,"Highlight U B","Highlight U B",SPELL,BONE,Study2,U,174,87,Test,User,-,,Recall,Recall1,1194,,0,-1,-1,0,0,,,1
5ee7a70c55e80504fa3bc6ab,juf0qrd5ol,Trevor_EX2,1,62,2020-07-23T14:53:08-07:00,2.9354438781738,4,Pure_Unrelated.csv,JOL_H_VersionB.csv,"Highlight U B","Highlight U B",FLOAT,HARMONY,Study2,U,161,90,Test,User,-,,Recall,Recall1,2610,Sink,18.181818181818,1746,2393,0,0,,,1
5ee7a70c55e80504fa3bc6ab,juf0qrd5ol,Trevor_EX2,1,63,2020-07-23T14:53:11-07:00,2.5228900909424,4,Pure_Unrelated.csv,JOL_H_VersionB.csv,"Highlight U B","Highlight U B",GUARD,WHEEL,Study2,U,170,72,Test,User,-,,Recall,Recall1,2224,Position,0,1296,2032,0,0,,,1
5ee7a70c55e80504fa3bc6ab,juf0qrd5ol,Trevor_EX2,1,64,2020-07-23T14:53:14-07:00,3.3166840076447,4,Pure_Unrelated.csv,JOL_H_VersionB.csv,"Highlight U B","Highlight U B",ADD,VALLEY,Study2,U,112,59,Test,User,-,,Recall,Recall1,3010,Subtract,14.285714285714,1209,2858,0,0,,,1
5ee7a70c55e80504fa3bc6ab,juf0qrd5ol,Trevor_EX2,1,65,2020-07-23T14:53:17-07:00,2.4182960987091,4,Pure_Unrelated.csv,JOL_H_VersionB.csv,"Highlight U B","Highlight U B",Business,Death,Study2,U,102,91,Test,User,-,,Recall,Recall1,2105,Death,100,1153,1912,1,1,,,1
5ee7a70c55e80504fa3bc6ab,juf0qrd5ol,Trevor_EX2,1,66,2020-07-23T14:53:18-07:00,1.2058508396149,4,Pure_Unrelated.csv,JOL_H_VersionB.csv,"Highlight U B","Highlight U B",WASTE,SEDATE,Study2,U,165,73,Test,User,-,,Recall,Recall1,907,,0,-1,-1,0,0,,,1
5ee7a70c55e80504fa3bc6ab,juf0qrd5ol,Trevor_EX2,1,67,2020-07-23T14:53:19-07:00,1.0226199626923,4,Pure_Unrelated.csv,JOL_H_VersionB.csv,"Highlight U B","Highlight U B",TUCK,ALLOW,Study2,U,108,71,Test,User,-,,Recall,Recall1,716,,0,-1,-1,0,0,,,1
5ee7a70c55e80504fa3bc6ab,juf0qrd5ol,Trevor_EX2,1,68,2020-07-23T14:53:20-07:00,1.3199441432953,4,Pure_Unrelated.csv,JOL_H_VersionB.csv,"Highlight U B","Highlight U B",SMOOTH,OMIT,Study2,U,157,84,Test,User,-,,Recall,Recall1,1020,,0,-1,-1,0,0,,,1
5ee7a70c55e80504fa3bc6ab,juf0qrd5ol,Trevor_EX2,1,69,2020-07-23T14:53:21-07:00,0.92036986351013,4,Pure_Unrelated.csv,JOL_H_VersionB.csv,"Highlight U B","Highlight U B",SWING,FOG,Study2,U,175,85,Test,User,-,,Recall,Recall1,628,,0,-1,-1,0,0,,,1
5ee7a70c55e80504fa3bc6ab,juf0qrd5ol,Trevor_EX2,1,70,2020-07-23T14:53:22-07:00,0.8427140712738,4,Pure_Unrelated.csv,JOL_H_VersionB.csv,"Highlight U B","Highlight U B",JELLY,NAUGHTY,Study2,U,172,77,Test,User,-,,Recall,Recall1,539,,0,-1,-1,0,0,,,1
5ee7a70c55e80504fa3bc6ab,juf0qrd5ol,Trevor_EX2,1,71,2020-07-23T14:53:23-07:00,1.2895131111145,4,Pure_Unrelated.csv,JOL_H_VersionB.csv,"Highlight U B","Highlight U B",SYSTEM,LICK,Study2,U,167,70,Test,User,-,,Recall,Recall1,999,,0,-1,-1,0,0,,,1
5ee7a70c55e80504fa3bc6ab,juf0qrd5ol,Trevor_EX2,1,72,2020-07-23T14:53:26-07:00,2.8468549251556,4,Pure_Unrelated.csv,JOL_H_VersionB.csv,"Highlight U B","Highlight U B",LISTEN,FICTION,Study1,U,14,23,Test,User,-,,Recall,Recall1,2541,Deaf,18.181818181818,1684,2397,0,0,,,1
5ee7a70c55e80504fa3bc6ab,juf0qrd5ol,Trevor_EX2,1,73,2020-07-23T14:53:27-07:00,1.1820759773254,4,Pure_Unrelated.csv,JOL_H_VersionB.csv,"Highlight U B","Highlight U B",ROAD,SCENT,Study2,U,166,89,Test,User,-,,Recall,Recall1,880,,0,-1,-1,0,0,,,1
5ee7a70c55e80504fa3bc6ab,juf0qrd5ol,Trevor_EX2,1,74,2020-07-23T14:53:30-07:00,2.7399580478668,4,Pure_Unrelated.csv,JOL_H_VersionB.csv,"Highlight U B","Highlight U B",ZOO,THUMB,Study2,U,168,75,Test,User,-,,Recall,Recall1,2434,Thumb,100,1242,2209,1,1,,,1
5ee7a70c55e80504fa3bc6ab,juf0qrd5ol,Trevor_EX2,1,75,2020-07-23T14:53:31-07:00,0.93699789047241,4,Pure_Unrelated.csv,JOL_H_VersionB.csv,"Highlight U B","Highlight U B",STOMACH,TOWN,Study2,U,159,67,Test,User,-,,Recall,Recall1,645,,0,-1,-1,0,0,,,1
5ee7a70c55e80504fa3bc6ab,juf0qrd5ol,Trevor_EX2,1,76,2020-07-23T14:53:32-07:00,0.90405011177063,4,Pure_Unrelated.csv,JOL_H_VersionB.csv,"Highlight U B","Highlight U B",MUTE,WAVE,Study2,U,173,81,Test,User,-,,Recall,Recall1,598,,0,-1,-1,0,0,,,1
5ee7a70c55e80504fa3bc6ab,juf0qrd5ol,Trevor_EX2,1,77,2020-07-23T14:53:33-07:00,0.87271094322205,4,Pure_Unrelated.csv,JOL_H_VersionB.csv,"Highlight U B","Highlight U B",SLIM,KNOW,Study2,U,164,64,Test,User,-,,Recall,Recall1,588,,0,-1,-1,0,0,,,1
5ee7a70c55e80504fa3bc6ab,juf0qrd5ol,Trevor_EX2,1,78,2020-07-23T14:53:34-07:00,1.2250471115112,4,Pure_Unrelated.csv,JOL_H_VersionB.csv,"Highlight U B","Highlight U B",READY,CORN,Study2,U,158,60,Test,User,-,,Recall,Recall1,923,,0,-1,-1,0,0,,,1
5ee7a70c55e80504fa3bc6ab,juf0qrd5ol,Trevor_EX2,1,79,2020-07-23T14:53:36-07:00,1.9751119613647,4,Pure_Unrelated.csv,JOL_H_VersionB.csv,"Highlight U B","Highlight U B",WOMAN,LIFT,Study2,U,99,57,Test,User,-,,Recall,Recall1,1686,Man,0,1134,1446,0,0,,,1
5ee7a70c55e80504fa3bc6ab,juf0qrd5ol,Trevor_EX2,1,80,2020-07-23T14:53:37-07:00,1.1511390209198,4,Pure_Unrelated.csv,JOL_H_VersionB.csv,"Highlight U B","Highlight U B",CLUTTER,PUSHER,Study2,U,96,79,Test,User,-,,Recall,Recall1,847,,0,-1,-1,0,0,,,1
5ee7a70c55e80504fa3bc6ab,juf0qrd5ol,Trevor_EX2,1,81,2020-07-23T14:53:42-07:00,5.1007788181305,4,Pure_Unrelated.csv,JOL_H_VersionB.csv,"Highlight U B","Highlight U B",SIGHT,DEBATE,Study2,U,103,63,Test,User,-,,Recall,Recall1,4807,Hear,40,3791,4494,0,0,,,1
5ee7a70c55e80504fa3bc6ab,juf0qrd5ol,Trevor_EX2,1,82,2020-07-23T14:53:43-07:00,1.0310761928558,4,Pure_Unrelated.csv,JOL_H_VersionB.csv,"Highlight U B","Highlight U B",WOULD,CASH,Study2,U,113,69,Test,User,-,,Recall,Recall1,730,,0,-1,-1,0,0,,,1
5ee7a70c55e80504fa3bc6ab,juf0qrd5ol,Trevor_EX2,1,83,2020-07-23T14:53:45-07:00,1.6423218250275,4,Pure_Unrelated.csv,JOL_H_VersionB.csv,"Highlight U B","Highlight U B",FLOOR,DISCOVER,Study2,U,101,62,Test,User,-,,Recall,Recall1,1343,,0,-1,-1,0,0,,,1
5ee7a70c55e80504fa3bc6ab,juf0qrd5ol,Trevor_EX2,1,84,2020-07-23T14:53:46-07:00,0.95472002029419,4,Pure_Unrelated.csv,JOL_H_VersionB.csv,"Highlight U B","Highlight U B",BRONZE,ARTERY,Study2,U,104,82,Test,User,-,,Recall,Recall1,649,,0,-1,-1,0,0,,,1
5ee7a70c55e80504fa3bc6ab,juf0qrd5ol,Trevor_EX2,1,85,2020-07-23T14:53:47-07:00,0.86469912528992,4,Pure_Unrelated.csv,JOL_H_VersionB.csv,"Highlight U B","Highlight U B",SACKING,DIETARY,Study2,U,97,65,Test,User,-,,Recall,Recall1,572,,0,-1,-1,0,0,,,1
5ee7a70c55e80504fa3bc6ab,juf0qrd5ol,Trevor_EX2,1,86,2020-07-23T14:53:48-07:00,1.1201329231262,4,Pure_Unrelated.csv,JOL_H_VersionB.csv,"Highlight U B","Highlight U B",SICK,HIDE,Study2,U,114,88,Test,User,-,,Recall,Recall1,809,,0,-1,-1,0,0,,,1
5ee7a70c55e80504fa3bc6ab,juf0qrd5ol,Trevor_EX2,1,87,2020-07-23T14:53:49-07:00,0.94189691543579,4,Pure_Unrelated.csv,JOL_H_VersionB.csv,"Highlight U B","Highlight U B",DETECT,FREE,Study2,U,162,66,Test,User,-,,Recall,Recall1,636,,0,-1,-1,0,0,,,1
5ee7a70c55e80504fa3bc6ab,juf0qrd5ol,Trevor_EX2,1,88,2020-07-23T14:53:50-07:00,1.0898680686951,4,Pure_Unrelated.csv,JOL_H_VersionB.csv,"Highlight U B","Highlight U B",VASE,KING,Study2,U,115,86,Test,User,-,,Recall,Recall1,790,,0,-1,-1,0,0,,,1
5ee7a70c55e80504fa3bc6ab,juf0qrd5ol,Trevor_EX2,1,89,2020-07-23T14:53:53-07:00,3.1140289306641,4,Pure_Unrelated.csv,JOL_H_VersionB.csv,"Highlight U B","Highlight U B",CAR,HAPPY,Study2,U,107,95,Test,User,-,,Recall,Recall1,2815,Wash,22.222222222222,1783,2526,0,0,,,1
5ee7a70c55e80504fa3bc6ab,juf0qrd5ol,Trevor_EX2,1,90,2020-07-23T14:53:55-07:00,1.9114120006561,4,Pure_Unrelated.csv,JOL_H_VersionB.csv,"Highlight U B","Highlight U B",HAND,FIX,Study2,U,105,76,Test,User,-,,Recall,Recall1,1616,,0,-1,-1,0,0,,,1
5ee7a70c55e80504fa3bc6ab,juf0qrd5ol,Trevor_EX2,1,91,2020-07-23T14:53:56-07:00,0.88547301292419,4,Pure_Unrelated.csv,JOL_H_VersionB.csv,"Highlight U B","Highlight U B",PUFF,NUMBER,Study2,U,171,96,Test,User,-,,Recall,Recall1,589,,0,-1,-1,0,0,,,1
5ee7a70c55e80504fa3bc6ab,juf0qrd5ol,Trevor_EX2,1,92,2020-07-23T14:53:59-07:00,2.8918440341949,4,Pure_Unrelated.csv,JOL_H_VersionB.csv,"Highlight U B","Highlight U B",LION,ART,Study2,U,109,94,Test,User,-,,Recall,Recall1,2598,King,0,1237,2445,0,0,,,1
5ee7a70c55e80504fa3bc6ab,juf0qrd5ol,Trevor_EX2,1,93,2020-07-23T14:54:00-07:00,0.92532014846802,4,Pure_Unrelated.csv,JOL_H_VersionB.csv,"Highlight U B","Highlight U B",ACCIDENT,STRONG,Study2,U,110,93,Test,User,-,,Recall,Recall1,612,,0,-1,-1,0,0,,,1
5ee7a70c55e80504fa3bc6ab,juf0qrd5ol,Trevor_EX2,1,94,2020-07-23T14:54:04-07:00,4.7322459220886,4,Pure_Unrelated.csv,JOL_H_VersionB.csv,"Highlight U B","Highlight U B",LAKE,OPINION,Study2,U,160,68,Test,User,-,,Recall,Recall1,2431,Opinion,100,1494,2214,1,1,,,1
5ee7a70c55e80504fa3bc6ab,juf0qrd5ol,Trevor_EX2,1,95,2020-07-23T14:54:05-07:00,0.82280898094177,4,Pure_Unrelated.csv,JOL_H_VersionB.csv,"Highlight U B","Highlight U B",NULL,COUGH,Study2,U,156,74,Test,User,-,,Recall,Recall1,523,,0,-1,-1,0,0,,,1
5ee7a70c55e80504fa3bc6ab,juf0qrd5ol,Trevor_EX2,1,96,2020-07-23T14:54:07-07:00,2.2277200222015,4,Pure_Unrelated.csv,JOL_H_VersionB.csv,"Highlight U B","Highlight U B",RIDDLE,SUGAR,Study2,U,111,61,Test,User,-,,Recall,Recall1,1917,,0,-1,-1,0,0,,,1
5ee7a70c55e80504fa3bc6ab,juf0qrd5ol,Trevor_EX2,1,97,2020-07-23T14:54:08-07:00,0.71608209609985,4,Pure_Unrelated.csv,JOL_H_VersionB.csv,"Highlight U B","Highlight U B",HUNGRY,PARK,Study2,U,98,78,Test,User,-,,Recall,Recall1,413,,0,-1,-1,0,0,,,1
5ee7a70c55e80504fa3bc6ab,juf0qrd5ol,Trevor_EX2,1,98,2020-07-23T14:54:09-07:00,0.85760188102722,4,Pure_Unrelated.csv,JOL_H_VersionB.csv,"Highlight U B","Highlight U B",ADD,VALLEY,Study2,U,112,59,Test,User,-,,Recall,Recall1,556,,0,-1,-1,0,0,,,1
5ee7a70c55e80504fa3bc6ab,juf0qrd5ol,Trevor_EX2,1,99,2020-07-23T14:54:21-07:00,11.751981973648,4,Pure_Unrelated.csv,JOL_H_VersionB.csv,"Highlight U B","Highlight U B",,,,,,0,Instruct,-,10,"You will now be presented with a new set of word pairs. Please study each pair. Remember that your memory will be tested! When finished, press Enter to move to the next pair.",Initial_Instruct,Instruct4,10452,,,-1,-1,,,,,1
5ee7a70c55e80504fa3bc6ab,juf0qrd5ol,Trevor_EX2,1,100,2020-07-23T14:54:31-07:00,10.784631967545,4,Pure_Unrelated.csv,JOL_H_VersionB.csv,"Highlight U B","Highlight U B",,,,,,0,Instruct,,10,"You will again be asked to rate your ability to remember these items using a 0 to 100 scale. Remember to use the full range of the scale!",,Instruct10,10477,,,-1,-1,,,,,1
5ee7a70c55e80504fa3bc6ab,juf0qrd5ol,Trevor_EX2,1,101,2020-07-23T14:54:33-07:00,1.3890810012817,4,Pure_Unrelated.csv,JOL_H_VersionB.csv,"Highlight U B","Highlight U B",,,,,,0,Instruct,User,-,"Press Enter when you are readty to begin",,Instruct11,1083,,,-1,-1,,,,,1
5ee7a70c55e80504fa3bc6ab,juf0qrd5ol,Trevor_EX2,1,102,2020-07-23T14:54:37-07:00,3.7145249843597,4,Pure_Unrelated.csv,JOL_H_VersionB.csv,"Highlight U B","Highlight U B",SCARE,HIDE,BUFFER1,Buffer,4,3,JOL,User,-,"How likely are you to correctly recall the second item in the pair?|Type your response on a scale from 0-100 and then press Enter.",Study/JOL,BUFFER3,3394,,,2515,3097,,,,100,1
5ee7a70c55e80504fa3bc6ab,juf0qrd5ol,Trevor_EX2,1,103,2020-07-23T14:54:40-07:00,3.7379059791565,4,Pure_Unrelated.csv,JOL_H_VersionB.csv,"Highlight U B","Highlight U B",BASEBALL,CATCHER,BUFFER1,Buffer,2,5,JOL_H,User,-,"How likely are you to correctly recall the second item in the pair?|Type your response on a scale from 0-100 and then press Enter.",Study/JOL,BUFFER3,2435,,,1515,2050,,,,100,1
5ee7a70c55e80504fa3bc6ab,juf0qrd5ol,Trevor_EX2,1,104,2020-07-23T14:54:43-07:00,2.3596751689911,4,Pure_Unrelated.csv,JOL_H_VersionB.csv,"Highlight U B","Highlight U B",SPACE,JAM,BUFFER1,Buffer,5,2,JOL,User,-,"How likely are you to correctly recall the second item in the pair?|Type your response on a scale from 0-100 and then press Enter.",Study/JOL,BUFFER3,2036,,,1052,1683,,,,100,1
5ee7a70c55e80504fa3bc6ab,juf0qrd5ol,Trevor_EX2,1,105,2020-07-23T14:54:45-07:00,2.0285699367523,4,Pure_Unrelated.csv,JOL_H_VersionB.csv,"Highlight U B","Highlight U B",TREES,GREEN,BUFFER1,Buffer,1,6,JOL_H,User,-,"How likely are you to correctly recall the second item in the pair?|Type your response on a scale from 0-100 and then press Enter.",Study/JOL,BUFFER3,1736,,,655,1366,,,,100,1
5ee7a70c55e80504fa3bc6ab,juf0qrd5ol,Trevor_EX2,1,106,2020-07-23T14:54:47-07:00,2.0078070163727,4,Pure_Unrelated.csv,JOL_H_VersionB.csv,"Highlight U B","Highlight U B",PEANUT,BUTTER,BUFFER1,Buffer,3,4,JOL_H,User,-,"How likely are you to correctly recall the second item in the pair?|Type your response on a scale from 0-100 and then press Enter.",Study/JOL,BUFFER3,1706,,,929,1473,,,,100,1
5ee7a70c55e80504fa3bc6ab,juf0qrd5ol,Trevor_EX2,1,107,2020-07-23T14:54:49-07:00,2.2337889671326,4,Pure_Unrelated.csv,JOL_H_VersionB.csv,"Highlight U B","Highlight U B",WARN,SEA,Study1,U,80,40,JOL,User,-,"How likely are you to correctly recall the second item in the pair?|Type your response on a scale from 0-100 and then press Enter.",Study/JOL,"Study Phase2",1937,,,1409,1688,,,,50,1
5ee7a70c55e80504fa3bc6ab,juf0qrd5ol,Trevor_EX2,1,108,2020-07-23T14:54:51-07:00,2.4819169044495,4,Pure_Unrelated.csv,JOL_H_VersionB.csv,"Highlight U B","Highlight U B",MAZE,ELECTION,Study1,U,9,45,JOL,User,-,"How likely are you to correctly recall the second item in the pair?|Type your response on a scale from 0-100 and then press Enter.",Study/JOL,"Study Phase2",2175,,,655,1902,,,,0,1
5ee7a70c55e80504fa3bc6ab,juf0qrd5ol,Trevor_EX2,1,109,2020-07-23T14:54:53-07:00,1.1605100631714,4,Pure_Unrelated.csv,JOL_H_VersionB.csv,"Highlight U B","Highlight U B",BROAD,INFECT,Study1,U,75,13,JOL_H,User,-,"How likely are you to correctly recall the second item in the pair?|Type your response on a scale from 0-100 and then press Enter.",Study/JOL,"Study Phase2",856,,,656,656,,,,0,1
5ee7a70c55e80504fa3bc6ab,juf0qrd5ol,Trevor_EX2,1,110,2020-07-23T14:54:54-07:00,1.3702421188354,4,Pure_Unrelated.csv,JOL_H_VersionB.csv,"Highlight U B","Highlight U B",NAME,HATE,Study1,U,17,41,JOL,User,-,"How likely are you to correctly recall the second item in the pair?|Type your response on a scale from 0-100 and then press Enter.",Study/JOL,"Study Phase2",1068,,,836,836,,,,0,1
5ee7a70c55e80504fa3bc6ab,juf0qrd5ol,Trevor_EX2,1,111,2020-07-23T14:54:55-07:00,1.3829798698425,4,Pure_Unrelated.csv,JOL_H_VersionB.csv,"Highlight U B","Highlight U B",STRETCH,CLOTH,Study1,U,7,7,JOL_H,User,-,"How likely are you to correctly recall the second item in the pair?|Type your response on a scale from 0-100 and then press Enter.",Study/JOL,"Study Phase2",1078,,,838,838,,,,0,1
5ee7a70c55e80504fa3bc6ab,juf0qrd5ol,Trevor_EX2,1,112,2020-07-23T14:54:58-07:00,2.4688360691071,4,Pure_Unrelated.csv,JOL_H_VersionB.csv,"Highlight U B","Highlight U B",FUZZY,BANG,Study1,U,18,24,JOL_H,User,-,"How likely are you to correctly recall the second item in the pair?|Type your response on a scale from 0-100 and then press Enter.",Study/JOL,"Study Phase2",2161,,,1665,1936,,,,25,1
5ee7a70c55e80504fa3bc6ab,juf0qrd5ol,Trevor_EX2,1,113,2020-07-23T14:54:59-07:00,1.5085439682007,4,Pure_Unrelated.csv,JOL_H_VersionB.csv,"Highlight U B","Highlight U B",JUSTICE,MAROON,Study1,U,6,29,JOL,User,-,"How likely are you to correctly recall the second item in the pair?|Type your response on a scale from 0-100 and then press Enter.",Study/JOL,"Study Phase2",1215,,,999,999,,,,0,1
5ee7a70c55e80504fa3bc6ab,juf0qrd5ol,Trevor_EX2,1,114,2020-07-23T14:55:00-07:00,1.2413949966431,4,Pure_Unrelated.csv,JOL_H_VersionB.csv,"Highlight U B","Highlight U B",MEAT,OBTAIN,Study1,U,11,18,JOL_H,User,-,"How likely are you to correctly recall the second item in the pair?|Type your response on a scale from 0-100 and then press Enter.",Study/JOL,"Study Phase2",920,,,712,712,,,,0,1
5ee7a70c55e80504fa3bc6ab,juf0qrd5ol,Trevor_EX2,1,115,2020-07-23T14:55:02-07:00,1.0432960987091,4,Pure_Unrelated.csv,JOL_H_VersionB.csv,"Highlight U B","Highlight U B",RIPE,VERIFY,Study1,U,83,46,JOL,User,-,"How likely are you to correctly recall the second item in the pair?|Type your response on a scale from 0-100 and then press Enter.",Study/JOL,"Study Phase2",745,,,520,520,,,,0,1
5ee7a70c55e80504fa3bc6ab,juf0qrd5ol,Trevor_EX2,1,116,2020-07-23T14:55:03-07:00,1.0006630420685,4,Pure_Unrelated.csv,JOL_H_VersionB.csv,"Highlight U B","Highlight U B",CRACKLE,ABLE,Study1,U,12,17,JOL_H,User,-,"How likely are you to correctly recall the second item in the pair?|Type your response on a scale from 0-100 and then press Enter.",Study/JOL,"Study Phase2",711,,,486,486,,,,0,1
5ee7a70c55e80504fa3bc6ab,juf0qrd5ol,Trevor_EX2,1,117,2020-07-23T14:55:04-07:00,1.0954020023346,4,Pure_Unrelated.csv,JOL_H_VersionB.csv,"Highlight U B","Highlight U B",CRAYON,RATE,Study1,U,79,34,JOL,User,-,"How likely are you to correctly recall the second item in the pair?|Type your response on a scale from 0-100 and then press Enter.",Study/JOL,"Study Phase2",794,,,570,570,,,,0,1
5ee7a70c55e80504fa3bc6ab,juf0qrd5ol,Trevor_EX2,1,118,2020-07-23T14:55:05-07:00,1.136058807373,4,Pure_Unrelated.csv,JOL_H_VersionB.csv,"Highlight U B","Highlight U B",TAX,OWL,Study1,U,72,26,JOL_H,User,-,"How likely are you to correctly recall the second item in the pair?|Type your response on a scale from 0-100 and then press Enter.",Study/JOL,"Study Phase2",844,,,596,596,,,,0,1
5ee7a70c55e80504fa3bc6ab,juf0qrd5ol,Trevor_EX2,1,119,2020-07-23T14:55:06-07:00,1.275425195694,4,Pure_Unrelated.csv,JOL_H_VersionB.csv,"Highlight U B","Highlight U B",PET,MOON,Study1,U,74,16,JOL_H,User,-,"How likely are you to correctly recall the second item in the pair?|Type your response on a scale from 0-100 and then press Enter.",Study/JOL,"Study Phase2",968,,,776,776,,,,0,1
5ee7a70c55e80504fa3bc6ab,juf0qrd5ol,Trevor_EX2,1,120,2020-07-23T14:55:07-07:00,1.4566287994385,4,Pure_Unrelated.csv,JOL_H_VersionB.csv,"Highlight U B","Highlight U B",TEMPERATURE,MORNING,Study1,U,23,12,JOL_H,User,-,"How likely are you to correctly recall the second item in the pair?|Type your response on a scale from 0-100 and then press Enter.",Study/JOL,"Study Phase2",1142,,,566,566,,,,0,1
5ee7a70c55e80504fa3bc6ab,juf0qrd5ol,Trevor_EX2,1,121,2020-07-23T14:55:09-07:00,1.8461771011353,4,Pure_Unrelated.csv,JOL_H_VersionB.csv,"Highlight U B","Highlight U B",THICK,CONTEST,Study1,U,73,25,JOL_H,User,-,"How likely are you to correctly recall the second item in the pair?|Type your response on a scale from 0-100 and then press Enter.",Study/JOL,"Study Phase2",1538,,,1314,1314,,,,0,1
5ee7a70c55e80504fa3bc6ab,juf0qrd5ol,Trevor_EX2,1,122,2020-07-23T14:55:13-07:00,3.4537999629974,4,Pure_Unrelated.csv,JOL_H_VersionB.csv,"Highlight U B","Highlight U B",DIFFICULT,POOR,Study1,U,81,44,JOL,User,-,"How likely are you to correctly recall the second item in the pair?|Type your response on a scale from 0-100 and then press Enter.",Study/JOL,"Study Phase2",3152,,,680,2975,,,,50,1
5ee7a70c55e80504fa3bc6ab,juf0qrd5ol,Trevor_EX2,1,123,2020-07-23T14:55:15-07:00,1.7179789543152,4,Pure_Unrelated.csv,JOL_H_VersionB.csv,"Highlight U B","Highlight U B",CAKE,CLOTHES,Study1,U,16,15,JOL_H,User,-,"How likely are you to correctly recall the second item in the pair?|Type your response on a scale from 0-100 and then press Enter.",Study/JOL,"Study Phase2",1403,,,1075,1075,,,,0,1
5ee7a70c55e80504fa3bc6ab,juf0qrd5ol,Trevor_EX2,1,124,2020-07-23T14:55:15-07:00,0.97771310806274,4,Pure_Unrelated.csv,JOL_H_VersionB.csv,"Highlight U B","Highlight U B",INFLATE,DISGUST,Study1,U,76,14,JOL_H,User,-,"How likely are you to correctly recall the second item in the pair?|Type your response on a scale from 0-100 and then press Enter.",Study/JOL,"Study Phase2",684,,,466,466,,,,0,1
5ee7a70c55e80504fa3bc6ab,juf0qrd5ol,Trevor_EX2,1,125,2020-07-23T14:55:17-07:00,1.3380110263824,4,Pure_Unrelated.csv,JOL_H_VersionB.csv,"Highlight U B","Highlight U B",KEYS,JOKE,Study1,U,15,32,JOL,User,-,"How likely are you to correctly recall the second item in the pair?|Type your response on a scale from 0-100 and then press Enter.",Study/JOL,"Study Phase2",1044,,,828,828,,,,0,1
5ee7a70c55e80504fa3bc6ab,juf0qrd5ol,Trevor_EX2,1,126,2020-07-23T14:55:18-07:00,1.0466248989105,4,Pure_Unrelated.csv,JOL_H_VersionB.csv,"Highlight U B","Highlight U B",ROSE,NEGLECT,Study1,U,82,33,JOL,User,-,"How likely are you to correctly recall the second item in the pair?|Type your response on a scale from 0-100 and then press Enter.",Study/JOL,"Study Phase2",745,,,513,513,,,,0,1
5ee7a70c55e80504fa3bc6ab,juf0qrd5ol,Trevor_EX2,1,127,2020-07-23T14:55:19-07:00,0.96165013313293,4,Pure_Unrelated.csv,JOL_H_VersionB.csv,"Highlight U B","Highlight U B",BOTH,OUNCE,Study1,U,22,9,JOL_H,User,-,"How likely are you to correctly recall the second item in the pair?|Type your response on a scale from 0-100 and then press Enter.",Study/JOL,"Study Phase2",655,,,414,414,,,,0,1
5ee7a70c55e80504fa3bc6ab,juf0qrd5ol,Trevor_EX2,1,128,2020-07-23T14:55:20-07:00,0.9859139919281,4,Pure_Unrelated.csv,JOL_H_VersionB.csv,"Highlight U B","Highlight U B",VEHICLE,CHARM,Study1,U,10,42,JOL,User,-,"How likely are you to correctly recall the second item in the pair?|Type your response on a scale from 0-100 and then press Enter.",Study/JOL,"Study Phase2",679,,,478,478,,,,0,1
5ee7a70c55e80504fa3bc6ab,juf0qrd5ol,Trevor_EX2,1,129,2020-07-23T14:55:21-07:00,0.98231196403503,4,Pure_Unrelated.csv,JOL_H_VersionB.csv,"Highlight U B","Highlight U B",MOAT,CLEAR,Study1,U,19,31,JOL,User,-,"How likely are you to correctly recall the second item in the pair?|Type your response on a scale from 0-100 and then press Enter.",Study/JOL,"Study Phase2",686,,,470,470,,,,0,1
5ee7a70c55e80504fa3bc6ab,juf0qrd5ol,Trevor_EX2,1,130,2020-07-23T14:55:22-07:00,1.0222668647766,4,Pure_Unrelated.csv,JOL_H_VersionB.csv,"Highlight U B","Highlight U B",STRESS,YAM,Study1,U,68,28,JOL,User,-,"How likely are you to correctly recall the second item in the pair?|Type your response on a scale from 0-100 and then press Enter.",Study/JOL,"Study Phase2",720,,,504,504,,,,0,1
5ee7a70c55e80504fa3bc6ab,juf0qrd5ol,Trevor_EX2,1,131,2020-07-23T14:55:23-07:00,1.0322229862213,4,Pure_Unrelated.csv,JOL_H_VersionB.csv,"Highlight U B","Highlight U B",RESIST,GLUE,Study1,U,69,10,JOL_H,User,-,"How likely are you to correctly recall the second item in the pair?|Type your response on a scale from 0-100 and then press Enter.",Study/JOL,"Study Phase2",744,,,480,480,,,,0,1
5ee7a70c55e80504fa3bc6ab,juf0qrd5ol,Trevor_EX2,1,132,2020-07-23T14:55:24-07:00,1.1944210529327,4,Pure_Unrelated.csv,JOL_H_VersionB.csv,"Highlight U B","Highlight U B",MIRROR,CHILDREN,Study1,U,24,37,JOL,User,-,"How likely are you to correctly recall the second item in the pair?|Type your response on a scale from 0-100 and then press Enter.",Study/JOL,"Study Phase2",890,,,698,698,,,,0,1
5ee7a70c55e80504fa3bc6ab,juf0qrd5ol,Trevor_EX2,1,133,2020-07-23T14:55:25-07:00,1.0369429588318,4,Pure_Unrelated.csv,JOL_H_VersionB.csv,"Highlight U B","Highlight U B",LOAN,SIGN,Study1,U,21,35,JOL,User,-,"How likely are you to correctly recall the second item in the pair?|Type your response on a scale from 0-100 and then press Enter.",Study/JOL,"Study Phase2",745,,,513,513,,,,0,1
5ee7a70c55e80504fa3bc6ab,juf0qrd5ol,Trevor_EX2,1,134,2020-07-23T14:55:26-07:00,1.1043441295624,4,Pure_Unrelated.csv,JOL_H_VersionB.csv,"Highlight U B","Highlight U B",NUMBER,HARD,Study1,U,78,21,JOL_H,User,-,"How likely are you to correctly recall the second item in the pair?|Type your response on a scale from 0-100 and then press Enter.",Study/JOL,"Study Phase2",807,,,575,575,,,,0,1
5ee7a70c55e80504fa3bc6ab,juf0qrd5ol,Trevor_EX2,1,135,2020-07-23T14:55:28-07:00,1.8239550590515,4,Pure_Unrelated.csv,JOL_H_VersionB.csv,"Highlight U B","Highlight U B",LISTEN,FICTION,Study1,U,14,23,JOL_H,User,-,"How likely are you to correctly recall the second item in the pair?|Type your response on a scale from 0-100 and then press Enter.",Study/JOL,"Study Phase2",1524,,,1292,1292,,,,0,1
5ee7a70c55e80504fa3bc6ab,juf0qrd5ol,Trevor_EX2,1,136,2020-07-23T14:55:29-07:00,1.2755208015442,4,Pure_Unrelated.csv,JOL_H_VersionB.csv,"Highlight U B","Highlight U B",BAT,SHAKY,Study1,U,66,36,JOL,User,-,"How likely are you to correctly recall the second item in the pair?|Type your response on a scale from 0-100 and then press Enter.",Study/JOL,"Study Phase2",978,,,778,778,,,,0,1
5ee7a70c55e80504fa3bc6ab,juf0qrd5ol,Trevor_EX2,1,137,2020-07-23T14:55:31-07:00,2.0336301326752,4,Pure_Unrelated.csv,JOL_H_VersionB.csv,"Highlight U B","Highlight U B",DONKEY,LUSH,Study1,U,84,39,JOL,User,-,"How likely are you to correctly recall the second item in the pair?|Type your response on a scale from 0-100 and then press Enter.",Study/JOL,"Study Phase2",1713,,,697,697,,,,0,1
5ee7a70c55e80504fa3bc6ab,juf0qrd5ol,Trevor_EX2,1,138,2020-07-23T14:55:32-07:00,0.89864492416382,4,Pure_Unrelated.csv,JOL_H_VersionB.csv,"Highlight U B","Highlight U B",DEGREE,CHAIR,Study1,U,71,43,JOL,User,-,"How likely are you to correctly recall the second item in the pair?|Type your response on a scale from 0-100 and then press Enter.",Study/JOL,"Study Phase2",602,,,370,370,,,,0,1
5ee7a70c55e80504fa3bc6ab,juf0qrd5ol,Trevor_EX2,1,139,2020-07-23T14:55:33-07:00,1.048287153244,4,Pure_Unrelated.csv,JOL_H_VersionB.csv,"Highlight U B","Highlight U B",FUTURE,SINCERE,Study1,U,70,38,JOL,User,-,"How likely are you to correctly recall the second item in the pair?|Type your response on a scale from 0-100 and then press Enter.",Study/JOL,"Study Phase2",709,,,357,357,,,,0,1
5ee7a70c55e80504fa3bc6ab,juf0qrd5ol,Trevor_EX2,1,140,2020-07-23T14:55:34-07:00,1.1636688709259,4,Pure_Unrelated.csv,JOL_H_VersionB.csv,"Highlight U B","Highlight U B",SHELL,SHAKE,Study1,U,13,8,JOL_H,User,-,"How likely are you to correctly recall the second item in the pair?|Type your response on a scale from 0-100 and then press Enter.",Study/JOL,"Study Phase2",862,,,670,670,,,,0,1
5ee7a70c55e80504fa3bc6ab,juf0qrd5ol,Trevor_EX2,1,141,2020-07-23T14:55:35-07:00,0.91594409942627,4,Pure_Unrelated.csv,JOL_H_VersionB.csv,"Highlight U B","Highlight U B",MAIN,SCAR,Study1,U,25,11,JOL_H,User,-,"How likely are you to correctly recall the second item in the pair?|Type your response on a scale from 0-100 and then press Enter.",Study/JOL,"Study Phase2",628,,,380,380,,,,0,1
5ee7a70c55e80504fa3bc6ab,juf0qrd5ol,Trevor_EX2,1,142,2020-07-23T14:55:36-07:00,1.073068857193,4,Pure_Unrelated.csv,JOL_H_VersionB.csv,"Highlight U B","Highlight U B",GRIND,STAND,Study1,U,85,22,JOL_H,User,-,"How likely are you to correctly recall the second item in the pair?|Type your response on a scale from 0-100 and then press Enter.",Study/JOL,"Study Phase2",765,,,501,501,,,,0,1
5ee7a70c55e80504fa3bc6ab,juf0qrd5ol,Trevor_EX2,1,143,2020-07-23T14:55:38-07:00,1.425173997879,4,Pure_Unrelated.csv,JOL_H_VersionB.csv,"Highlight U B","Highlight U B",LEASE,TOIL,Study1,U,20,19,JOL_H,User,-,"How likely are you to correctly recall the second item in the pair?|Type your response on a scale from 0-100 and then press Enter.",Study/JOL,"Study Phase2",1130,,,922,922,,,,0,1
5ee7a70c55e80504fa3bc6ab,juf0qrd5ol,Trevor_EX2,1,144,2020-07-23T14:55:39-07:00,1.0317471027374,4,Pure_Unrelated.csv,JOL_H_VersionB.csv,"Highlight U B","Highlight U B",GIVE,STEAK,Study1,U,8,20,JOL_H,User,-,"How likely are you to correctly recall the second item in the pair?|Type your response on a scale from 0-100 and then press Enter.",Study/JOL,"Study Phase2",735,,,391,391,,,,0,1
5ee7a70c55e80504fa3bc6ab,juf0qrd5ol,Trevor_EX2,1,145,2020-07-23T14:55:40-07:00,1.3700320720673,4,Pure_Unrelated.csv,JOL_H_VersionB.csv,"Highlight U B","Highlight U B",DIZZY,SWEATER,Study1,U,77,30,JOL,User,-,"How likely are you to correctly recall the second item in the pair?|Type your response on a scale from 0-100 and then press Enter.",Study/JOL,"Study Phase2",1041,,,745,745,,,,0,1
5ee7a70c55e80504fa3bc6ab,juf0qrd5ol,Trevor_EX2,1,146,2020-07-23T14:55:41-07:00,0.96334481239319,4,Pure_Unrelated.csv,JOL_H_VersionB.csv,"Highlight U B","Highlight U B",PARCEL,THROAT,Study1,U,67,27,JOL,User,-,"How likely are you to correctly recall the second item in the pair?|Type your response on a scale from 0-100 and then press Enter.",Study/JOL,"Study Phase2",668,,,468,468,,,,0,1
5ee7a70c55e80504fa3bc6ab,juf0qrd5ol,Trevor_EX2,1,147,2020-07-23T14:55:42-07:00,1.0488321781158,4,Pure_Unrelated.csv,JOL_H_VersionB.csv,"Highlight U B","Highlight U B",MALT,CHOCOLATE,BUFFER2,Buffer,88,51,JOL,User,-,"How likely are you to correctly recall the second item in the pair?|Type your response on a scale from 0-100 and then press Enter.",Study/JOL,BUFFER4,750,,,534,534,,,,0,1
5ee7a70c55e80504fa3bc6ab,juf0qrd5ol,Trevor_EX2,1,148,2020-07-23T14:55:43-07:00,1.1443169116974,4,Pure_Unrelated.csv,JOL_H_VersionB.csv,"Highlight U B","Highlight U B",SHERRIF,POLICE,BUFFER2,Buffer,87,48,JOL_H,User,-,"How likely are you to correctly recall the second item in the pair?|Type your response on a scale from 0-100 and then press Enter.",Study/JOL,BUFFER4,847,,,639,639,,,,0,1
5ee7a70c55e80504fa3bc6ab,juf0qrd5ol,Trevor_EX2,1,149,2020-07-23T14:55:46-07:00,2.3249170780182,4,Pure_Unrelated.csv,JOL_H_VersionB.csv,"Highlight U B","Highlight U B",THING,STUFF,BUFFER2,Buffer,90,47,JOL_H,User,-,"How likely are you to correctly recall the second item in the pair?|Type your response on a scale from 0-100 and then press Enter.",Study/JOL,BUFFER4,2026,,,1418,1761,,,,50,1
5ee7a70c55e80504fa3bc6ab,juf0qrd5ol,Trevor_EX2,1,150,2020-07-23T14:55:48-07:00,2.4572718143463,4,Pure_Unrelated.csv,JOL_H_VersionB.csv,"Highlight U B","Highlight U B",MOON,SPACE,BUFFER2,Buffer,89,49,JOL_H,User,-,"How likely are you to correctly recall the second item in the pair?|Type your response on a scale from 0-100 and then press Enter.",Study/JOL,BUFFER4,2154,,,1762,1953,,,,70,1
5ee7a70c55e80504fa3bc6ab,juf0qrd5ol,Trevor_EX2,1,151,2020-07-23T14:55:51-07:00,3.1184771060944,4,Pure_Unrelated.csv,JOL_H_VersionB.csv,"Highlight U B","Highlight U B",GEESE,GOOSE,BUFFER2,Buffer,86,50,JOL,User,-,"How likely are you to correctly recall the second item in the pair?|Type your response on a scale from 0-100 and then press Enter.",Study/JOL,BUFFER4,2812,,,2372,2619,,,,50,1
5ee7a70c55e80504fa3bc6ab,juf0qrd5ol,Trevor_EX2,1,152,2020-07-23T14:55:53-07:00,1.3613049983978,4,Pure_Unrelated.csv,JOL_H_VersionB.csv,"Highlight U B","Highlight U B",,,,,,0,Instruct,User,-,"You have completed this section. Please press Enter.",Filler_Instruction,Instruct5,1051,,,-1,-1,,,,,1
5ee7a70c55e80504fa3bc6ab,juf0qrd5ol,Trevor_EX2,1,153,2020-07-23T14:57:53-07:00,120.41076803207,4,Pure_Unrelated.csv,JOL_H_VersionB.csv,"Highlight U B","Highlight U B",,,,,,0,FreeRecall,120,120,"Please list the 50 US states in reverse alphabetical order (z - a). The task will automatically advance to the next screen after two minutes.",,Filler2,120001,"Washington DC Texas South Dakota North Dakota New York Mississippi Florida Detroit Connecticut California Alabama",0,6765,66900,0,0,,,0.95
5ee7a70c55e80504fa3bc6ab,juf0qrd5ol,Trevor_EX2,1,154,2020-07-23T14:58:13-07:00,19.755153894424,4,Pure_Unrelated.csv,JOL_H_VersionB.csv,"Highlight U B","Highlight U B",,,,,,0,Instruct,-,10,"You will now be presented with the first word from each of the previously studied item pairs. Please type the missing word. If you do not know the word, you may guess or press Enter to skip forward to the next pair.",,Instruct6,19431,,,-1,-1,,,,,0.173
5ee7a70c55e80504fa3bc6ab,juf0qrd5ol,Trevor_EX2,1,155,2020-07-23T14:58:17-07:00,3.9533870220184,4,Pure_Unrelated.csv,JOL_H_VersionB.csv,"Highlight U B","Highlight U B",VEHICLE,CHARM,Study1,U,10,42,Test,User,-,,Recall,Recall2,3645,Motor,20,2900,3492,0,0,,,1
5ee7a70c55e80504fa3bc6ab,juf0qrd5ol,Trevor_EX2,1,156,2020-07-23T14:58:19-07:00,1.7159259319305,4,Pure_Unrelated.csv,JOL_H_VersionB.csv,"Highlight U B","Highlight U B",MAZE,ELECTION,Study1,U,9,45,Test,User,-,,Recall,Recall2,1406,,0,-1,-1,0,0,,,1
5ee7a70c55e80504fa3bc6ab,juf0qrd5ol,Trevor_EX2,1,157,2020-07-23T14:58:20-07:00,1.3577110767365,4,Pure_Unrelated.csv,JOL_H_VersionB.csv,"Highlight U B","Highlight U B",BAT,SHAKY,Study1,U,66,36,Test,User,-,,Recall,Recall2,1031,,0,-1,-1,0,0,,,1
5ee7a70c55e80504fa3bc6ab,juf0qrd5ol,Trevor_EX2,1,158,2020-07-23T14:58:21-07:00,1.3819179534912,4,Pure_Unrelated.csv,JOL_H_VersionB.csv,"Highlight U B","Highlight U B",FUZZY,BANG,Study1,U,18,24,Test,User,-,,Recall,Recall2,1074,,0,-1,-1,0,0,,,1
5ee7a70c55e80504fa3bc6ab,juf0qrd5ol,Trevor_EX2,1,159,2020-07-23T14:58:23-07:00,2.2358980178833,4,Pure_Unrelated.csv,JOL_H_VersionB.csv,"Highlight U B","Highlight U B",DIFFICULT,POOR,Study1,U,81,44,Test,User,-,,Recall,Recall2,1847,Hard,25,1191,1734,0,0,,,1
5ee7a70c55e80504fa3bc6ab,juf0qrd5ol,Trevor_EX2,1,160,2020-07-23T14:58:25-07:00,1.35049700737,4,Pure_Unrelated.csv,JOL_H_VersionB.csv,"Highlight U B","Highlight U B",PET,MOON,Study1,U,74,16,Test,User,-,,Recall,Recall2,1033,,0,-1,-1,0,0,,,1
5ee7a70c55e80504fa3bc6ab,juf0qrd5ol,Trevor_EX2,1,161,2020-07-23T14:58:26-07:00,1.1498379707336,4,Pure_Unrelated.csv,JOL_H_VersionB.csv,"Highlight U B","Highlight U B",MAIN,SCAR,Study1,U,25,11,Test,User,-,,Recall,Recall2,849,,0,-1,-1,0,0,,,1
5ee7a70c55e80504fa3bc6ab,juf0qrd5ol,Trevor_EX2,1,162,2020-07-23T14:58:28-07:00,2.2362620830536,4,Pure_Unrelated.csv,JOL_H_VersionB.csv,"Highlight U B","Highlight U B",MOAT,CLEAR,Study1,U,19,31,Test,User,-,,Recall,Recall2,1867,Clear,100,1074,1746,1,1,,,1
5ee7a70c55e80504fa3bc6ab,juf0qrd5ol,Trevor_EX2,1,163,2020-07-23T14:58:29-07:00,0.97749996185303,4,Pure_Unrelated.csv,JOL_H_VersionB.csv,"Highlight U B","Highlight U B",STRETCH,CLOTH,Study1,U,7,7,Test,User,-,,Recall,Recall2,683,,0,-1,-1,0,0,,,1
5ee7a70c55e80504fa3bc6ab,juf0qrd5ol,Trevor_EX2,1,164,2020-07-23T14:58:30-07:00,0.89133095741272,4,Pure_Unrelated.csv,JOL_H_VersionB.csv,"Highlight U B","Highlight U B",THICK,CONTEST,Study1,U,73,25,Test,User,-,,Recall,Recall2,586,,0,-1,-1,0,0,,,1
5ee7a70c55e80504fa3bc6ab,juf0qrd5ol,Trevor_EX2,1,165,2020-07-23T14:58:31-07:00,1.0282411575317,4,Pure_Unrelated.csv,JOL_H_VersionB.csv,"Highlight U B","Highlight U B",LEASE,TOIL,Study1,U,20,19,Test,User,-,,Recall,Recall2,733,,0,-1,-1,0,0,,,1
5ee7a70c55e80504fa3bc6ab,juf0qrd5ol,Trevor_EX2,1,166,2020-07-23T14:58:34-07:00,3.1318259239197,4,Pure_Unrelated.csv,JOL_H_VersionB.csv,"Highlight U B","Highlight U B",BROAD,INFECT,Study1,U,75,13,Test,User,-,,Recall,Recall2,2822,Weather,30.769230769231,1805,2693,0,0,,,1
5ee7a70c55e80504fa3bc6ab,juf0qrd5ol,Trevor_EX2,1,167,2020-07-23T14:58:35-07:00,0.865807056427,4,Pure_Unrelated.csv,JOL_H_VersionB.csv,"Highlight U B","Highlight U B",STRESS,YAM,Study1,U,68,28,Test,User,-,,Recall,Recall2,569,,0,-1,-1,0,0,,,1
5ee7a70c55e80504fa3bc6ab,juf0qrd5ol,Trevor_EX2,1,168,2020-07-23T14:58:36-07:00,1.2585959434509,4,Pure_Unrelated.csv,JOL_H_VersionB.csv,"Highlight U B","Highlight U B",KEYS,JOKE,Study1,U,15,32,Test,User,-,,Recall,Recall2,955,,0,-1,-1,0,0,,,1
5ee7a70c55e80504fa3bc6ab,juf0qrd5ol,Trevor_EX2,1,169,2020-07-23T14:58:39-07:00,2.6676609516144,4,Pure_Unrelated.csv,JOL_H_VersionB.csv,"Highlight U B","Highlight U B",DIZZY,SWEATER,Study1,U,77,30,Test,User,-,,Recall,Recall2,2370,Fizzy,0,1250,2009,0,0,,,1
5ee7a70c55e80504fa3bc6ab,juf0qrd5ol,Trevor_EX2,1,170,2020-07-23T14:58:40-07:00,1.3613920211792,4,Pure_Unrelated.csv,JOL_H_VersionB.csv,"Highlight U B","Highlight U B",NAME,HATE,Study1,U,17,41,Test,User,-,,Recall,Recall2,1043,,0,-1,-1,0,0,,,1
5ee7a70c55e80504fa3bc6ab,juf0qrd5ol,Trevor_EX2,1,171,2020-07-23T14:58:41-07:00,0.70747399330139,4,Pure_Unrelated.csv,JOL_H_VersionB.csv,"Highlight U B","Highlight U B",DEGREE,CHAIR,Study1,U,71,43,Test,User,-,,Recall,Recall2,407,,0,-1,-1,0,0,,,1
5ee7a70c55e80504fa3bc6ab,juf0qrd5ol,Trevor_EX2,1,172,2020-07-23T14:58:42-07:00,0.73615503311157,4,Pure_Unrelated.csv,JOL_H_VersionB.csv,"Highlight U B","Highlight U B",JUSTICE,MAROON,Study1,U,6,29,Test,User,-,,Recall,Recall2,420,,0,-1,-1,0,0,,,1
5ee7a70c55e80504fa3bc6ab,juf0qrd5ol,Trevor_EX2,1,173,2020-07-23T14:58:43-07:00,1.142874956131,4,Pure_Unrelated.csv,JOL_H_VersionB.csv,"Highlight U B","Highlight U B",MIRROR,CHILDREN,Study1,U,24,37,Test,User,-,,Recall,Recall2,852,,0,-1,-1,0,0,,,1
5ee7a70c55e80504fa3bc6ab,juf0qrd5ol,Trevor_EX2,1,174,2020-07-23T14:58:44-07:00,0.83317399024963,4,Pure_Unrelated.csv,JOL_H_VersionB.csv,"Highlight U B","Highlight U B",RESIST,GLUE,Study1,U,69,10,Test,User,-,,Recall,Recall2,507,,0,-1,-1,0,0,,,1
5ee7a70c55e80504fa3bc6ab,juf0qrd5ol,Trevor_EX2,1,175,2020-07-23T14:58:45-07:00,0.67804503440857,4,Pure_Unrelated.csv,JOL_H_VersionB.csv,"Highlight U B","Highlight U B",SHELL,SHAKE,Study1,U,13,8,Test,User,-,,Recall,Recall2,386,,0,-1,-1,0,0,,,1
5ee7a70c55e80504fa3bc6ab,juf0qrd5ol,Trevor_EX2,1,176,2020-07-23T14:58:45-07:00,0.78408193588257,4,Pure_Unrelated.csv,JOL_H_VersionB.csv,"Highlight U B","Highlight U B",NUMBER,HARD,Study1,U,78,21,Test,User,-,,Recall,Recall2,485,,0,-1,-1,0,0,,,1
5ee7a70c55e80504fa3bc6ab,juf0qrd5ol,Trevor_EX2,1,177,2020-07-23T14:58:46-07:00,0.68024396896362,4,Pure_Unrelated.csv,JOL_H_VersionB.csv,"Highlight U B","Highlight U B",TAX,OWL,Study1,U,72,26,Test,User,-,,Recall,Recall2,381,,0,-1,-1,0,0,,,1
5ee7a70c55e80504fa3bc6ab,juf0qrd5ol,Trevor_EX2,1,178,2020-07-23T14:58:47-07:00,0.90413308143616,4,Pure_Unrelated.csv,JOL_H_VersionB.csv,"Highlight U B","Highlight U B",GIVE,STEAK,Study1,U,8,20,Test,User,-,,Recall,Recall2,599,,0,-1,-1,0,0,,,1
5ee7a70c55e80504fa3bc6ab,juf0qrd5ol,Trevor_EX2,1,179,2020-07-23T14:58:48-07:00,0.7696840763092,4,Pure_Unrelated.csv,JOL_H_VersionB.csv,"Highlight U B","Highlight U B",LISTEN,FICTION,Study1,U,14,23,Test,User,-,,Recall,Recall2,476,,0,-1,-1,0,0,,,1
5ee7a70c55e80504fa3bc6ab,juf0qrd5ol,Trevor_EX2,1,180,2020-07-23T14:58:49-07:00,0.9502899646759,4,Pure_Unrelated.csv,JOL_H_VersionB.csv,"Highlight U B","Highlight U B",BOTH,OUNCE,Study1,U,22,9,Test,User,-,,Recall,Recall2,658,,0,-1,-1,0,0,,,1
5ee7a70c55e80504fa3bc6ab,juf0qrd5ol,Trevor_EX2,1,181,2020-07-23T14:58:50-07:00,1.1045439243317,4,Pure_Unrelated.csv,JOL_H_VersionB.csv,"Highlight U B","Highlight U B",MEAT,OBTAIN,Study1,U,11,18,Test,User,-,,Recall,Recall2,808,,0,-1,-1,0,0,,,1
5ee7a70c55e80504fa3bc6ab,juf0qrd5ol,Trevor_EX2,1,182,2020-07-23T14:58:51-07:00,0.87750005722046,4,Pure_Unrelated.csv,JOL_H_VersionB.csv,"Highlight U B","Highlight U B",INFLATE,DISGUST,Study1,U,76,14,Test,User,-,,Recall,Recall2,582,,0,-1,-1,0,0,,,1
5ee7a70c55e80504fa3bc6ab,juf0qrd5ol,Trevor_EX2,1,183,2020-07-23T14:58:51-07:00,0.72787809371948,4,Pure_Unrelated.csv,JOL_H_VersionB.csv,"Highlight U B","Highlight U B",LOAN,SIGN,Study1,U,21,35,Test,User,-,,Recall,Recall2,435,,0,-1,-1,0,0,,,1
5ee7a70c55e80504fa3bc6ab,juf0qrd5ol,Trevor_EX2,1,184,2020-07-23T14:58:53-07:00,1.2087140083313,4,Pure_Unrelated.csv,JOL_H_VersionB.csv,"Highlight U B","Highlight U B",CAKE,CLOTHES,Study1,U,16,15,Test,User,-,,Recall,Recall2,908,,0,-1,-1,0,0,,,1
5ee7a70c55e80504fa3bc6ab,juf0qrd5ol,Trevor_EX2,1,185,2020-07-23T14:58:53-07:00,0.77828478813171,4,Pure_Unrelated.csv,JOL_H_VersionB.csv,"Highlight U B","Highlight U B",WARN,SEA,Study1,U,80,40,Test,User,-,,Recall,Recall2,470,,0,-1,-1,0,0,,,1
5ee7a70c55e80504fa3bc6ab,juf0qrd5ol,Trevor_EX2,1,186,2020-07-23T14:58:55-07:00,1.9227750301361,4,Pure_Unrelated.csv,JOL_H_VersionB.csv,"Highlight U B","Highlight U B",GRIND,STAND,Study1,U,85,22,Test,User,-,,Recall,Recall2,628,,0,-1,-1,0,0,,,1
5ee7a70c55e80504fa3bc6ab,juf0qrd5ol,Trevor_EX2,1,187,2020-07-23T14:58:58-07:00,2.3661911487579,4,Pure_Unrelated.csv,JOL_H_VersionB.csv,"Highlight U B","Highlight U B",DONKEY,LUSH,Study1,U,84,39,Test,User,-,,Recall,Recall2,1063,,0,-1,-1,0,0,,,1
5ee7a70c55e80504fa3bc6ab,juf0qrd5ol,Trevor_EX2,1,188,2020-07-23T14:58:59-07:00,1.8554048538208,4,Pure_Unrelated.csv,JOL_H_VersionB.csv,"Highlight U B","Highlight U B",PARCEL,THROAT,Study1,U,67,27,Test,User,-,,Recall,Recall2,535,,0,-1,-1,0,0,,,1
5ee7a70c55e80504fa3bc6ab,juf0qrd5ol,Trevor_EX2,1,189,2020-07-23T14:59:00-07:00,0.88732409477234,4,Pure_Unrelated.csv,JOL_H_VersionB.csv,"Highlight U B","Highlight U B",FUTURE,SINCERE,Study1,U,70,38,Test,User,-,,Recall,Recall2,578,,0,-1,-1,0,0,,,1
5ee7a70c55e80504fa3bc6ab,juf0qrd5ol,Trevor_EX2,1,190,2020-07-23T14:59:01-07:00,0.96142387390137,4,Pure_Unrelated.csv,JOL_H_VersionB.csv,"Highlight U B","Highlight U B",ROSE,NEGLECT,Study1,U,82,33,Test,User,-,,Recall,Recall2,667,,0,-1,-1,0,0,,,1
5ee7a70c55e80504fa3bc6ab,juf0qrd5ol,Trevor_EX2,1,191,2020-07-23T14:59:02-07:00,1.1998882293701,4,Pure_Unrelated.csv,JOL_H_VersionB.csv,"Highlight U B","Highlight U B",CRAYON,RATE,Study1,U,79,34,Test,User,-,,Recall,Recall2,890,,0,-1,-1,0,0,,,1
5ee7a70c55e80504fa3bc6ab,juf0qrd5ol,Trevor_EX2,1,192,2020-07-23T14:59:06-07:00,3.8902797698975,4,Pure_Unrelated.csv,JOL_H_VersionB.csv,"Highlight U B","Highlight U B",TEMPERATURE,MORNING,Study1,U,23,12,Test,User,-,,Recall,Recall2,3592,Morning,100,1376,2855,1,1,,,1
5ee7a70c55e80504fa3bc6ab,juf0qrd5ol,Trevor_EX2,1,193,2020-07-23T14:59:13-07:00,6.3385171890259,4,Pure_Unrelated.csv,JOL_H_VersionB.csv,"Highlight U B","Highlight U B",RIPE,VERIFY,Study1,U,83,46,Test,User,-,,Recall,Recall2,6021,,0,-1,-1,0,0,,,1
5ee7a70c55e80504fa3bc6ab,juf0qrd5ol,Trevor_EX2,1,194,2020-07-23T14:59:13-07:00,0.75376582145691,4,Pure_Unrelated.csv,JOL_H_VersionB.csv,"Highlight U B","Highlight U B",CRACKLE,ABLE,Study1,U,12,17,Test,User,-,,Recall,Recall2,450,,0,-1,-1,0,0,,,1
5ee7a70c55e80504fa3bc6ab,juf0qrd5ol,Trevor_EX2,1,195,2020-07-23T14:59:14-07:00,0.84650015830994,4,Pure_Unrelated.csv,JOL_H_VersionB.csv,"Highlight U B","Highlight U B",,,,,,0,Instruct,User,-,"You have completed this section. Please press Enter.",,Instruct7,554,,,-1,-1,,,,,1
5ee7a70c55e80504fa3bc6ab,juf0qrd5ol,Trevor_EX2,1,196,2020-07-23T14:59:16-07:00,1.7608540058136,4,Pure_Unrelated.csv,JOL_H_VersionB.csv,"Highlight U B","Highlight U B",,,,,,0,Instruct,User,-,"The following screen will ask you a few questions abour your experience today. You must complete these questions to receive credit.",,Instruct8,1470,,,-1,-1,,,,,1
