Username,ID,ExperimentName,Session,Trial,Date,TimeDif,"Condition Number","Stimuli File","Order File","Condition Description","Condition Notes",Stimuli*Cue,Stimuli*Answer,Stimuli*Shuffle,"Stimuli*Stimuli Notes",Stimuli*Value,Procedure*Item,"Procedure*Trial Type","Procedure*Max Time","Procedure*Min Time",Procedure*Text,"Procedure*Procedure Notes",Procedure*Shuffle,Response*RT,Response*Response,Response*Accuracy,Response*RTfirst,Response*RTlast,Response*strictAcc,Response*lenientAcc,Response*focus,Response*JOL,Response*Focus
5f03925ce916352e06a548e5,cqhjt40y2v,Trevor_EX2,1,1,2020-07-23T14:21:51-07:00,5.8575930595398,4,Pure_Unrelated.csv,JOL_H_VersionB.csv,"Highlight U B","Highlight U B",,,,,,0,Instruct,-,5,"In this section, you will be presented with a series of word pairs.",Initial_Instruct,Instruct1,5678,,,-1,-1,,,,,1
5f03925ce916352e06a548e5,cqhjt40y2v,Trevor_EX2,1,2,2020-07-23T14:22:02-07:00,10.986293792725,4,Pure_Unrelated.csv,JOL_H_VersionB.csv,"Highlight U B","Highlight U B",,,,,,0,Instruct,-,5,"As you study, you will be asked to rate your ability to remember the second item in the pair if you were only shown the first at test. You will make these ratings using a 0 to 100 Scale.",,Instruct13,10718,,,-1,-1,,,,,1
5f03925ce916352e06a548e5,cqhjt40y2v,Trevor_EX2,1,3,2020-07-23T14:22:13-07:00,11.010208129883,4,Pure_Unrelated.csv,JOL_H_VersionB.csv,"Highlight U B","Highlight U B",,,,,,0,Instruct,-,10,"For example, if you are given the pair CAT - DOG, a rating of 0 indicates that you would not remember DOG at test, while a rating of 100 indicates full certainty that you would remember the word DOG at test.",,Instruct14,10775,,,-1,-1,,,,,1
5f03925ce916352e06a548e5,cqhjt40y2v,Trevor_EX2,1,4,2020-07-23T14:22:28-07:00,14.597233057022,4,Pure_Unrelated.csv,JOL_H_VersionB.csv,"Highlight U B","Highlight U B",,,,,,0,Instruct,-,10,"When making your ratings, it is criticial that you use the full range of the scale. You will be disqualified for only giving ratings of 0 or 100! After making your rating, press Enter to advance to the next pair.",,Instruct15,14347,,,-1,-1,,,,,0.909
5f03925ce916352e06a548e5,cqhjt40y2v,Trevor_EX2,1,5,2020-07-23T14:22:30-07:00,1.4946668148041,4,Pure_Unrelated.csv,JOL_H_VersionB.csv,"Highlight U B","Highlight U B",,,,,,0,Instruct,User,-,"You will now begin the study. Press Enter when you are ready to begin.",,Instruct16,1248,,,-1,-1,,,,,1
5f03925ce916352e06a548e5,cqhjt40y2v,Trevor_EX2,1,6,2020-07-23T14:22:36-07:00,6.4056751728058,4,Pure_Unrelated.csv,JOL_H_VersionB.csv,"Highlight U B","Highlight U B",CAMP,ADVENTURE,BUFFER3,Buffer,95,56,JOL_H,User,-,"How likely are you to correctly recall the second item in the pair?|Type your response on a scale from 0-100 and then press Enter.",Study/JOL,BUFFER,5168,,,3016,4029,,,,100,1
5f03925ce916352e06a548e5,cqhjt40y2v,Trevor_EX2,1,7,2020-07-23T14:22:43-07:00,7.0606398582458,4,Pure_Unrelated.csv,JOL_H_VersionB.csv,"Highlight U B","Highlight U B",NOODLE,STRING,BUFFER3,Buffer,92,55,JOL_H,User,-,"How likely are you to correctly recall the second item in the pair?|Type your response on a scale from 0-100 and then press Enter.",Study/JOL,BUFFER,6827,,,1558,5551,,,,99,1
5f03925ce916352e06a548e5,cqhjt40y2v,Trevor_EX2,1,8,2020-07-23T14:22:50-07:00,6.5137321949005,4,Pure_Unrelated.csv,JOL_H_VersionB.csv,"Highlight U B","Highlight U B",ICE,FROZEN,BUFFER3,Buffer,94,52,JOL,User,-,"How likely are you to correctly recall the second item in the pair?|Type your response on a scale from 0-100 and then press Enter.",Study/JOL,BUFFER,6257,,,2879,3093,,,,99,1
5f03925ce916352e06a548e5,cqhjt40y2v,Trevor_EX2,1,9,2020-07-23T14:22:52-07:00,2.6595978736877,4,Pure_Unrelated.csv,JOL_H_VersionB.csv,"Highlight U B","Highlight U B",SHRIMP,FISH,BUFFER3,Buffer,93,54,JOL_H,User,-,"How likely are you to correctly recall the second item in the pair?|Type your response on a scale from 0-100 and then press Enter.",Study/JOL,BUFFER,2433,,,1743,1977,,,,95,1
5f03925ce916352e06a548e5,cqhjt40y2v,Trevor_EX2,1,10,2020-07-23T14:22:55-07:00,3.1274440288544,4,Pure_Unrelated.csv,JOL_H_VersionB.csv,"Highlight U B","Highlight U B",CARROT,POTATO,BUFFER3,Buffer,91,53,JOL,User,-,"How likely are you to correctly recall the second item in the pair?|Type your response on a scale from 0-100 and then press Enter.",Study/JOL,BUFFER,2797,,,2288,2556,,,,90,1
5f03925ce916352e06a548e5,cqhjt40y2v,Trevor_EX2,1,11,2020-07-23T14:22:58-07:00,2.7455549240112,4,Pure_Unrelated.csv,JOL_H_VersionB.csv,"Highlight U B","Highlight U B",DETECT,FREE,Study2,U,162,59,JOL_H,User,-,"How likely are you to correctly recall the second item in the pair?|Type your response on a scale from 0-100 and then press Enter.",Study/JOL,"Study Phase",2519,,,1881,2084,,,,99,1
5f03925ce916352e06a548e5,cqhjt40y2v,Trevor_EX2,1,12,2020-07-23T14:23:02-07:00,3.4460849761963,4,Pure_Unrelated.csv,JOL_H_VersionB.csv,"Highlight U B","Highlight U B",SACKING,DIETARY,Study2,U,97,80,JOL,User,-,"How likely are you to correctly recall the second item in the pair?|Type your response on a scale from 0-100 and then press Enter.",Study/JOL,"Study Phase",3219,,,2829,2968,,,,80,1
5f03925ce916352e06a548e5,cqhjt40y2v,Trevor_EX2,1,13,2020-07-23T14:23:06-07:00,4.6701850891113,4,Pure_Unrelated.csv,JOL_H_VersionB.csv,"Highlight U B","Highlight U B",SYSTEM,LICK,Study2,U,167,70,JOL_H,User,-,"How likely are you to correctly recall the second item in the pair?|Type your response on a scale from 0-100 and then press Enter.",Study/JOL,"Study Phase",4438,,,1061,3061,,,,85,1
5f03925ce916352e06a548e5,cqhjt40y2v,Trevor_EX2,1,14,2020-07-23T14:23:09-07:00,3.2798550128937,4,Pure_Unrelated.csv,JOL_H_VersionB.csv,"Highlight U B","Highlight U B",STOMACH,TOWN,Study2,U,159,91,JOL,User,-,"How likely are you to correctly recall the second item in the pair?|Type your response on a scale from 0-100 and then press Enter.",Study/JOL,"Study Phase",3054,,,1178,2919,,,,92,1
5f03925ce916352e06a548e5,cqhjt40y2v,Trevor_EX2,1,15,2020-07-23T14:23:13-07:00,3.3726489543915,4,Pure_Unrelated.csv,JOL_H_VersionB.csv,"Highlight U B","Highlight U B",SMOOTH,OMIT,Study2,U,157,89,JOL,User,-,"How likely are you to correctly recall the second item in the pair?|Type your response on a scale from 0-100 and then press Enter.",Study/JOL,"Study Phase",3139,,,2061,2328,,,,75,1
5f03925ce916352e06a548e5,cqhjt40y2v,Trevor_EX2,1,16,2020-07-23T14:23:15-07:00,2.2169001102448,4,Pure_Unrelated.csv,JOL_H_VersionB.csv,"Highlight U B","Highlight U B",ACCIDENT,STRONG,Study2,U,110,90,JOL,User,-,"How likely are you to correctly recall the second item in the pair?|Type your response on a scale from 0-100 and then press Enter.",Study/JOL,"Study Phase",1967,,,1543,1762,,,,90,1
5f03925ce916352e06a548e5,cqhjt40y2v,Trevor_EX2,1,17,2020-07-23T14:23:20-07:00,5.1644308567047,4,Pure_Unrelated.csv,JOL_H_VersionB.csv,"Highlight U B","Highlight U B",GUARD,WHEEL,Study2,U,170,60,JOL_H,User,-,"How likely are you to correctly recall the second item in the pair?|Type your response on a scale from 0-100 and then press Enter.",Study/JOL,"Study Phase",4944,,,4258,4580,,,,75,1
5f03925ce916352e06a548e5,cqhjt40y2v,Trevor_EX2,1,18,2020-07-23T14:23:23-07:00,2.7238049507141,4,Pure_Unrelated.csv,JOL_H_VersionB.csv,"Highlight U B","Highlight U B",SPELL,BONE,Study2,U,174,77,JOL,User,-,"How likely are you to correctly recall the second item in the pair?|Type your response on a scale from 0-100 and then press Enter.",Study/JOL,"Study Phase",2484,,,1307,2348,,,,82,1
5f03925ce916352e06a548e5,cqhjt40y2v,Trevor_EX2,1,19,2020-07-23T14:23:25-07:00,2.0987160205841,4,Pure_Unrelated.csv,JOL_H_VersionB.csv,"Highlight U B","Highlight U B",MUTE,WAVE,Study2,U,173,74,JOL_H,User,-,"How likely are you to correctly recall the second item in the pair?|Type your response on a scale from 0-100 and then press Enter.",Study/JOL,"Study Phase",1817,,,1376,1610,,,,85,1
5f03925ce916352e06a548e5,cqhjt40y2v,Trevor_EX2,1,20,2020-07-23T14:23:31-07:00,5.5349340438843,4,Pure_Unrelated.csv,JOL_H_VersionB.csv,"Highlight U B","Highlight U B",SWING,FOG,Study2,U,175,63,JOL_H,User,-,"How likely are you to correctly recall the second item in the pair?|Type your response on a scale from 0-100 and then press Enter.",Study/JOL,"Study Phase",5262,,,3027,5044,,,,80,1
5f03925ce916352e06a548e5,cqhjt40y2v,Trevor_EX2,1,21,2020-07-23T14:23:35-07:00,4.7062940597534,4,Pure_Unrelated.csv,JOL_H_VersionB.csv,"Highlight U B","Highlight U B",SICK,HIDE,Study2,U,114,94,JOL,User,-,"How likely are you to correctly recall the second item in the pair?|Type your response on a scale from 0-100 and then press Enter.",Study/JOL,"Study Phase",4453,,,3097,4252,,,,85,1
5f03925ce916352e06a548e5,cqhjt40y2v,Trevor_EX2,1,22,2020-07-23T14:23:37-07:00,2.0384318828583,4,Pure_Unrelated.csv,JOL_H_VersionB.csv,"Highlight U B","Highlight U B",WOULD,CASH,Study2,U,113,66,JOL_H,User,-,"How likely are you to correctly recall the second item in the pair?|Type your response on a scale from 0-100 and then press Enter.",Study/JOL,"Study Phase",1805,,,1366,1549,,,,90,1
5f03925ce916352e06a548e5,cqhjt40y2v,Trevor_EX2,1,23,2020-07-23T14:23:39-07:00,1.8238551616669,4,Pure_Unrelated.csv,JOL_H_VersionB.csv,"Highlight U B","Highlight U B",CAR,HAPPY,Study2,U,107,75,JOL_H,User,-,"How likely are you to correctly recall the second item in the pair?|Type your response on a scale from 0-100 and then press Enter.",Study/JOL,"Study Phase",1607,,,1031,1325,,,,95,1
5f03925ce916352e06a548e5,cqhjt40y2v,Trevor_EX2,1,24,2020-07-23T14:23:42-07:00,2.4278619289398,4,Pure_Unrelated.csv,JOL_H_VersionB.csv,"Highlight U B","Highlight U B",WASTE,SEDATE,Study2,U,165,68,JOL_H,User,-,"How likely are you to correctly recall the second item in the pair?|Type your response on a scale from 0-100 and then press Enter.",Study/JOL,"Study Phase",2210,,,1722,1960,,,,70,1
5f03925ce916352e06a548e5,cqhjt40y2v,Trevor_EX2,1,25,2020-07-23T14:23:45-07:00,2.9615159034729,4,Pure_Unrelated.csv,JOL_H_VersionB.csv,"Highlight U B","Highlight U B",RIDDLE,SUGAR,Study2,U,111,73,JOL_H,User,-,"How likely are you to correctly recall the second item in the pair?|Type your response on a scale from 0-100 and then press Enter.",Study/JOL,"Study Phase",2711,,,2234,2455,,,,85,1
5f03925ce916352e06a548e5,cqhjt40y2v,Trevor_EX2,1,26,2020-07-23T14:23:47-07:00,2.3084151744843,4,Pure_Unrelated.csv,JOL_H_VersionB.csv,"Highlight U B","Highlight U B",DESIRE,NOISE,Study2,U,169,67,JOL_H,User,-,"How likely are you to correctly recall the second item in the pair?|Type your response on a scale from 0-100 and then press Enter.",Study/JOL,"Study Phase",2057,,,1734,1834,,,,85,1
5f03925ce916352e06a548e5,cqhjt40y2v,Trevor_EX2,1,27,2020-07-23T14:23:49-07:00,2.3426740169525,4,Pure_Unrelated.csv,JOL_H_VersionB.csv,"Highlight U B","Highlight U B",LION,ART,Study2,U,109,88,JOL,User,-,"How likely are you to correctly recall the second item in the pair?|Type your response on a scale from 0-100 and then press Enter.",Study/JOL,"Study Phase",2119,,,1535,1743,,,,95,1
5f03925ce916352e06a548e5,cqhjt40y2v,Trevor_EX2,1,28,2020-07-23T14:23:52-07:00,3.2271378040314,4,Pure_Unrelated.csv,JOL_H_VersionB.csv,"Highlight U B","Highlight U B",JELLY,NAUGHTY,Study2,U,172,93,JOL,User,-,"How likely are you to correctly recall the second item in the pair?|Type your response on a scale from 0-100 and then press Enter.",Study/JOL,"Study Phase",3011,,,1589,2759,,,,90,1
5f03925ce916352e06a548e5,cqhjt40y2v,Trevor_EX2,1,29,2020-07-23T14:23:55-07:00,2.4175081253052,4,Pure_Unrelated.csv,JOL_H_VersionB.csv,"Highlight U B","Highlight U B",LAKE,OPINION,Study2,U,160,82,JOL,User,-,"How likely are you to correctly recall the second item in the pair?|Type your response on a scale from 0-100 and then press Enter.",Study/JOL,"Study Phase",2173,,,1635,1884,,,,85,1
5f03925ce916352e06a548e5,cqhjt40y2v,Trevor_EX2,1,30,2020-07-23T14:23:56-07:00,1.6706449985504,4,Pure_Unrelated.csv,JOL_H_VersionB.csv,"Highlight U B","Highlight U B",SLIM,KNOW,Study2,U,164,84,JOL,User,-,"How likely are you to correctly recall the second item in the pair?|Type your response on a scale from 0-100 and then press Enter.",Study/JOL,"Study Phase",1444,,,1004,1211,,,,90,1
5f03925ce916352e06a548e5,cqhjt40y2v,Trevor_EX2,1,31,2020-07-23T14:24:00-07:00,3.790088891983,4,Pure_Unrelated.csv,JOL_H_VersionB.csv,"Highlight U B","Highlight U B",FLOOR,DISCOVER,Study2,U,101,71,JOL_H,User,-,"How likely are you to correctly recall the second item in the pair?|Type your response on a scale from 0-100 and then press Enter.",Study/JOL,"Study Phase",3543,,,2955,3393,,,,82,1
5f03925ce916352e06a548e5,cqhjt40y2v,Trevor_EX2,1,32,2020-07-23T14:24:03-07:00,2.319708108902,4,Pure_Unrelated.csv,JOL_H_VersionB.csv,"Highlight U B","Highlight U B",WOMAN,LIFT,Study2,U,99,95,JOL,User,-,"How likely are you to correctly recall the second item in the pair?|Type your response on a scale from 0-100 and then press Enter.",Study/JOL,"Study Phase",2093,,,683,830,,,,91,1
5f03925ce916352e06a548e5,cqhjt40y2v,Trevor_EX2,1,33,2020-07-23T14:24:07-07:00,4.7762229442596,4,Pure_Unrelated.csv,JOL_H_VersionB.csv,"Highlight U B","Highlight U B",ROAD,SCENT,Study2,U,166,62,JOL_H,User,-,"How likely are you to correctly recall the second item in the pair?|Type your response on a scale from 0-100 and then press Enter.",Study/JOL,"Study Phase",4556,,,793,4303,,,,78,1
5f03925ce916352e06a548e5,cqhjt40y2v,Trevor_EX2,1,34,2020-07-23T14:24:10-07:00,2.5875811576843,4,Pure_Unrelated.csv,JOL_H_VersionB.csv,"Highlight U B","Highlight U B",PUT,ROLL,Study2,U,163,69,JOL_H,User,-,"How likely are you to correctly recall the second item in the pair?|Type your response on a scale from 0-100 and then press Enter.",Study/JOL,"Study Phase",2334,,,1763,2114,,,,76,1
5f03925ce916352e06a548e5,cqhjt40y2v,Trevor_EX2,1,35,2020-07-23T14:24:14-07:00,3.9531598091125,4,Pure_Unrelated.csv,JOL_H_VersionB.csv,"Highlight U B","Highlight U B",DETECT,FREE,Study2,U,162,59,JOL_H,User,-,"How likely are you to correctly recall the second item in the pair?|Type your response on a scale from 0-100 and then press Enter.",Study/JOL,"Study Phase",3723,,,2365,3440,,,,95,1
5f03925ce916352e06a548e5,cqhjt40y2v,Trevor_EX2,1,36,2020-07-23T14:24:20-07:00,5.6459200382233,4,Pure_Unrelated.csv,JOL_H_VersionB.csv,"Highlight U B","Highlight U B",READY,CORN,Study2,U,158,78,JOL,User,-,"How likely are you to correctly recall the second item in the pair?|Type your response on a scale from 0-100 and then press Enter.",Study/JOL,"Study Phase",5370,,,3966,5118,,,,75,1
5f03925ce916352e06a548e5,cqhjt40y2v,Trevor_EX2,1,37,2020-07-23T14:24:22-07:00,2.8498239517212,4,Pure_Unrelated.csv,JOL_H_VersionB.csv,"Highlight U B","Highlight U B",SIGHT,DEBATE,Study2,U,103,92,JOL,User,-,"How likely are you to correctly recall the second item in the pair?|Type your response on a scale from 0-100 and then press Enter.",Study/JOL,"Study Phase",2587,,,1820,2378,,,,70,1
5f03925ce916352e06a548e5,cqhjt40y2v,Trevor_EX2,1,38,2020-07-23T14:24:25-07:00,2.9493210315704,4,Pure_Unrelated.csv,JOL_H_VersionB.csv,"Highlight U B","Highlight U B",PUFF,NUMBER,Study2,U,171,65,JOL_H,User,-,"How likely are you to correctly recall the second item in the pair?|Type your response on a scale from 0-100 and then press Enter.",Study/JOL,"Study Phase",2713,,,2193,2445,,,,72,1
5f03925ce916352e06a548e5,cqhjt40y2v,Trevor_EX2,1,39,2020-07-23T14:24:31-07:00,5.4462521076202,4,Pure_Unrelated.csv,JOL_H_VersionB.csv,"Highlight U B","Highlight U B",BRONZE,ARTERY,Study2,U,104,57,JOL_H,User,-,"How likely are you to correctly recall the second item in the pair?|Type your response on a scale from 0-100 and then press Enter.",Study/JOL,"Study Phase",5164,,,2169,4823,,,,65,1
5f03925ce916352e06a548e5,cqhjt40y2v,Trevor_EX2,1,40,2020-07-23T14:24:35-07:00,3.9479160308838,4,Pure_Unrelated.csv,JOL_H_VersionB.csv,"Highlight U B","Highlight U B",CLUTTER,PUSHER,Study2,U,96,96,JOL,User,-,"How likely are you to correctly recall the second item in the pair?|Type your response on a scale from 0-100 and then press Enter.",Study/JOL,"Study Phase",3687,,,1219,2703,,,,68,1
5f03925ce916352e06a548e5,cqhjt40y2v,Trevor_EX2,1,41,2020-07-23T14:24:37-07:00,2.5219008922577,4,Pure_Unrelated.csv,JOL_H_VersionB.csv,"Highlight U B","Highlight U B",Business,Death,Study2,U,102,61,JOL_H,User,-,"How likely are you to correctly recall the second item in the pair?|Type your response on a scale from 0-100 and then press Enter.",Study/JOL,"Study Phase",2277,,,1511,1764,,,,95,1
5f03925ce916352e06a548e5,cqhjt40y2v,Trevor_EX2,1,42,2020-07-23T14:24:42-07:00,4.5287940502167,4,Pure_Unrelated.csv,JOL_H_VersionB.csv,"Highlight U B","Highlight U B",ADD,VALLEY,Study2,U,112,64,JOL_H,User,-,"How likely are you to correctly recall the second item in the pair?|Type your response on a scale from 0-100 and then press Enter.",Study/JOL,"Study Phase",4297,,,1661,4081,,,,80,1
5f03925ce916352e06a548e5,cqhjt40y2v,Trevor_EX2,1,43,2020-07-23T14:24:53-07:00,10.849067926407,4,Pure_Unrelated.csv,JOL_H_VersionB.csv,"Highlight U B","Highlight U B",HUNGRY,PARK,Study2,U,98,72,JOL_H,User,-,"How likely are you to correctly recall the second item in the pair?|Type your response on a scale from 0-100 and then press Enter.",Study/JOL,"Study Phase",10600,,,930,10440,,,,85,1
5f03925ce916352e06a548e5,cqhjt40y2v,Trevor_EX2,1,44,2020-07-23T14:24:58-07:00,5.1681020259857,4,Pure_Unrelated.csv,JOL_H_VersionB.csv,"Highlight U B","Highlight U B",POSITION,MACHINE,Study2,U,106,85,JOL,User,-,"How likely are you to correctly recall the second item in the pair?|Type your response on a scale from 0-100 and then press Enter.",Study/JOL,"Study Phase",4921,,,913,4180,,,,85,1
5f03925ce916352e06a548e5,cqhjt40y2v,Trevor_EX2,1,45,2020-07-23T14:25:02-07:00,4.2586829662323,4,Pure_Unrelated.csv,JOL_H_VersionB.csv,"Highlight U B","Highlight U B",NULL,COUGH,Study2,U,156,87,JOL,User,-,"How likely are you to correctly recall the second item in the pair?|Type your response on a scale from 0-100 and then press Enter.",Study/JOL,"Study Phase",3935,,,825,2006,,,,81,1
5f03925ce916352e06a548e5,cqhjt40y2v,Trevor_EX2,1,46,2020-07-23T14:25:05-07:00,2.9294240474701,4,Pure_Unrelated.csv,JOL_H_VersionB.csv,"Highlight U B","Highlight U B",DIZZY,SWEATER,Study1,U,77,23,JOL,User,-,"How likely are you to correctly recall the second item in the pair?|Type your response on a scale from 0-100 and then press Enter.",Study/JOL,"Study Phase",2676,,,1768,2526,,,,73,1
5f03925ce916352e06a548e5,cqhjt40y2v,Trevor_EX2,1,47,2020-07-23T14:25:10-07:00,5.4754900932312,4,Pure_Unrelated.csv,JOL_H_VersionB.csv,"Highlight U B","Highlight U B",TUCK,ALLOW,Study2,U,108,79,JOL,User,-,"How likely are you to correctly recall the second item in the pair?|Type your response on a scale from 0-100 and then press Enter.",Study/JOL,"Study Phase",5247,,,859,4962,,,,69,1
5f03925ce916352e06a548e5,cqhjt40y2v,Trevor_EX2,1,48,2020-07-23T14:25:13-07:00,2.5225369930267,4,Pure_Unrelated.csv,JOL_H_VersionB.csv,"Highlight U B","Highlight U B",FLOAT,HARMONY,Study2,U,161,81,JOL,User,-,"How likely are you to correctly recall the second item in the pair?|Type your response on a scale from 0-100 and then press Enter.",Study/JOL,"Study Phase",2297,,,1863,2148,,,,85,1
5f03925ce916352e06a548e5,cqhjt40y2v,Trevor_EX2,1,49,2020-07-23T14:25:17-07:00,4.0679078102112,4,Pure_Unrelated.csv,JOL_H_VersionB.csv,"Highlight U B","Highlight U B",ZOO,THUMB,Study2,U,168,76,JOL_H,User,-,"How likely are you to correctly recall the second item in the pair?|Type your response on a scale from 0-100 and then press Enter.",Study/JOL,"Study Phase",3828,,,3241,3522,,,,72,1
5f03925ce916352e06a548e5,cqhjt40y2v,Trevor_EX2,1,50,2020-07-23T14:25:26-07:00,8.8539412021637,4,Pure_Unrelated.csv,JOL_H_VersionB.csv,"Highlight U B","Highlight U B",HAND,FIX,Study2,U,105,86,JOL,User,-,"How likely are you to correctly recall the second item in the pair?|Type your response on a scale from 0-100 and then press Enter.",Study/JOL,"Study Phase",2157,,,1142,1316,,,,84,1
5f03925ce916352e06a548e5,cqhjt40y2v,Trevor_EX2,1,51,2020-07-23T14:25:31-07:00,4.9768898487091,4,Pure_Unrelated.csv,JOL_H_VersionB.csv,"Highlight U B","Highlight U B",OCTOBER,SPOOKY,BUFFER4,Buffer,180,100,JOL,User,-,"How likely are you to correctly recall the second item in the pair?|Type your response on a scale from 0-100 and then press Enter.",Study/JOL,BUFFER2,4662,,,3938,4249,,,,75,1
5f03925ce916352e06a548e5,cqhjt40y2v,Trevor_EX2,1,52,2020-07-23T14:25:35-07:00,4.0751819610596,4,Pure_Unrelated.csv,JOL_H_VersionB.csv,"Highlight U B","Highlight U B",TOOL,SHED,BUFFER4,Buffer,178,101,JOL,User,-,"How likely are you to correctly recall the second item in the pair?|Type your response on a scale from 0-100 and then press Enter.",Study/JOL,BUFFER2,3843,,,2859,3343,,,,72,1
5f03925ce916352e06a548e5,cqhjt40y2v,Trevor_EX2,1,53,2020-07-23T14:25:38-07:00,2.9242310523987,4,Pure_Unrelated.csv,JOL_H_VersionB.csv,"Highlight U B","Highlight U B",SPRING,MARCH,BUFFER4,Buffer,179,97,JOL_H,User,-,"How likely are you to correctly recall the second item in the pair?|Type your response on a scale from 0-100 and then press Enter.",Study/JOL,BUFFER2,2692,,,2162,2462,,,,74,1
5f03925ce916352e06a548e5,cqhjt40y2v,Trevor_EX2,1,54,2020-07-23T14:25:44-07:00,6.2797291278839,4,Pure_Unrelated.csv,JOL_H_VersionB.csv,"Highlight U B","Highlight U B",MONTH,YEAR,BUFFER4,Buffer,177,99,JOL_H,User,-,"How likely are you to correctly recall the second item in the pair?|Type your response on a scale from 0-100 and then press Enter.",Study/JOL,BUFFER2,6034,,,3494,5496,,,,83,0.875
5f03925ce916352e06a548e5,cqhjt40y2v,Trevor_EX2,1,55,2020-07-23T14:25:47-07:00,2.4215188026428,4,Pure_Unrelated.csv,JOL_H_VersionB.csv,"Highlight U B","Highlight U B",DAYS,WEEKS,BUFFER4,Buffer,176,98,JOL_H,User,-,"How likely are you to correctly recall the second item in the pair?|Type your response on a scale from 0-100 and then press Enter.",Study/JOL,BUFFER2,2181,,,973,1991,,,,81,1
5f03925ce916352e06a548e5,cqhjt40y2v,Trevor_EX2,1,56,2020-07-23T14:25:48-07:00,1.6891450881958,4,Pure_Unrelated.csv,JOL_H_VersionB.csv,"Highlight U B","Highlight U B",,,,,,0,Instruct,User,-,"You have completed this section. Please press Enter.",Filler_Instruction,Instruct2,1444,,,-1,-1,,,,,1
5f03925ce916352e06a548e5,cqhjt40y2v,Trevor_EX2,1,57,2020-07-23T14:27:49-07:00,120.30875492096,4,Pure_Unrelated.csv,JOL_H_VersionB.csv,"Highlight U B","Highlight U B",,,,,,0,FreeRecall,120,120,"Please list the 50 US states in alphabetical order. The task will automatically advance to the next screen after two minutes.",,Filler1,120006,"Alaska Alabama California Colorado Connecticut Florida Georgia Hawaii Maine Massachusetts New York North Dakota North Carolina South Dakota South Carolina Ohio Texas Washington Wyoming",0,5397,118513,0,0,,,1
5f03925ce916352e06a548e5,cqhjt40y2v,Trevor_EX2,1,58,2020-07-23T14:28:00-07:00,11.304322004318,4,Pure_Unrelated.csv,JOL_H_VersionB.csv,"Highlight U B","Highlight U B",,,,,,0,Instruct,-,10,"You will now be presented with the first word from each of the previously studied item pairs. Please type the missing word. If you do not know the word, you may guess or press Enter to skip forward to the next pair.",,Instruct3,11054,,,-1,-1,,,,,1
5f03925ce916352e06a548e5,cqhjt40y2v,Trevor_EX2,1,59,2020-07-23T14:28:03-07:00,3.3828871250153,4,Pure_Unrelated.csv,JOL_H_VersionB.csv,"Highlight U B","Highlight U B",PUFF,NUMBER,Study2,U,171,65,Test,User,-,,Recall,Recall1,3127,fish,0,1538,1834,0,0,,,1
5f03925ce916352e06a548e5,cqhjt40y2v,Trevor_EX2,1,60,2020-07-23T14:28:08-07:00,4.2682449817657,4,Pure_Unrelated.csv,JOL_H_VersionB.csv,"Highlight U B","Highlight U B",LAKE,OPINION,Study2,U,160,82,Test,User,-,,Recall,Recall1,4037,string,30.769230769231,1633,3033,0,0,,,1
5f03925ce916352e06a548e5,cqhjt40y2v,Trevor_EX2,1,61,2020-07-23T14:28:13-07:00,5.4180340766907,4,Pure_Unrelated.csv,JOL_H_VersionB.csv,"Highlight U B","Highlight U B",CAR,HAPPY,Study2,U,107,75,Test,User,-,,Recall,Recall1,5186,wash,22.222222222222,3662,4127,0,0,,,1
5f03925ce916352e06a548e5,cqhjt40y2v,Trevor_EX2,1,62,2020-07-23T14:28:21-07:00,7.5732100009918,4,Pure_Unrelated.csv,JOL_H_VersionB.csv,"Highlight U B","Highlight U B",HAND,FIX,Study2,U,105,86,Test,User,-,,Recall,Recall1,7315,sedate,0,5751,6253,0,0,,,1
5f03925ce916352e06a548e5,cqhjt40y2v,Trevor_EX2,1,63,2020-07-23T14:28:24-07:00,3.4583039283752,4,Pure_Unrelated.csv,JOL_H_VersionB.csv,"Highlight U B","Highlight U B",DETECT,FREE,Study2,U,162,59,Test,User,-,,Recall,Recall1,3204,free,100,1861,2165,1,1,,,1
5f03925ce916352e06a548e5,cqhjt40y2v,Trevor_EX2,1,64,2020-07-23T14:28:35-07:00,11.449956893921,4,Pure_Unrelated.csv,JOL_H_VersionB.csv,"Highlight U B","Highlight U B",ROAD,SCENT,Study2,U,166,62,Test,User,-,,Recall,Recall1,11175,block,20,7758,8896,0,0,,,1
5f03925ce916352e06a548e5,cqhjt40y2v,Trevor_EX2,1,65,2020-07-23T14:28:42-07:00,6.7664210796356,4,Pure_Unrelated.csv,JOL_H_VersionB.csv,"Highlight U B","Highlight U B",PUT,ROLL,Study2,U,163,69,Test,User,-,,Recall,Recall1,6536,river,22.222222222222,5099,5474,0,0,,,1
5f03925ce916352e06a548e5,cqhjt40y2v,Trevor_EX2,1,66,2020-07-23T14:28:52-07:00,9.6895270347595,4,Pure_Unrelated.csv,JOL_H_VersionB.csv,"Highlight U B","Highlight U B",GUARD,WHEEL,Study2,U,170,60,Test,User,-,,Recall,Recall1,9446,cow,25,8268,8463,0,0,,,1
5f03925ce916352e06a548e5,cqhjt40y2v,Trevor_EX2,1,67,2020-07-23T14:29:19-07:00,27.314265012741,4,Pure_Unrelated.csv,JOL_H_VersionB.csv,"Highlight U B","Highlight U B",HUNGRY,PARK,Study2,U,98,72,Test,User,-,,Recall,Recall1,27024,free,25,5911,25862,0,0,,,1
5f03925ce916352e06a548e5,cqhjt40y2v,Trevor_EX2,1,68,2020-07-23T14:29:23-07:00,4.2147219181061,4,Pure_Unrelated.csv,JOL_H_VersionB.csv,"Highlight U B","Highlight U B",CLUTTER,PUSHER,Study2,U,96,96,Test,User,-,,Recall,Recall1,3940,clean,18.181818181818,2479,2884,0,0,,,1
5f03925ce916352e06a548e5,cqhjt40y2v,Trevor_EX2,1,69,2020-07-23T14:29:27-07:00,3.7176990509033,4,Pure_Unrelated.csv,JOL_H_VersionB.csv,"Highlight U B","Highlight U B",SMOOTH,OMIT,Study2,U,157,89,Test,User,-,,Recall,Recall1,3450,river,22.222222222222,1976,2287,0,0,,,1
5f03925ce916352e06a548e5,cqhjt40y2v,Trevor_EX2,1,70,2020-07-23T14:29:38-07:00,10.541793107986,4,Pure_Unrelated.csv,JOL_H_VersionB.csv,"Highlight U B","Highlight U B",SYSTEM,LICK,Study2,U,167,70,Test,User,-,,Recall,Recall1,10299,check,44.444444444444,8921,9299,0,0,,,1
5f03925ce916352e06a548e5,cqhjt40y2v,Trevor_EX2,1,71,2020-07-23T14:29:50-07:00,12.055137872696,4,Pure_Unrelated.csv,JOL_H_VersionB.csv,"Highlight U B","Highlight U B",WOULD,CASH,Study2,U,113,66,Test,User,-,,Recall,Recall1,11803,not,0,8173,9989,0,0,,,0.878
5f03925ce916352e06a548e5,cqhjt40y2v,Trevor_EX2,1,72,2020-07-23T14:29:59-07:00,8.8422479629517,4,Pure_Unrelated.csv,JOL_H_VersionB.csv,"Highlight U B","Highlight U B",ACCIDENT,STRONG,Study2,U,110,90,Test,User,-,,Recall,Recall1,8573,cause,18.181818181818,5580,7436,0,0,,,1
5f03925ce916352e06a548e5,cqhjt40y2v,Trevor_EX2,1,73,2020-07-23T14:30:11-07:00,11.98796415329,4,Pure_Unrelated.csv,JOL_H_VersionB.csv,"Highlight U B","Highlight U B",MUTE,WAVE,Study2,U,173,74,Test,User,-,,Recall,Recall1,11660,voice,44.444444444444,10265,10672,0,0,,,0.818
5f03925ce916352e06a548e5,cqhjt40y2v,Trevor_EX2,1,74,2020-07-23T14:30:14-07:00,3.9013919830322,4,Pure_Unrelated.csv,JOL_H_VersionB.csv,"Highlight U B","Highlight U B",WOMAN,LIFT,Study2,U,99,95,Test,User,-,,Recall,Recall1,3643,man,0,2171,2687,0,0,,,1
5f03925ce916352e06a548e5,cqhjt40y2v,Trevor_EX2,1,75,2020-07-23T14:30:18-07:00,3.8051450252533,4,Pure_Unrelated.csv,JOL_H_VersionB.csv,"Highlight U B","Highlight U B",WASTE,SEDATE,Study2,U,165,68,Test,User,-,,Recall,Recall1,3547,garbage,30.769230769231,1829,2456,0,0,,,1
5f03925ce916352e06a548e5,cqhjt40y2v,Trevor_EX2,1,76,2020-07-23T14:30:24-07:00,5.864156961441,4,Pure_Unrelated.csv,JOL_H_VersionB.csv,"Highlight U B","Highlight U B",SIGHT,DEBATE,Study2,U,103,92,Test,User,-,,Recall,Recall1,5600,see,44.444444444444,4248,4596,0,0,,,0.813
5f03925ce916352e06a548e5,cqhjt40y2v,Trevor_EX2,1,77,2020-07-23T14:30:27-07:00,2.8559069633484,4,Pure_Unrelated.csv,JOL_H_VersionB.csv,"Highlight U B","Highlight U B",READY,CORN,Study2,U,158,78,Test,User,-,,Recall,Recall1,2539,not,28.571428571429,1249,1458,0,0,,,1
5f03925ce916352e06a548e5,cqhjt40y2v,Trevor_EX2,1,78,2020-07-23T14:30:40-07:00,12.533098936081,4,Pure_Unrelated.csv,JOL_H_VersionB.csv,"Highlight U B","Highlight U B",ADD,VALLEY,Study2,U,112,64,Test,User,-,,Recall,Recall1,12252,subtract,14.285714285714,1311,11173,0,0,,,1
5f03925ce916352e06a548e5,cqhjt40y2v,Trevor_EX2,1,79,2020-07-23T14:30:43-07:00,3.6590950489044,4,Pure_Unrelated.csv,JOL_H_VersionB.csv,"Highlight U B","Highlight U B",DESIRE,NOISE,Study2,U,169,67,Test,User,-,,Recall,Recall1,3376,you,25,2061,2448,0,0,,,1
5f03925ce916352e06a548e5,cqhjt40y2v,Trevor_EX2,1,80,2020-07-23T14:30:52-07:00,9.1901168823242,4,Pure_Unrelated.csv,JOL_H_VersionB.csv,"Highlight U B","Highlight U B",TUCK,ALLOW,Study2,U,108,79,Test,User,-,,Recall,Recall1,8945,bed,0,4792,7867,0,0,,,1
5f03925ce916352e06a548e5,cqhjt40y2v,Trevor_EX2,1,81,2020-07-23T14:30:58-07:00,5.8338851928711,4,Pure_Unrelated.csv,JOL_H_VersionB.csv,"Highlight U B","Highlight U B",FLOOR,DISCOVER,Study2,U,101,71,Test,User,-,,Recall,Recall1,4577,high,16.666666666667,2493,3503,0,0,,,1
5f03925ce916352e06a548e5,cqhjt40y2v,Trevor_EX2,1,82,2020-07-23T14:31:01-07:00,3.1519408226013,4,Pure_Unrelated.csv,JOL_H_VersionB.csv,"Highlight U B","Highlight U B",BRONZE,ARTERY,Study2,U,104,57,Test,User,-,,Recall,Recall1,2872,age,44.444444444444,1307,1560,0,0,,,1
5f03925ce916352e06a548e5,cqhjt40y2v,Trevor_EX2,1,83,2020-07-23T14:31:04-07:00,2.9313700199127,4,Pure_Unrelated.csv,JOL_H_VersionB.csv,"Highlight U B","Highlight U B",FLOAT,HARMONY,Study2,U,161,81,Test,User,-,,Recall,Recall1,2673,river,16.666666666667,1000,1621,0,0,,,1
5f03925ce916352e06a548e5,cqhjt40y2v,Trevor_EX2,1,84,2020-07-23T14:31:09-07:00,4.46839594841,4,Pure_Unrelated.csv,JOL_H_VersionB.csv,"Highlight U B","Highlight U B",POSITION,MACHINE,Study2,U,106,85,Test,User,-,,Recall,Recall1,4199,behind,46.153846153846,1338,3088,0,0,,,1
5f03925ce916352e06a548e5,cqhjt40y2v,Trevor_EX2,1,85,2020-07-23T14:31:13-07:00,3.7608680725098,4,Pure_Unrelated.csv,JOL_H_VersionB.csv,"Highlight U B","Highlight U B",ZOO,THUMB,Study2,U,168,76,Test,User,-,,Recall,Recall1,3471,animal,18.181818181818,1722,2398,0,0,,,1
5f03925ce916352e06a548e5,cqhjt40y2v,Trevor_EX2,1,86,2020-07-23T14:31:18-07:00,5.3628599643707,4,Pure_Unrelated.csv,JOL_H_VersionB.csv,"Highlight U B","Highlight U B",SICK,HIDE,Study2,U,114,94,Test,User,-,,Recall,Recall1,5120,slide,66.666666666667,3037,3432,0,0,,,1
5f03925ce916352e06a548e5,cqhjt40y2v,Trevor_EX2,1,87,2020-07-23T14:31:26-07:00,7.6845631599426,4,Pure_Unrelated.csv,JOL_H_VersionB.csv,"Highlight U B","Highlight U B",SWING,FOG,Study2,U,175,63,Test,User,-,,Recall,Recall1,7431,play,0,1119,6185,0,0,,,1
5f03925ce916352e06a548e5,cqhjt40y2v,Trevor_EX2,1,88,2020-07-23T14:31:29-07:00,3.5181670188904,4,Pure_Unrelated.csv,JOL_H_VersionB.csv,"Highlight U B","Highlight U B",STOMACH,TOWN,Study2,U,159,91,Test,User,-,,Recall,Recall1,3239,eat,28.571428571429,1698,2004,0,0,,,1
5f03925ce916352e06a548e5,cqhjt40y2v,Trevor_EX2,1,89,2020-07-23T14:31:34-07:00,4.5369009971619,4,Pure_Unrelated.csv,JOL_H_VersionB.csv,"Highlight U B","Highlight U B",RIDDLE,SUGAR,Study2,U,111,73,Test,User,-,,Recall,Recall1,4225,me,0,1421,3001,0,0,,,1
5f03925ce916352e06a548e5,cqhjt40y2v,Trevor_EX2,1,90,2020-07-23T14:31:42-07:00,8.7125809192657,4,Pure_Unrelated.csv,JOL_H_VersionB.csv,"Highlight U B","Highlight U B",SLIM,KNOW,Study2,U,164,84,Test,User,-,,Recall,Recall1,8423,fat,0,6195,7278,0,0,,,1
5f03925ce916352e06a548e5,cqhjt40y2v,Trevor_EX2,1,91,2020-07-23T14:31:45-07:00,2.7055749893188,4,Pure_Unrelated.csv,JOL_H_VersionB.csv,"Highlight U B","Highlight U B",DETECT,FREE,Study2,U,162,59,Test,User,-,,Recall,Recall1,2410,free,100,901,1223,1,1,,,1
5f03925ce916352e06a548e5,cqhjt40y2v,Trevor_EX2,1,92,2020-07-23T14:31:51-07:00,5.6654119491577,4,Pure_Unrelated.csv,JOL_H_VersionB.csv,"Highlight U B","Highlight U B",SPELL,BONE,Study2,U,174,77,Test,User,-,,Recall,Recall1,5430,write,22.222222222222,3832,4211,0,0,,,1
5f03925ce916352e06a548e5,cqhjt40y2v,Trevor_EX2,1,93,2020-07-23T14:31:58-07:00,7.5737309455872,4,Pure_Unrelated.csv,JOL_H_VersionB.csv,"Highlight U B","Highlight U B",LION,ART,Study2,U,109,88,Test,User,-,,Recall,Recall1,7314,sedate,44.444444444444,5464,6037,0,0,,,1
5f03925ce916352e06a548e5,cqhjt40y2v,Trevor_EX2,1,94,2020-07-23T14:32:04-07:00,5.6909401416779,4,Pure_Unrelated.csv,JOL_H_VersionB.csv,"Highlight U B","Highlight U B",NULL,COUGH,Study2,U,156,87,Test,User,-,,Recall,Recall1,5400,empty,0,2815,3376,0,0,,,1
5f03925ce916352e06a548e5,cqhjt40y2v,Trevor_EX2,1,95,2020-07-23T14:32:12-07:00,7.7258448600769,4,Pure_Unrelated.csv,JOL_H_VersionB.csv,"Highlight U B","Highlight U B",Business,Death,Study2,U,102,61,Test,User,-,,Recall,Recall1,7397,letter,36.363636363636,5116,6009,0,0,,,1
5f03925ce916352e06a548e5,cqhjt40y2v,Trevor_EX2,1,96,2020-07-23T14:32:15-07:00,3.6194491386414,4,Pure_Unrelated.csv,JOL_H_VersionB.csv,"Highlight U B","Highlight U B",JELLY,NAUGHTY,Study2,U,172,93,Test,User,-,,Recall,Recall1,3306,fish,18.181818181818,1858,2142,0,0,,,1
5f03925ce916352e06a548e5,cqhjt40y2v,Trevor_EX2,1,97,2020-07-23T14:32:20-07:00,4.7631368637085,4,Pure_Unrelated.csv,JOL_H_VersionB.csv,"Highlight U B","Highlight U B",DIZZY,SWEATER,Study1,U,77,23,Test,User,-,,Recall,Recall1,4525,spin,18.181818181818,2616,3374,0,0,,,1
5f03925ce916352e06a548e5,cqhjt40y2v,Trevor_EX2,1,98,2020-07-23T14:32:24-07:00,4.2337779998779,4,Pure_Unrelated.csv,JOL_H_VersionB.csv,"Highlight U B","Highlight U B",SACKING,DIETARY,Study2,U,97,80,Test,User,-,,Recall,Recall1,3985,city,54.545454545455,1510,2653,0,0,,,1
5f03925ce916352e06a548e5,cqhjt40y2v,Trevor_EX2,1,99,2020-07-23T14:32:35-07:00,11.09527015686,4,Pure_Unrelated.csv,JOL_H_VersionB.csv,"Highlight U B","Highlight U B",,,,,,0,Instruct,-,10,"You will now be presented with a new set of word pairs. Please study each pair. Remember that your memory will be tested! When finished, press Enter to move to the next pair.",Initial_Instruct,Instruct4,10843,,,-1,-1,,,,,1
5f03925ce916352e06a548e5,cqhjt40y2v,Trevor_EX2,1,100,2020-07-23T14:32:47-07:00,11.367220878601,4,Pure_Unrelated.csv,JOL_H_VersionB.csv,"Highlight U B","Highlight U B",,,,,,0,Instruct,,10,"You will again be asked to rate your ability to remember these items using a 0 to 100 scale. Remember to use the full range of the scale!",,Instruct10,10980,,,-1,-1,,,,,1
5f03925ce916352e06a548e5,cqhjt40y2v,Trevor_EX2,1,101,2020-07-23T14:32:48-07:00,0.99136900901794,4,Pure_Unrelated.csv,JOL_H_VersionB.csv,"Highlight U B","Highlight U B",,,,,,0,Instruct,User,-,"Press Enter when you are readty to begin",,Instruct11,706,,,-1,-1,,,,,1
5f03925ce916352e06a548e5,cqhjt40y2v,Trevor_EX2,1,102,2020-07-23T14:32:53-07:00,5.2134349346161,4,Pure_Unrelated.csv,JOL_H_VersionB.csv,"Highlight U B","Highlight U B",BASEBALL,CATCHER,BUFFER1,Buffer,2,4,JOL_H,User,-,"How likely are you to correctly recall the second item in the pair?|Type your response on a scale from 0-100 and then press Enter.",Study/JOL,BUFFER3,4936,,,4318,4620,,,,82,1
5f03925ce916352e06a548e5,cqhjt40y2v,Trevor_EX2,1,103,2020-07-23T14:33:00-07:00,6.5522441864014,4,Pure_Unrelated.csv,JOL_H_VersionB.csv,"Highlight U B","Highlight U B",SPACE,JAM,BUFFER1,Buffer,5,3,JOL,User,-,"How likely are you to correctly recall the second item in the pair?|Type your response on a scale from 0-100 and then press Enter.",Study/JOL,BUFFER3,6266,,,2590,6080,,,,85,1
5f03925ce916352e06a548e5,cqhjt40y2v,Trevor_EX2,1,104,2020-07-23T14:33:01-07:00,1.7518489360809,4,Pure_Unrelated.csv,JOL_H_VersionB.csv,"Highlight U B","Highlight U B",PEANUT,BUTTER,BUFFER1,Buffer,3,6,JOL_H,User,-,"How likely are you to correctly recall the second item in the pair?|Type your response on a scale from 0-100 and then press Enter.",Study/JOL,BUFFER3,1493,,,1010,1244,,,,90,1
5f03925ce916352e06a548e5,cqhjt40y2v,Trevor_EX2,1,105,2020-07-23T14:33:04-07:00,2.3002769947052,4,Pure_Unrelated.csv,JOL_H_VersionB.csv,"Highlight U B","Highlight U B",SCARE,HIDE,BUFFER1,Buffer,4,5,JOL_H,User,-,"How likely are you to correctly recall the second item in the pair?|Type your response on a scale from 0-100 and then press Enter.",Study/JOL,BUFFER3,2070,,,1434,1637,,,,90,1
5f03925ce916352e06a548e5,cqhjt40y2v,Trevor_EX2,1,106,2020-07-23T14:33:06-07:00,2.2374110221863,4,Pure_Unrelated.csv,JOL_H_VersionB.csv,"Highlight U B","Highlight U B",TREES,GREEN,BUFFER1,Buffer,1,2,JOL,User,-,"How likely are you to correctly recall the second item in the pair?|Type your response on a scale from 0-100 and then press Enter.",Study/JOL,BUFFER3,1993,,,1145,1173,,,,83,1
5f03925ce916352e06a548e5,cqhjt40y2v,Trevor_EX2,1,107,2020-07-23T14:33:09-07:00,3.3523259162903,4,Pure_Unrelated.csv,JOL_H_VersionB.csv,"Highlight U B","Highlight U B",STRESS,YAM,Study1,U,68,46,JOL,User,-,"How likely are you to correctly recall the second item in the pair?|Type your response on a scale from 0-100 and then press Enter.",Study/JOL,"Study Phase2",3103,,,1314,2878,,,,57,1
5f03925ce916352e06a548e5,cqhjt40y2v,Trevor_EX2,1,108,2020-07-23T14:33:12-07:00,3.1188111305237,4,Pure_Unrelated.csv,JOL_H_VersionB.csv,"Highlight U B","Highlight U B",CAKE,CLOTHES,Study1,U,16,37,JOL,User,-,"How likely are you to correctly recall the second item in the pair?|Type your response on a scale from 0-100 and then press Enter.",Study/JOL,"Study Phase2",2822,,,1925,2096,,,,86,1
5f03925ce916352e06a548e5,cqhjt40y2v,Trevor_EX2,1,109,2020-07-23T14:33:14-07:00,2.0087969303131,4,Pure_Unrelated.csv,JOL_H_VersionB.csv,"Highlight U B","Highlight U B",PET,MOON,Study1,U,74,42,JOL,User,-,"How likely are you to correctly recall the second item in the pair?|Type your response on a scale from 0-100 and then press Enter.",Study/JOL,"Study Phase2",1742,,,865,1029,,,,83,1
5f03925ce916352e06a548e5,cqhjt40y2v,Trevor_EX2,1,110,2020-07-23T14:33:18-07:00,3.34889793396,4,Pure_Unrelated.csv,JOL_H_VersionB.csv,"Highlight U B","Highlight U B",CRACKLE,ABLE,Study1,U,12,9,JOL_H,User,-,"How likely are you to correctly recall the second item in the pair?|Type your response on a scale from 0-100 and then press Enter.",Study/JOL,"Study Phase2",2000,,,1036,1209,,,,86,1
5f03925ce916352e06a548e5,cqhjt40y2v,Trevor_EX2,1,111,2020-07-23T14:33:20-07:00,2.4066021442413,4,Pure_Unrelated.csv,JOL_H_VersionB.csv,"Highlight U B","Highlight U B",DONKEY,LUSH,Study1,U,84,33,JOL,User,-,"How likely are you to correctly recall the second item in the pair?|Type your response on a scale from 0-100 and then press Enter.",Study/JOL,"Study Phase2",2134,,,1054,1226,,,,93,1
5f03925ce916352e06a548e5,cqhjt40y2v,Trevor_EX2,1,112,2020-07-23T14:33:25-07:00,4.6914069652557,4,Pure_Unrelated.csv,JOL_H_VersionB.csv,"Highlight U B","Highlight U B",MOAT,CLEAR,Study1,U,19,26,JOL_H,User,-,"How likely are you to correctly recall the second item in the pair?|Type your response on a scale from 0-100 and then press Enter.",Study/JOL,"Study Phase2",4440,,,999,3922,,,,83,1
5f03925ce916352e06a548e5,cqhjt40y2v,Trevor_EX2,1,113,2020-07-23T14:33:27-07:00,2.169380903244,4,Pure_Unrelated.csv,JOL_H_VersionB.csv,"Highlight U B","Highlight U B",NAME,HATE,Study1,U,17,18,JOL_H,User,-,"How likely are you to correctly recall the second item in the pair?|Type your response on a scale from 0-100 and then press Enter.",Study/JOL,"Study Phase2",1927,,,1390,1629,,,,72,1
5f03925ce916352e06a548e5,cqhjt40y2v,Trevor_EX2,1,114,2020-07-23T14:33:29-07:00,2.3265631198883,4,Pure_Unrelated.csv,JOL_H_VersionB.csv,"Highlight U B","Highlight U B",FUTURE,SINCERE,Study1,U,70,32,JOL,User,-,"How likely are you to correctly recall the second item in the pair?|Type your response on a scale from 0-100 and then press Enter.",Study/JOL,"Study Phase2",2002,,,1223,1404,,,,75,1
5f03925ce916352e06a548e5,cqhjt40y2v,Trevor_EX2,1,115,2020-07-23T14:33:33-07:00,3.4715180397034,4,Pure_Unrelated.csv,JOL_H_VersionB.csv,"Highlight U B","Highlight U B",VEHICLE,CHARM,Study1,U,10,20,JOL_H,User,-,"How likely are you to correctly recall the second item in the pair?|Type your response on a scale from 0-100 and then press Enter.",Study/JOL,"Study Phase2",3104,,,1963,2384,,,,73,1
5f03925ce916352e06a548e5,cqhjt40y2v,Trevor_EX2,1,116,2020-07-23T14:33:36-07:00,2.9391548633575,4,Pure_Unrelated.csv,JOL_H_VersionB.csv,"Highlight U B","Highlight U B",STRETCH,CLOTH,Study1,U,7,12,JOL_H,User,-,"How likely are you to correctly recall the second item in the pair?|Type your response on a scale from 0-100 and then press Enter.",Study/JOL,"Study Phase2",2692,,,1800,1957,,,,72,1
5f03925ce916352e06a548e5,cqhjt40y2v,Trevor_EX2,1,117,2020-07-23T14:33:38-07:00,2.4686739444733,4,Pure_Unrelated.csv,JOL_H_VersionB.csv,"Highlight U B","Highlight U B",ROSE,NEGLECT,Study1,U,82,28,JOL,User,-,"How likely are you to correctly recall the second item in the pair?|Type your response on a scale from 0-100 and then press Enter.",Study/JOL,"Study Phase2",2220,,,1228,1499,,,,75,1
5f03925ce916352e06a548e5,cqhjt40y2v,Trevor_EX2,1,118,2020-07-23T14:33:41-07:00,2.443498134613,4,Pure_Unrelated.csv,JOL_H_VersionB.csv,"Highlight U B","Highlight U B",BROAD,INFECT,Study1,U,75,38,JOL,User,-,"How likely are you to correctly recall the second item in the pair?|Type your response on a scale from 0-100 and then press Enter.",Study/JOL,"Study Phase2",2195,,,981,1289,,,,73,1
5f03925ce916352e06a548e5,cqhjt40y2v,Trevor_EX2,1,119,2020-07-23T14:33:43-07:00,2.5832228660583,4,Pure_Unrelated.csv,JOL_H_VersionB.csv,"Highlight U B","Highlight U B",WARN,SEA,Study1,U,80,24,JOL_H,User,-,"How likely are you to correctly recall the second item in the pair?|Type your response on a scale from 0-100 and then press Enter.",Study/JOL,"Study Phase2",2334,,,986,1792,,,,92,1
5f03925ce916352e06a548e5,cqhjt40y2v,Trevor_EX2,1,120,2020-07-23T14:33:45-07:00,1.7885010242462,4,Pure_Unrelated.csv,JOL_H_VersionB.csv,"Highlight U B","Highlight U B",MAZE,ELECTION,Study1,U,9,39,JOL,User,-,"How likely are you to correctly recall the second item in the pair?|Type your response on a scale from 0-100 and then press Enter.",Study/JOL,"Study Phase2",1496,,,604,801,,,,84,1
5f03925ce916352e06a548e5,cqhjt40y2v,Trevor_EX2,1,121,2020-07-23T14:33:47-07:00,1.719113111496,4,Pure_Unrelated.csv,JOL_H_VersionB.csv,"Highlight U B","Highlight U B",GIVE,STEAK,Study1,U,8,40,JOL,User,-,"How likely are you to correctly recall the second item in the pair?|Type your response on a scale from 0-100 and then press Enter.",Study/JOL,"Study Phase2",1475,,,653,828,,,,85,1
5f03925ce916352e06a548e5,cqhjt40y2v,Trevor_EX2,1,122,2020-07-23T14:33:48-07:00,1.6368520259857,4,Pure_Unrelated.csv,JOL_H_VersionB.csv,"Highlight U B","Highlight U B",BAT,SHAKY,Study1,U,66,43,JOL,User,-,"How likely are you to correctly recall the second item in the pair?|Type your response on a scale from 0-100 and then press Enter.",Study/JOL,"Study Phase2",1393,,,511,918,,,,84,1
5f03925ce916352e06a548e5,cqhjt40y2v,Trevor_EX2,1,123,2020-07-23T14:33:50-07:00,2.12371301651,4,Pure_Unrelated.csv,JOL_H_VersionB.csv,"Highlight U B","Highlight U B",TEMPERATURE,MORNING,Study1,U,23,17,JOL_H,User,-,"How likely are you to correctly recall the second item in the pair?|Type your response on a scale from 0-100 and then press Enter.",Study/JOL,"Study Phase2",1878,,,1217,1311,,,,75,1
5f03925ce916352e06a548e5,cqhjt40y2v,Trevor_EX2,1,124,2020-07-23T14:33:53-07:00,2.2794539928436,4,Pure_Unrelated.csv,JOL_H_VersionB.csv,"Highlight U B","Highlight U B",DIFFICULT,POOR,Study1,U,81,25,JOL_H,User,-,"How likely are you to correctly recall the second item in the pair?|Type your response on a scale from 0-100 and then press Enter.",Study/JOL,"Study Phase2",2007,,,1258,1351,,,,72,1
5f03925ce916352e06a548e5,cqhjt40y2v,Trevor_EX2,1,125,2020-07-23T14:33:55-07:00,2.1121819019318,4,Pure_Unrelated.csv,JOL_H_VersionB.csv,"Highlight U B","Highlight U B",MIRROR,CHILDREN,Study1,U,24,36,JOL,User,-,"How likely are you to correctly recall the second item in the pair?|Type your response on a scale from 0-100 and then press Enter.",Study/JOL,"Study Phase2",1809,,,477,873,,,,84,1
5f03925ce916352e06a548e5,cqhjt40y2v,Trevor_EX2,1,126,2020-07-23T14:34:01-07:00,5.9034359455109,4,Pure_Unrelated.csv,JOL_H_VersionB.csv,"Highlight U B","Highlight U B",KEYS,JOKE,Study1,U,15,29,JOL,User,-,"How likely are you to correctly recall the second item in the pair?|Type your response on a scale from 0-100 and then press Enter.",Study/JOL,"Study Phase2",5637,,,434,5386,,,,72,1
5f03925ce916352e06a548e5,cqhjt40y2v,Trevor_EX2,1,127,2020-07-23T14:34:03-07:00,1.7807581424713,4,Pure_Unrelated.csv,JOL_H_VersionB.csv,"Highlight U B","Highlight U B",LISTEN,FICTION,Study1,U,14,22,JOL_H,User,-,"How likely are you to correctly recall the second item in the pair?|Type your response on a scale from 0-100 and then press Enter.",Study/JOL,"Study Phase2",1507,,,786,971,,,,84,1
5f03925ce916352e06a548e5,cqhjt40y2v,Trevor_EX2,1,128,2020-07-23T14:34:04-07:00,1.5971169471741,4,Pure_Unrelated.csv,JOL_H_VersionB.csv,"Highlight U B","Highlight U B",PARCEL,THROAT,Study1,U,67,27,JOL,User,-,"How likely are you to correctly recall the second item in the pair?|Type your response on a scale from 0-100 and then press Enter.",Study/JOL,"Study Phase2",1346,,,495,1076,,,,85,1
5f03925ce916352e06a548e5,cqhjt40y2v,Trevor_EX2,1,129,2020-07-23T14:34:06-07:00,1.7604379653931,4,Pure_Unrelated.csv,JOL_H_VersionB.csv,"Highlight U B","Highlight U B",LOAN,SIGN,Study1,U,21,34,JOL,User,-,"How likely are you to correctly recall the second item in the pair?|Type your response on a scale from 0-100 and then press Enter.",Study/JOL,"Study Phase2",1504,,,577,669,,,,86,1
5f03925ce916352e06a548e5,cqhjt40y2v,Trevor_EX2,1,130,2020-07-23T14:34:10-07:00,4.3950951099396,4,Pure_Unrelated.csv,JOL_H_VersionB.csv,"Highlight U B","Highlight U B",MEAT,OBTAIN,Study1,U,11,16,JOL_H,User,-,"How likely are you to correctly recall the second item in the pair?|Type your response on a scale from 0-100 and then press Enter.",Study/JOL,"Study Phase2",4150,,,726,3691,,,,67,1
5f03925ce916352e06a548e5,cqhjt40y2v,Trevor_EX2,1,131,2020-07-23T14:34:13-07:00,3.2128639221191,4,Pure_Unrelated.csv,JOL_H_VersionB.csv,"Highlight U B","Highlight U B",FUZZY,BANG,Study1,U,18,21,JOL_H,User,-,"How likely are you to correctly recall the second item in the pair?|Type your response on a scale from 0-100 and then press Enter.",Study/JOL,"Study Phase2",2973,,,958,2680,,,,83,1
5f03925ce916352e06a548e5,cqhjt40y2v,Trevor_EX2,1,132,2020-07-23T14:34:15-07:00,1.7150568962097,4,Pure_Unrelated.csv,JOL_H_VersionB.csv,"Highlight U B","Highlight U B",MAIN,SCAR,Study1,U,25,13,JOL_H,User,-,"How likely are you to correctly recall the second item in the pair?|Type your response on a scale from 0-100 and then press Enter.",Study/JOL,"Study Phase2",1444,,,624,757,,,,84,1
5f03925ce916352e06a548e5,cqhjt40y2v,Trevor_EX2,1,133,2020-07-23T14:34:19-07:00,3.3541860580444,4,Pure_Unrelated.csv,JOL_H_VersionB.csv,"Highlight U B","Highlight U B",RIPE,VERIFY,Study1,U,83,44,JOL,User,-,"How likely are you to correctly recall the second item in the pair?|Type your response on a scale from 0-100 and then press Enter.",Study/JOL,"Study Phase2",3098,,,419,2151,,,,50,1
5f03925ce916352e06a548e5,cqhjt40y2v,Trevor_EX2,1,134,2020-07-23T14:34:23-07:00,4.253849029541,4,Pure_Unrelated.csv,JOL_H_VersionB.csv,"Highlight U B","Highlight U B",GRIND,STAND,Study1,U,85,11,JOL_H,User,-,"How likely are you to correctly recall the second item in the pair?|Type your response on a scale from 0-100 and then press Enter.",Study/JOL,"Study Phase2",3984,,,558,3733,,,,23,1
5f03925ce916352e06a548e5,cqhjt40y2v,Trevor_EX2,1,135,2020-07-23T14:34:25-07:00,2.6706430912018,4,Pure_Unrelated.csv,JOL_H_VersionB.csv,"Highlight U B","Highlight U B",INFLATE,DISGUST,Study1,U,76,19,JOL_H,User,-,"How likely are you to correctly recall the second item in the pair?|Type your response on a scale from 0-100 and then press Enter.",Study/JOL,"Study Phase2",2375,,,1705,2123,,,,45,1
5f03925ce916352e06a548e5,cqhjt40y2v,Trevor_EX2,1,136,2020-07-23T14:34:28-07:00,2.2829258441925,4,Pure_Unrelated.csv,JOL_H_VersionB.csv,"Highlight U B","Highlight U B",JUSTICE,MAROON,Study1,U,6,31,JOL,User,-,"How likely are you to correctly recall the second item in the pair?|Type your response on a scale from 0-100 and then press Enter.",Study/JOL,"Study Phase2",2047,,,1730,1839,,,,21,1
5f03925ce916352e06a548e5,cqhjt40y2v,Trevor_EX2,1,137,2020-07-23T14:34:32-07:00,4.4257161617279,4,Pure_Unrelated.csv,JOL_H_VersionB.csv,"Highlight U B","Highlight U B",SHELL,SHAKE,Study1,U,13,41,JOL,User,-,"How likely are you to correctly recall the second item in the pair?|Type your response on a scale from 0-100 and then press Enter.",Study/JOL,"Study Phase2",4185,,,1025,3806,,,,73,1
5f03925ce916352e06a548e5,cqhjt40y2v,Trevor_EX2,1,138,2020-07-23T14:34:35-07:00,2.3697898387909,4,Pure_Unrelated.csv,JOL_H_VersionB.csv,"Highlight U B","Highlight U B",LEASE,TOIL,Study1,U,20,8,JOL_H,User,-,"How likely are you to correctly recall the second item in the pair?|Type your response on a scale from 0-100 and then press Enter.",Study/JOL,"Study Phase2",2124,,,577,1873,,,,42,1
5f03925ce916352e06a548e5,cqhjt40y2v,Trevor_EX2,1,139,2020-07-23T14:34:38-07:00,3.2117681503296,4,Pure_Unrelated.csv,JOL_H_VersionB.csv,"Highlight U B","Highlight U B",DIZZY,SWEATER,Study1,U,77,23,JOL_H,User,-,"How likely are you to correctly recall the second item in the pair?|Type your response on a scale from 0-100 and then press Enter.",Study/JOL,"Study Phase2",2911,,,1014,2323,,,,42,1
5f03925ce916352e06a548e5,cqhjt40y2v,Trevor_EX2,1,140,2020-07-23T14:34:39-07:00,1.6014440059662,4,Pure_Unrelated.csv,JOL_H_VersionB.csv,"Highlight U B","Highlight U B",RESIST,GLUE,Study1,U,69,35,JOL,User,-,"How likely are you to correctly recall the second item in the pair?|Type your response on a scale from 0-100 and then press Enter.",Study/JOL,"Study Phase2",1357,,,610,796,,,,63,1
5f03925ce916352e06a548e5,cqhjt40y2v,Trevor_EX2,1,141,2020-07-23T14:34:41-07:00,1.6093339920044,4,Pure_Unrelated.csv,JOL_H_VersionB.csv,"Highlight U B","Highlight U B",CRAYON,RATE,Study1,U,79,10,JOL_H,User,-,"How likely are you to correctly recall the second item in the pair?|Type your response on a scale from 0-100 and then press Enter.",Study/JOL,"Study Phase2",1332,,,624,796,,,,61,1
5f03925ce916352e06a548e5,cqhjt40y2v,Trevor_EX2,1,142,2020-07-23T14:34:42-07:00,1.2890110015869,4,Pure_Unrelated.csv,JOL_H_VersionB.csv,"Highlight U B","Highlight U B",DEGREE,CHAIR,Study1,U,71,45,JOL,User,-,"How likely are you to correctly recall the second item in the pair?|Type your response on a scale from 0-100 and then press Enter.",Study/JOL,"Study Phase2",1045,,,312,510,,,,72,1
5f03925ce916352e06a548e5,cqhjt40y2v,Trevor_EX2,1,143,2020-07-23T14:34:44-07:00,1.5558848381042,4,Pure_Unrelated.csv,JOL_H_VersionB.csv,"Highlight U B","Highlight U B",BOTH,OUNCE,Study1,U,22,14,JOL_H,User,-,"How likely are you to correctly recall the second item in the pair?|Type your response on a scale from 0-100 and then press Enter.",Study/JOL,"Study Phase2",1306,,,672,877,,,,64,1
5f03925ce916352e06a548e5,cqhjt40y2v,Trevor_EX2,1,144,2020-07-23T14:34:47-07:00,2.9210231304169,4,Pure_Unrelated.csv,JOL_H_VersionB.csv,"Highlight U B","Highlight U B",THICK,CONTEST,Study1,U,73,15,JOL_H,User,-,"How likely are you to correctly recall the second item in the pair?|Type your response on a scale from 0-100 and then press Enter.",Study/JOL,"Study Phase2",2692,,,502,2414,,,,67,1
5f03925ce916352e06a548e5,cqhjt40y2v,Trevor_EX2,1,145,2020-07-23T14:34:50-07:00,3.7462730407715,4,Pure_Unrelated.csv,JOL_H_VersionB.csv,"Highlight U B","Highlight U B",TAX,OWL,Study1,U,72,30,JOL,User,-,"How likely are you to correctly recall the second item in the pair?|Type your response on a scale from 0-100 and then press Enter.",Study/JOL,"Study Phase2",3487,,,473,3260,,,,20,1
5f03925ce916352e06a548e5,cqhjt40y2v,Trevor_EX2,1,146,2020-07-23T14:34:56-07:00,5.6517179012299,4,Pure_Unrelated.csv,JOL_H_VersionB.csv,"Highlight U B","Highlight U B",NUMBER,HARD,Study1,U,78,7,JOL_H,User,-,"How likely are you to correctly recall the second item in the pair?|Type your response on a scale from 0-100 and then press Enter.",Study/JOL,"Study Phase2",5379,,,1606,5124,,,,69,1
5f03925ce916352e06a548e5,cqhjt40y2v,Trevor_EX2,1,147,2020-07-23T14:34:58-07:00,2.2684659957886,4,Pure_Unrelated.csv,JOL_H_VersionB.csv,"Highlight U B","Highlight U B",MOON,SPACE,BUFFER2,Buffer,89,51,JOL,User,-,"How likely are you to correctly recall the second item in the pair?|Type your response on a scale from 0-100 and then press Enter.",Study/JOL,BUFFER4,2026,,,1122,1824,,,,80,1
5f03925ce916352e06a548e5,cqhjt40y2v,Trevor_EX2,1,148,2020-07-23T14:35:01-07:00,2.3429000377655,4,Pure_Unrelated.csv,JOL_H_VersionB.csv,"Highlight U B","Highlight U B",SHERRIF,POLICE,BUFFER2,Buffer,87,50,JOL,User,-,"How likely are you to correctly recall the second item in the pair?|Type your response on a scale from 0-100 and then press Enter.",Study/JOL,BUFFER4,2077,,,1118,1881,,,,90,1
5f03925ce916352e06a548e5,cqhjt40y2v,Trevor_EX2,1,149,2020-07-23T14:35:03-07:00,2.0340099334717,4,Pure_Unrelated.csv,JOL_H_VersionB.csv,"Highlight U B","Highlight U B",MALT,CHOCOLATE,BUFFER2,Buffer,88,48,JOL_H,User,-,"How likely are you to correctly recall the second item in the pair?|Type your response on a scale from 0-100 and then press Enter.",Study/JOL,BUFFER4,1694,,,820,1448,,,,95,1
5f03925ce916352e06a548e5,cqhjt40y2v,Trevor_EX2,1,150,2020-07-23T14:35:05-07:00,2.611720085144,4,Pure_Unrelated.csv,JOL_H_VersionB.csv,"Highlight U B","Highlight U B",THING,STUFF,BUFFER2,Buffer,90,49,JOL_H,User,-,"How likely are you to correctly recall the second item in the pair?|Type your response on a scale from 0-100 and then press Enter.",Study/JOL,BUFFER4,2363,,,1024,2184,,,,95,1
5f03925ce916352e06a548e5,cqhjt40y2v,Trevor_EX2,1,151,2020-07-23T14:35:47-07:00,41.690078020096,4,Pure_Unrelated.csv,JOL_H_VersionB.csv,"Highlight U B","Highlight U B",GEESE,GOOSE,BUFFER2,Buffer,86,47,JOL_H,User,-,"How likely are you to correctly recall the second item in the pair?|Type your response on a scale from 0-100 and then press Enter.",Study/JOL,BUFFER4,17208,,,14452,17001,,,,49,0.658
5f03925ce916352e06a548e5,cqhjt40y2v,Trevor_EX2,1,152,2020-07-23T14:35:49-07:00,1.6029899120331,4,Pure_Unrelated.csv,JOL_H_VersionB.csv,"Highlight U B","Highlight U B",,,,,,0,Instruct,User,-,"You have completed this section. Please press Enter.",Filler_Instruction,Instruct5,1340,,,-1,-1,,,,,1
5f03925ce916352e06a548e5,cqhjt40y2v,Trevor_EX2,1,153,2020-07-23T14:37:49-07:00,120.30486512184,4,Pure_Unrelated.csv,JOL_H_VersionB.csv,"Highlight U B","Highlight U B",,,,,,0,FreeRecall,120,120,"Please list the 50 US states in reverse alphabetical order (z - a). The task will automatically advance to the next screen after two minutes.",,Filler2,120005,"Wyoming Wisconsin Washington Vermont Tennessee South Dakota South Carolina North Dakota North Carolina New York New Hampshire Mississippi Maine Iowa Idaho Kentucky Hawaii Georgia Florida Connecticut Colorado California Alabama Alaska",0,3286,115233,0,0,,,1
5f03925ce916352e06a548e5,cqhjt40y2v,Trevor_EX2,1,154,2020-07-23T14:38:00-07:00,11.079859972,4,Pure_Unrelated.csv,JOL_H_VersionB.csv,"Highlight U B","Highlight U B",,,,,,0,Instruct,-,10,"You will now be presented with the first word from each of the previously studied item pairs. Please type the missing word. If you do not know the word, you may guess or press Enter to skip forward to the next pair.",,Instruct6,10767,,,-1,-1,,,,,1
5f03925ce916352e06a548e5,cqhjt40y2v,Trevor_EX2,1,155,2020-07-23T14:38:03-07:00,3.0352098941803,4,Pure_Unrelated.csv,JOL_H_VersionB.csv,"Highlight U B","Highlight U B",FUTURE,SINCERE,Study1,U,70,32,Test,User,-,,Recall,Recall2,2753,sincere,100,1459,2316,1,1,,,1
5f03925ce916352e06a548e5,cqhjt40y2v,Trevor_EX2,1,156,2020-07-23T14:38:05-07:00,2.0480220317841,4,Pure_Unrelated.csv,JOL_H_VersionB.csv,"Highlight U B","Highlight U B",PET,MOON,Study1,U,74,42,Test,User,-,,Recall,Recall2,1803,cat,0,1446,1666,0,0,,,1
5f03925ce916352e06a548e5,cqhjt40y2v,Trevor_EX2,1,157,2020-07-23T14:38:10-07:00,5.1518790721893,4,Pure_Unrelated.csv,JOL_H_VersionB.csv,"Highlight U B","Highlight U B",VEHICLE,CHARM,Study1,U,10,20,Test,User,-,,Recall,Recall2,4890,school,36.363636363636,3863,4541,0,0,,,1
5f03925ce916352e06a548e5,cqhjt40y2v,Trevor_EX2,1,158,2020-07-23T14:38:13-07:00,2.4347348213196,4,Pure_Unrelated.csv,JOL_H_VersionB.csv,"Highlight U B","Highlight U B",SHELL,SHAKE,Study1,U,13,41,Test,User,-,,Recall,Recall2,2131,sea,50,1773,1972,0,0,,,1
5f03925ce916352e06a548e5,cqhjt40y2v,Trevor_EX2,1,159,2020-07-23T14:38:18-07:00,4.9754321575165,4,Pure_Unrelated.csv,JOL_H_VersionB.csv,"Highlight U B","Highlight U B",FUZZY,BANG,Study1,U,18,21,Test,User,-,,Recall,Recall2,4699,pet,0,2408,4565,0,0,,,1
5f03925ce916352e06a548e5,cqhjt40y2v,Trevor_EX2,1,160,2020-07-23T14:38:20-07:00,2.4194009304047,4,Pure_Unrelated.csv,JOL_H_VersionB.csv,"Highlight U B","Highlight U B",WARN,SEA,Study1,U,80,24,Test,User,-,,Recall,Recall2,2141,danger,22.222222222222,1558,2029,0,0,,,1
5f03925ce916352e06a548e5,cqhjt40y2v,Trevor_EX2,1,161,2020-07-23T14:38:32-07:00,11.539868116379,4,Pure_Unrelated.csv,JOL_H_VersionB.csv,"Highlight U B","Highlight U B",KEYS,JOKE,Study1,U,15,29,Test,User,-,,Recall,Recall2,11254,rail,0,10415,10790,0,0,,,1
5f03925ce916352e06a548e5,cqhjt40y2v,Trevor_EX2,1,162,2020-07-23T14:38:39-07:00,7.2678139209747,4,Pure_Unrelated.csv,JOL_H_VersionB.csv,"Highlight U B","Highlight U B",MOAT,CLEAR,Study1,U,19,26,Test,User,-,,Recall,Recall2,5958,clear,100,4115,5682,1,1,,,1
5f03925ce916352e06a548e5,cqhjt40y2v,Trevor_EX2,1,163,2020-07-23T14:38:47-07:00,8.350723028183,4,Pure_Unrelated.csv,JOL_H_VersionB.csv,"Highlight U B","Highlight U B",DONKEY,LUSH,Study1,U,84,33,Test,User,-,,Recall,Recall2,8112,dong,0,7436,7862,0,0,,,1
5f03925ce916352e06a548e5,cqhjt40y2v,Trevor_EX2,1,164,2020-07-23T14:38:54-07:00,6.9554789066315,4,Pure_Unrelated.csv,JOL_H_VersionB.csv,"Highlight U B","Highlight U B",TEMPERATURE,MORNING,Study1,U,23,17,Test,User,-,,Recall,Recall2,6682,water,16.666666666667,5390,5806,0,0,,,1
5f03925ce916352e06a548e5,cqhjt40y2v,Trevor_EX2,1,165,2020-07-23T14:38:56-07:00,1.6914789676666,4,Pure_Unrelated.csv,JOL_H_VersionB.csv,"Highlight U B","Highlight U B",CRACKLE,ABLE,Study1,U,12,9,Test,User,-,,Recall,Recall2,1424,pop,0,984,1266,0,0,,,1
5f03925ce916352e06a548e5,cqhjt40y2v,Trevor_EX2,1,166,2020-07-23T14:38:59-07:00,3.2615849971771,4,Pure_Unrelated.csv,JOL_H_VersionB.csv,"Highlight U B","Highlight U B",DEGREE,CHAIR,Study1,U,71,45,Test,User,-,,Recall,Recall2,2985,outside,16.666666666667,2158,2655,0,0,,,1
5f03925ce916352e06a548e5,cqhjt40y2v,Trevor_EX2,1,167,2020-07-23T14:39:05-07:00,5.7729341983795,4,Pure_Unrelated.csv,JOL_H_VersionB.csv,"Highlight U B","Highlight U B",STRETCH,CLOTH,Study1,U,7,12,Test,User,-,,Recall,Recall2,5454,move,22.222222222222,2145,5158,0,0,,,1
5f03925ce916352e06a548e5,cqhjt40y2v,Trevor_EX2,1,168,2020-07-23T14:39:09-07:00,3.5448818206787,4,Pure_Unrelated.csv,JOL_H_VersionB.csv,"Highlight U B","Highlight U B",MAZE,ELECTION,Study1,U,9,39,Test,User,-,,Recall,Recall2,3279,clear,30.769230769231,2829,3152,0,0,,,1
5f03925ce916352e06a548e5,cqhjt40y2v,Trevor_EX2,1,169,2020-07-23T14:39:12-07:00,3.4606370925903,4,Pure_Unrelated.csv,JOL_H_VersionB.csv,"Highlight U B","Highlight U B",LEASE,TOIL,Study1,U,20,8,Test,User,-,,Recall,Recall2,3167,house,22.222222222222,1532,3010,0,0,,,1
5f03925ce916352e06a548e5,cqhjt40y2v,Trevor_EX2,1,170,2020-07-23T14:39:16-07:00,3.7078309059143,4,Pure_Unrelated.csv,JOL_H_VersionB.csv,"Highlight U B","Highlight U B",CRAYON,RATE,Study1,U,79,10,Test,User,-,,Recall,Recall2,3465,draw,50,1099,3383,0,0,,,1
5f03925ce916352e06a548e5,cqhjt40y2v,Trevor_EX2,1,171,2020-07-23T14:39:17-07:00,1.7592279911041,4,Pure_Unrelated.csv,JOL_H_VersionB.csv,"Highlight U B","Highlight U B",BROAD,INFECT,Study1,U,75,38,Test,User,-,,Recall,Recall2,1521,side,40,1180,1400,0,0,,,1
5f03925ce916352e06a548e5,cqhjt40y2v,Trevor_EX2,1,172,2020-07-23T14:39:21-07:00,3.8550691604614,4,Pure_Unrelated.csv,JOL_H_VersionB.csv,"Highlight U B","Highlight U B",GRIND,STAND,Study1,U,85,11,Test,User,-,,Recall,Recall2,3606,groove,0,2257,3381,0,0,,,1
5f03925ce916352e06a548e5,cqhjt40y2v,Trevor_EX2,1,173,2020-07-23T14:39:24-07:00,2.3583798408508,4,Pure_Unrelated.csv,JOL_H_VersionB.csv,"Highlight U B","Highlight U B",RESIST,GLUE,Study1,U,69,35,Test,User,-,,Recall,Recall2,2066,stop,0,1121,1831,0,0,,,1
5f03925ce916352e06a548e5,cqhjt40y2v,Trevor_EX2,1,174,2020-07-23T14:39:27-07:00,3.2109961509705,4,Pure_Unrelated.csv,JOL_H_VersionB.csv,"Highlight U B","Highlight U B",PARCEL,THROAT,Study1,U,67,27,Test,User,-,,Recall,Recall2,2956,deliver,15.384615384615,1634,2835,0,0,,,1
5f03925ce916352e06a548e5,cqhjt40y2v,Trevor_EX2,1,175,2020-07-23T14:39:29-07:00,2.4740629196167,4,Pure_Unrelated.csv,JOL_H_VersionB.csv,"Highlight U B","Highlight U B",THICK,CONTEST,Study1,U,73,15,Test,User,-,,Recall,Recall2,2242,thin,18.181818181818,1647,2064,0,0,,,1
5f03925ce916352e06a548e5,cqhjt40y2v,Trevor_EX2,1,176,2020-07-23T14:39:31-07:00,2.1258759498596,4,Pure_Unrelated.csv,JOL_H_VersionB.csv,"Highlight U B","Highlight U B",BAT,SHAKY,Study1,U,66,43,Test,User,-,,Recall,Recall2,1808,cave,22.222222222222,1352,1674,0,0,,,1
5f03925ce916352e06a548e5,cqhjt40y2v,Trevor_EX2,1,177,2020-07-23T14:39:45-07:00,13.610661029816,4,Pure_Unrelated.csv,JOL_H_VersionB.csv,"Highlight U B","Highlight U B",DIZZY,SWEATER,Study1,U,77,23,Test,User,-,,Recall,Recall2,13262,spin,18.181818181818,10725,13140,0,0,,,1
5f03925ce916352e06a548e5,cqhjt40y2v,Trevor_EX2,1,178,2020-07-23T14:39:48-07:00,2.4142129421234,4,Pure_Unrelated.csv,JOL_H_VersionB.csv,"Highlight U B","Highlight U B",MIRROR,CHILDREN,Study1,U,24,36,Test,User,-,,Recall,Recall2,2128,see,18.181818181818,1582,1934,0,0,,,1
5f03925ce916352e06a548e5,cqhjt40y2v,Trevor_EX2,1,179,2020-07-23T14:39:57-07:00,9.4070460796356,4,Pure_Unrelated.csv,JOL_H_VersionB.csv,"Highlight U B","Highlight U B",CAKE,CLOTHES,Study1,U,16,37,Test,User,-,,Recall,Recall2,9158,cuddle,46.153846153846,7550,8835,0,0,,,1
5f03925ce916352e06a548e5,cqhjt40y2v,Trevor_EX2,1,180,2020-07-23T14:40:05-07:00,8.4897949695587,4,Pure_Unrelated.csv,JOL_H_VersionB.csv,"Highlight U B","Highlight U B",NAME,HATE,Study1,U,17,18,Test,User,-,,Recall,Recall2,8186,you,0,7625,8008,0,0,,,1
5f03925ce916352e06a548e5,cqhjt40y2v,Trevor_EX2,1,181,2020-07-23T14:40:09-07:00,3.5825889110565,4,Pure_Unrelated.csv,JOL_H_VersionB.csv,"Highlight U B","Highlight U B",TAX,OWL,Study1,U,72,30,Test,User,-,,Recall,Recall2,3267,collect,40,2345,3075,0,0,,,1
5f03925ce916352e06a548e5,cqhjt40y2v,Trevor_EX2,1,182,2020-07-23T14:40:12-07:00,2.98122215271,4,Pure_Unrelated.csv,JOL_H_VersionB.csv,"Highlight U B","Highlight U B",JUSTICE,MAROON,Study1,U,6,31,Test,User,-,,Recall,Recall2,2692,league,16.666666666667,1868,2211,0,0,,,1
5f03925ce916352e06a548e5,cqhjt40y2v,Trevor_EX2,1,183,2020-07-23T14:40:14-07:00,2.3532059192657,4,Pure_Unrelated.csv,JOL_H_VersionB.csv,"Highlight U B","Highlight U B",MEAT,OBTAIN,Study1,U,11,16,Test,User,-,,Recall,Recall2,2107,mead,20,1536,1793,0,0,,,1
5f03925ce916352e06a548e5,cqhjt40y2v,Trevor_EX2,1,184,2020-07-23T14:40:17-07:00,2.2670979499817,4,Pure_Unrelated.csv,JOL_H_VersionB.csv,"Highlight U B","Highlight U B",LOAN,SIGN,Study1,U,21,34,Test,User,-,,Recall,Recall2,2010,house,22.222222222222,1433,1872,0,0,,,1
5f03925ce916352e06a548e5,cqhjt40y2v,Trevor_EX2,1,185,2020-07-23T14:40:18-07:00,1.5492031574249,4,Pure_Unrelated.csv,JOL_H_VersionB.csv,"Highlight U B","Highlight U B",LISTEN,FICTION,Study1,U,14,22,Test,User,-,,Recall,Recall2,1273,hear,0,923,1181,0,0,,,1
5f03925ce916352e06a548e5,cqhjt40y2v,Trevor_EX2,1,186,2020-07-23T14:40:22-07:00,3.7364358901978,4,Pure_Unrelated.csv,JOL_H_VersionB.csv,"Highlight U B","Highlight U B",INFLATE,DISGUST,Study1,U,76,19,Test,User,-,,Recall,Recall2,3493,deflat,30.769230769231,2186,3344,0,0,,,1
5f03925ce916352e06a548e5,cqhjt40y2v,Trevor_EX2,1,187,2020-07-23T14:40:25-07:00,3.518816947937,4,Pure_Unrelated.csv,JOL_H_VersionB.csv,"Highlight U B","Highlight U B",DIFFICULT,POOR,Study1,U,81,25,Test,User,-,,Recall,Recall2,3272,see,0,1360,2276,0,0,,,1
5f03925ce916352e06a548e5,cqhjt40y2v,Trevor_EX2,1,188,2020-07-23T14:40:27-07:00,1.9533522129059,4,Pure_Unrelated.csv,JOL_H_VersionB.csv,"Highlight U B","Highlight U B",RIPE,VERIFY,Study1,U,83,44,Test,User,-,,Recall,Recall2,1690,fruit,18.181818181818,1209,1534,0,0,,,1
5f03925ce916352e06a548e5,cqhjt40y2v,Trevor_EX2,1,189,2020-07-23T14:40:30-07:00,2.3982219696045,4,Pure_Unrelated.csv,JOL_H_VersionB.csv,"Highlight U B","Highlight U B",MAIN,SCAR,Study1,U,25,13,Test,User,-,,Recall,Recall2,2116,man',25,1763,2069,0,0,,,1
5f03925ce916352e06a548e5,cqhjt40y2v,Trevor_EX2,1,190,2020-07-23T14:40:34-07:00,4.2492499351501,4,Pure_Unrelated.csv,JOL_H_VersionB.csv,"Highlight U B","Highlight U B",ROSE,NEGLECT,Study1,U,82,28,Test,User,-,,Recall,Recall2,4015,shear,16.666666666667,3535,3880,0,0,,,1
5f03925ce916352e06a548e5,cqhjt40y2v,Trevor_EX2,1,191,2020-07-23T14:40:36-07:00,2.1927649974823,4,Pure_Unrelated.csv,JOL_H_VersionB.csv,"Highlight U B","Highlight U B",GIVE,STEAK,Study1,U,8,40,Test,User,-,,Recall,Recall2,1926,take,66.666666666667,1449,1762,0,0,,,1
5f03925ce916352e06a548e5,cqhjt40y2v,Trevor_EX2,1,192,2020-07-23T14:40:40-07:00,3.7038609981537,4,Pure_Unrelated.csv,JOL_H_VersionB.csv,"Highlight U B","Highlight U B",BOTH,OUNCE,Study1,U,22,14,Test,User,-,,Recall,Recall2,3416,none,44.444444444444,2830,3249,0,0,,,1
5f03925ce916352e06a548e5,cqhjt40y2v,Trevor_EX2,1,193,2020-07-23T14:40:43-07:00,3.0140569210052,4,Pure_Unrelated.csv,JOL_H_VersionB.csv,"Highlight U B","Highlight U B",STRESS,YAM,Study1,U,68,46,Test,User,-,,Recall,Recall2,2759,under,0,1607,2206,0,0,,,1
5f03925ce916352e06a548e5,cqhjt40y2v,Trevor_EX2,1,194,2020-07-23T14:40:53-07:00,10.524621963501,4,Pure_Unrelated.csv,JOL_H_VersionB.csv,"Highlight U B","Highlight U B",NUMBER,HARD,Study1,U,78,7,Test,User,-,,Recall,Recall2,10275,name,25,7482,10124,0,0,,,1
5f03925ce916352e06a548e5,cqhjt40y2v,Trevor_EX2,1,195,2020-07-23T14:40:55-07:00,1.5980241298676,4,Pure_Unrelated.csv,JOL_H_VersionB.csv,"Highlight U B","Highlight U B",,,,,,0,Instruct,User,-,"You have completed this section. Please press Enter.",,Instruct7,1330,,,-1,-1,,,,,1
5f03925ce916352e06a548e5,cqhjt40y2v,Trevor_EX2,1,196,2020-07-23T14:40:57-07:00,1.9904320240021,4,Pure_Unrelated.csv,JOL_H_VersionB.csv,"Highlight U B","Highlight U B",,,,,,0,Instruct,User,-,"The following screen will ask you a few questions abour your experience today. You must complete these questions to receive credit.",,Instruct8,1664,,,-1,-1,,,,,1
