Username,ID,ExperimentName,Session,Trial,Date,TimeDif,"Condition Number","Stimuli File","Order File","Condition Description","Condition Notes",Stimuli*Cue,Stimuli*Answer,Stimuli*Shuffle,"Stimuli*Stimuli Notes",Stimuli*Value,Procedure*Item,"Procedure*Trial Type","Procedure*Max Time","Procedure*Min Time",Procedure*Text,"Procedure*Procedure Notes",Procedure*Shuffle,Response*RT,Response*Response,Response*Accuracy,Response*RTfirst,Response*RTlast,Response*strictAcc,Response*lenientAcc,Response*focus,Response*JOL,Response*Focus
w870212_eeg,1up3ibyz78,Trevor_EX2,1,1,2020-11-19T17:29:25-08:00,8.0085468292236,4,Pure_Unrelated.csv,Control_VersionB.csv,"Control B","Control B",,,,,,0,Instruct,-,5,"In this section, you will be presented with a series of word pairs.",Initial_Instruct,Instruct1,7296,,,-1,-1,,,,,1
w870212_eeg,1up3ibyz78,Trevor_EX2,1,2,2020-11-19T17:29:36-08:00,11.194864034653,4,Pure_Unrelated.csv,Control_VersionB.csv,"Control B","Control B",,,,,,0,Instruct,-,5,"As you study, you will be asked to rate your ability to remember the second item in the pair if you were only shown the first at test. You will make these ratings using a 0 to 100 Scale.",,Instruct13,10691,,,-1,-1,,,,,1
w870212_eeg,1up3ibyz78,Trevor_EX2,1,3,2020-11-19T17:29:48-08:00,11.586040019989,4,Pure_Unrelated.csv,Control_VersionB.csv,"Control B","Control B",,,,,,0,Instruct,-,10,"For example, if you are given the pair CAT - DOG, a rating of 0 indicates that you would not remember DOG at test, while a rating of 100 indicates full certainty that you would remember the word DOG at test.",,Instruct14,11093,,,-1,-1,,,,,1
w870212_eeg,1up3ibyz78,Trevor_EX2,1,4,2020-11-19T17:30:00-08:00,11.879520893097,4,Pure_Unrelated.csv,Control_VersionB.csv,"Control B","Control B",,,,,,0,Instruct,-,10,"When making your ratings, it is criticial that you use the full range of the scale. You will be disqualified for only giving ratings of 0 or 100! After making your rating, press Enter to advance to the next pair.",,Instruct15,11310,,,-1,-1,,,,,1
w870212_eeg,1up3ibyz78,Trevor_EX2,1,5,2020-11-19T17:30:02-08:00,2.8713760375977,4,Pure_Unrelated.csv,Control_VersionB.csv,"Control B","Control B",,,,,,0,Instruct,User,-,"You will now begin the study. Press Enter when you are ready to begin.",,Instruct16,1572,,,-1,-1,,,,,1
w870212_eeg,1up3ibyz78,Trevor_EX2,1,6,2020-11-19T17:30:06-08:00,3.7540111541748,4,Pure_Unrelated.csv,Control_VersionB.csv,"Control B","Control B",CARROT,POTATO,BUFFER3,Buffer,91,56,JOL,User,-,"How likely are you to correctly recall the second item in the pair?|Type your response on a scale from 0-100 and then press Enter.",Study/JOL,BUFFER,2797,,,2529,2561,,,,50,1
w870212_eeg,1up3ibyz78,Trevor_EX2,1,7,2020-11-19T17:30:12-08:00,5.9877779483795,4,Pure_Unrelated.csv,Control_VersionB.csv,"Control B","Control B",NOODLE,STRING,BUFFER3,Buffer,92,54,JOL,User,-,"How likely are you to correctly recall the second item in the pair?|Type your response on a scale from 0-100 and then press Enter.",Study/JOL,BUFFER,4909,,,4203,4286,,,,50,1
w870212_eeg,1up3ibyz78,Trevor_EX2,1,8,2020-11-19T17:30:16-08:00,4.1927409172058,4,Pure_Unrelated.csv,Control_VersionB.csv,"Control B","Control B",CAMP,ADVENTURE,BUFFER3,Buffer,95,55,JOL,User,-,"How likely are you to correctly recall the second item in the pair?|Type your response on a scale from 0-100 and then press Enter.",Study/JOL,BUFFER,3430,,,2841,2917,,,,60,1
w870212_eeg,1up3ibyz78,Trevor_EX2,1,9,2020-11-19T17:30:20-08:00,3.2608139514923,4,Pure_Unrelated.csv,Control_VersionB.csv,"Control B","Control B",ICE,FROZEN,BUFFER3,Buffer,94,53,JOL,User,-,"How likely are you to correctly recall the second item in the pair?|Type your response on a scale from 0-100 and then press Enter.",Study/JOL,BUFFER,2585,,,2335,2389,,,,90,1
w870212_eeg,1up3ibyz78,Trevor_EX2,1,10,2020-11-19T17:30:24-08:00,4.0411059856415,4,Pure_Unrelated.csv,Control_VersionB.csv,"Control B","Control B",SHRIMP,FISH,BUFFER3,Buffer,93,52,JOL,User,-,"How likely are you to correctly recall the second item in the pair?|Type your response on a scale from 0-100 and then press Enter.",Study/JOL,BUFFER,2850,,,2582,2648,,,,80,1
w870212_eeg,1up3ibyz78,Trevor_EX2,1,11,2020-11-19T17:30:27-08:00,3.4846260547638,4,Pure_Unrelated.csv,Control_VersionB.csv,"Control B","Control B",WASTE,SEDATE,Study2,U,165,77,JOL,User,-,"How likely are you to correctly recall the second item in the pair?|Type your response on a scale from 0-100 and then press Enter.",Study/JOL,"Study Phase",2980,,,2681,2771,,,,10,1
w870212_eeg,1up3ibyz78,Trevor_EX2,1,12,2020-11-19T17:30:35-08:00,7.6632590293884,4,Pure_Unrelated.csv,Control_VersionB.csv,"Control B","Control B",SMOOTH,OMIT,Study2,U,157,93,JOL,User,-,"How likely are you to correctly recall the second item in the pair?|Type your response on a scale from 0-100 and then press Enter.",Study/JOL,"Study Phase",6814,,,5525,5984,,,,15,1
w870212_eeg,1up3ibyz78,Trevor_EX2,1,13,2020-11-19T17:30:42-08:00,7.0653100013733,4,Pure_Unrelated.csv,Control_VersionB.csv,"Control B","Control B",WOMAN,LIFT,Study2,U,99,70,JOL,User,-,"How likely are you to correctly recall the second item in the pair?|Type your response on a scale from 0-100 and then press Enter.",Study/JOL,"Study Phase",6567,,,6331,6384,,,,20,1
w870212_eeg,1up3ibyz78,Trevor_EX2,1,14,2020-11-19T17:30:45-08:00,2.8254849910736,4,Pure_Unrelated.csv,Control_VersionB.csv,"Control B","Control B",DETECT,FREE,Study2,U,162,67,JOL,User,-,"How likely are you to correctly recall the second item in the pair?|Type your response on a scale from 0-100 and then press Enter.",Study/JOL,"Study Phase",1801,,,1593,1593,,,,0,1
w870212_eeg,1up3ibyz78,Trevor_EX2,1,15,2020-11-19T17:30:55-08:00,10.163064956665,4,Pure_Unrelated.csv,Control_VersionB.csv,"Control B","Control B",ZOO,THUMB,Study2,U,168,90,JOL,User,-,"How likely are you to correctly recall the second item in the pair?|Type your response on a scale from 0-100 and then press Enter.",Study/JOL,"Study Phase",9522,,,9375,9432,,,,15,1
w870212_eeg,1up3ibyz78,Trevor_EX2,1,16,2020-11-19T17:31:03-08:00,7.6407301425934,4,Pure_Unrelated.csv,Control_VersionB.csv,"Control B","Control B",SWING,FOG,Study2,U,175,88,JOL,User,-,"How likely are you to correctly recall the second item in the pair?|Type your response on a scale from 0-100 and then press Enter.",Study/JOL,"Study Phase",7019,,,6711,6805,,,,20,1
w870212_eeg,1up3ibyz78,Trevor_EX2,1,17,2020-11-19T17:31:08-08:00,4.9981608390808,4,Pure_Unrelated.csv,Control_VersionB.csv,"Control B","Control B",MUTE,WAVE,Study2,U,173,80,JOL,User,-,"How likely are you to correctly recall the second item in the pair?|Type your response on a scale from 0-100 and then press Enter.",Study/JOL,"Study Phase",4302,,,3927,4148,,,,14,1
w870212_eeg,1up3ibyz78,Trevor_EX2,1,18,2020-11-19T17:31:18-08:00,10.100978136063,4,Pure_Unrelated.csv,Control_VersionB.csv,"Control B","Control B",ACCIDENT,STRONG,Study2,U,110,65,JOL,User,-,"How likely are you to correctly recall the second item in the pair?|Type your response on a scale from 0-100 and then press Enter.",Study/JOL,"Study Phase",9581,,,7595,9063,,,,20,1
w870212_eeg,1up3ibyz78,Trevor_EX2,1,19,2020-11-19T17:31:23-08:00,5.3940989971161,4,Pure_Unrelated.csv,Control_VersionB.csv,"Control B","Control B",FLOAT,HARMONY,Study2,U,161,59,JOL,User,-,"How likely are you to correctly recall the second item in the pair?|Type your response on a scale from 0-100 and then press Enter.",Study/JOL,"Study Phase",4841,,,4380,4499,,,,30,1
w870212_eeg,1up3ibyz78,Trevor_EX2,1,20,2020-11-19T17:31:28-08:00,4.8421239852905,4,Pure_Unrelated.csv,Control_VersionB.csv,"Control B","Control B",LION,ART,Study2,U,109,63,JOL,User,-,"How likely are you to correctly recall the second item in the pair?|Type your response on a scale from 0-100 and then press Enter.",Study/JOL,"Study Phase",4263,,,3674,3858,,,,10,1
w870212_eeg,1up3ibyz78,Trevor_EX2,1,21,2020-11-19T17:31:30-08:00,2.4810879230499,4,Pure_Unrelated.csv,Control_VersionB.csv,"Control B","Control B",SACKING,DIETARY,Study2,U,97,79,JOL,User,-,"How likely are you to correctly recall the second item in the pair?|Type your response on a scale from 0-100 and then press Enter.",Study/JOL,"Study Phase",2030,,,1650,1650,,,,0,1
w870212_eeg,1up3ibyz78,Trevor_EX2,1,22,2020-11-19T17:31:39-08:00,8.6894881725311,4,Pure_Unrelated.csv,Control_VersionB.csv,"Control B","Control B",HUNGRY,PARK,Study2,U,98,86,JOL,User,-,"How likely are you to correctly recall the second item in the pair?|Type your response on a scale from 0-100 and then press Enter.",Study/JOL,"Study Phase",4638,,,3786,4108,,,,100,1
w870212_eeg,1up3ibyz78,Trevor_EX2,1,23,2020-11-19T17:31:42-08:00,2.6513888835907,4,Pure_Unrelated.csv,Control_VersionB.csv,"Control B","Control B",LAKE,OPINION,Study2,U,160,84,JOL,User,-,"How likely are you to correctly recall the second item in the pair?|Type your response on a scale from 0-100 and then press Enter.",Study/JOL,"Study Phase",2187,,,1985,2004,,,,10,1
w870212_eeg,1up3ibyz78,Trevor_EX2,1,24,2020-11-19T17:31:48-08:00,6.0974400043488,4,Pure_Unrelated.csv,Control_VersionB.csv,"Control B","Control B",ROAD,SCENT,Study2,U,166,85,JOL,User,-,"How likely are you to correctly recall the second item in the pair?|Type your response on a scale from 0-100 and then press Enter.",Study/JOL,"Study Phase",5414,,,4551,4551,,,,0,1
w870212_eeg,1up3ibyz78,Trevor_EX2,1,25,2020-11-19T17:31:55-08:00,6.8970279693604,4,Pure_Unrelated.csv,Control_VersionB.csv,"Control B","Control B",STOMACH,TOWN,Study2,U,159,96,JOL,User,-,"How likely are you to correctly recall the second item in the pair?|Type your response on a scale from 0-100 and then press Enter.",Study/JOL,"Study Phase",6219,,,3356,6065,,,,85,1
w870212_eeg,1up3ibyz78,Trevor_EX2,1,26,2020-11-19T17:31:59-08:00,4.6790039539337,4,Pure_Unrelated.csv,Control_VersionB.csv,"Control B","Control B",BELT,SOON,Study2,U,100,92,JOL,User,-,"How likely are you to correctly recall the second item in the pair?|Type your response on a scale from 0-100 and then press Enter.",Study/JOL,"Study Phase",4200,,,3542,4089,,,,15,1
w870212_eeg,1up3ibyz78,Trevor_EX2,1,27,2020-11-19T17:32:05-08:00,5.3992240428925,4,Pure_Unrelated.csv,Control_VersionB.csv,"Control B","Control B",SICK,HIDE,Study2,U,114,68,JOL,User,-,"How likely are you to correctly recall the second item in the pair?|Type your response on a scale from 0-100 and then press Enter.",Study/JOL,"Study Phase",4905,,,4413,4455,,,,15,1
w870212_eeg,1up3ibyz78,Trevor_EX2,1,28,2020-11-19T17:32:07-08:00,2.3597481250763,4,Pure_Unrelated.csv,Control_VersionB.csv,"Control B","Control B",NULL,COUGH,Study2,U,156,82,JOL,User,-,"How likely are you to correctly recall the second item in the pair?|Type your response on a scale from 0-100 and then press Enter.",Study/JOL,"Study Phase",1771,,,1323,1323,,,,0,1
w870212_eeg,1up3ibyz78,Trevor_EX2,1,29,2020-11-19T17:32:11-08:00,3.4932668209076,4,Pure_Unrelated.csv,Control_VersionB.csv,"Control B","Control B",SIGHT,DEBATE,Study2,U,103,83,JOL,User,-,"How likely are you to correctly recall the second item in the pair?|Type your response on a scale from 0-100 and then press Enter.",Study/JOL,"Study Phase",2881,,,2563,2666,,,,10,1
w870212_eeg,1up3ibyz78,Trevor_EX2,1,30,2020-11-19T17:32:15-08:00,4.6595940589905,4,Pure_Unrelated.csv,Control_VersionB.csv,"Control B","Control B",GUARD,WHEEL,Study2,U,170,69,JOL,User,-,"How likely are you to correctly recall the second item in the pair?|Type your response on a scale from 0-100 and then press Enter.",Study/JOL,"Study Phase",4267,,,3400,3793,,,,10,1
w870212_eeg,1up3ibyz78,Trevor_EX2,1,31,2020-11-19T17:32:19-08:00,3.2518610954285,4,Pure_Unrelated.csv,Control_VersionB.csv,"Control B","Control B",SYSTEM,LICK,Study2,U,167,81,JOL,User,-,"How likely are you to correctly recall the second item in the pair?|Type your response on a scale from 0-100 and then press Enter.",Study/JOL,"Study Phase",2364,,,2165,2165,,,,0,1
w870212_eeg,1up3ibyz78,Trevor_EX2,1,32,2020-11-19T17:32:22-08:00,3.4476978778839,4,Pure_Unrelated.csv,Control_VersionB.csv,"Control B","Control B",WOULD,CASH,Study2,U,113,91,JOL,User,-,"How likely are you to correctly recall the second item in the pair?|Type your response on a scale from 0-100 and then press Enter.",Study/JOL,"Study Phase",2569,,,2230,2374,,,,10,1
w870212_eeg,1up3ibyz78,Trevor_EX2,1,33,2020-11-19T17:32:26-08:00,4.4696300029755,4,Pure_Unrelated.csv,Control_VersionB.csv,"Control B","Control B",FLOAT,HARMONY,Study2,U,161,59,JOL,User,-,"How likely are you to correctly recall the second item in the pair?|Type your response on a scale from 0-100 and then press Enter.",Study/JOL,"Study Phase",3957,,,3326,3748,,,,100,1
w870212_eeg,1up3ibyz78,Trevor_EX2,1,34,2020-11-19T17:32:33-08:00,6.5189981460571,4,Pure_Unrelated.csv,Control_VersionB.csv,"Control B","Control B",RIDDLE,SUGAR,Study2,U,111,64,JOL,User,-,"How likely are you to correctly recall the second item in the pair?|Type your response on a scale from 0-100 and then press Enter.",Study/JOL,"Study Phase",6017,,,5745,5745,,,,0,1
w870212_eeg,1up3ibyz78,Trevor_EX2,1,35,2020-11-19T17:32:37-08:00,3.6080939769745,4,Pure_Unrelated.csv,Control_VersionB.csv,"Control B","Control B",ADD,VALLEY,Study2,U,112,72,JOL,User,-,"How likely are you to correctly recall the second item in the pair?|Type your response on a scale from 0-100 and then press Enter.",Study/JOL,"Study Phase",3062,,,2926,2926,,,,5,1
w870212_eeg,1up3ibyz78,Trevor_EX2,1,36,2020-11-19T17:32:40-08:00,2.9611039161682,4,Pure_Unrelated.csv,Control_VersionB.csv,"Control B","Control B",POSITION,MACHINE,Study2,U,106,62,JOL,User,-,"How likely are you to correctly recall the second item in the pair?|Type your response on a scale from 0-100 and then press Enter.",Study/JOL,"Study Phase",1543,,,1341,1341,,,,5,1
w870212_eeg,1up3ibyz78,Trevor_EX2,1,37,2020-11-19T17:32:45-08:00,5.2392489910126,4,Pure_Unrelated.csv,Control_VersionB.csv,"Control B","Control B",PUT,ROLL,Study2,U,163,78,JOL,User,-,"How likely are you to correctly recall the second item in the pair?|Type your response on a scale from 0-100 and then press Enter.",Study/JOL,"Study Phase",4738,,,2676,4641,,,,5,1
w870212_eeg,1up3ibyz78,Trevor_EX2,1,38,2020-11-19T17:32:48-08:00,3.4475829601288,4,Pure_Unrelated.csv,Control_VersionB.csv,"Control B","Control B",JELLY,NAUGHTY,Study2,U,172,57,JOL,User,-,"How likely are you to correctly recall the second item in the pair?|Type your response on a scale from 0-100 and then press Enter.",Study/JOL,"Study Phase",2864,,,2587,2644,,,,90,1
w870212_eeg,1up3ibyz78,Trevor_EX2,1,39,2020-11-19T17:32:51-08:00,3.10245013237,4,Pure_Unrelated.csv,Control_VersionB.csv,"Control B","Control B",FLOOR,DISCOVER,Study2,U,101,74,JOL,User,-,"How likely are you to correctly recall the second item in the pair?|Type your response on a scale from 0-100 and then press Enter.",Study/JOL,"Study Phase",2621,,,2323,2370,,,,10,1
w870212_eeg,1up3ibyz78,Trevor_EX2,1,40,2020-11-19T17:32:55-08:00,3.1843268871307,4,Pure_Unrelated.csv,Control_VersionB.csv,"Control B","Control B",SPELL,BONE,Study2,U,174,60,JOL,User,-,"How likely are you to correctly recall the second item in the pair?|Type your response on a scale from 0-100 and then press Enter.",Study/JOL,"Study Phase",2677,,,2511,2511,,,,5,1
w870212_eeg,1up3ibyz78,Trevor_EX2,1,41,2020-11-19T17:32:57-08:00,2.8027391433716,4,Pure_Unrelated.csv,Control_VersionB.csv,"Control B","Control B",Business,Death,Study2,U,102,87,JOL,User,-,"How likely are you to correctly recall the second item in the pair?|Type your response on a scale from 0-100 and then press Enter.",Study/JOL,"Study Phase",2279,,,2112,2112,,,,5,1
w870212_eeg,1up3ibyz78,Trevor_EX2,1,42,2020-11-19T17:33:00-08:00,2.2494678497314,4,Pure_Unrelated.csv,Control_VersionB.csv,"Control B","Control B",HAND,FIX,Study2,U,105,95,JOL,User,-,"How likely are you to correctly recall the second item in the pair?|Type your response on a scale from 0-100 and then press Enter.",Study/JOL,"Study Phase",1881,,,1632,1632,,,,5,1
w870212_eeg,1up3ibyz78,Trevor_EX2,1,43,2020-11-19T17:33:02-08:00,2.8626539707184,4,Pure_Unrelated.csv,Control_VersionB.csv,"Control B","Control B",CAR,HAPPY,Study2,U,107,66,JOL,User,-,"How likely are you to correctly recall the second item in the pair?|Type your response on a scale from 0-100 and then press Enter.",Study/JOL,"Study Phase",2238,,,1568,1714,,,,10,1
w870212_eeg,1up3ibyz78,Trevor_EX2,1,44,2020-11-19T17:33:04-08:00,1.9994721412659,4,Pure_Unrelated.csv,Control_VersionB.csv,"Control B","Control B",BRONZE,ARTERY,Study2,U,104,94,JOL,User,-,"How likely are you to correctly recall the second item in the pair?|Type your response on a scale from 0-100 and then press Enter.",Study/JOL,"Study Phase",1452,,,1212,1212,,,,0,1
w870212_eeg,1up3ibyz78,Trevor_EX2,1,45,2020-11-19T17:33:07-08:00,2.8306210041046,4,Pure_Unrelated.csv,Control_VersionB.csv,"Control B","Control B",TUCK,ALLOW,Study2,U,108,89,JOL,User,-,"How likely are you to correctly recall the second item in the pair?|Type your response on a scale from 0-100 and then press Enter.",Study/JOL,"Study Phase",1989,,,1776,1776,,,,0,1
w870212_eeg,1up3ibyz78,Trevor_EX2,1,46,2020-11-19T17:33:10-08:00,3.2132430076599,4,Pure_Unrelated.csv,Control_VersionB.csv,"Control B","Control B",READY,CORN,Study2,U,158,73,JOL,User,-,"How likely are you to correctly recall the second item in the pair?|Type your response on a scale from 0-100 and then press Enter.",Study/JOL,"Study Phase",2643,,,2373,2421,,,,10,1
w870212_eeg,1up3ibyz78,Trevor_EX2,1,47,2020-11-19T17:33:16-08:00,5.6569919586182,4,Pure_Unrelated.csv,Control_VersionB.csv,"Control B","Control B",PUFF,NUMBER,Study2,U,171,75,JOL,User,-,"How likely are you to correctly recall the second item in the pair?|Type your response on a scale from 0-100 and then press Enter.",Study/JOL,"Study Phase",4603,,,3691,4316,,,,20,1
w870212_eeg,1up3ibyz78,Trevor_EX2,1,48,2020-11-19T17:33:23-08:00,6.7659430503845,4,Pure_Unrelated.csv,Control_VersionB.csv,"Control B","Control B",DESIRE,NOISE,Study2,U,169,61,JOL,User,-,"How likely are you to correctly recall the second item in the pair?|Type your response on a scale from 0-100 and then press Enter.",Study/JOL,"Study Phase",6213,,,1607,5942,,,,75,1
w870212_eeg,1up3ibyz78,Trevor_EX2,1,49,2020-11-19T17:33:25-08:00,2.1318349838257,4,Pure_Unrelated.csv,Control_VersionB.csv,"Control B","Control B",CLUTTER,PUSHER,Study2,U,96,76,JOL,User,-,"How likely are you to correctly recall the second item in the pair?|Type your response on a scale from 0-100 and then press Enter.",Study/JOL,"Study Phase",1570,,,1301,1301,,,,0,1
w870212_eeg,1up3ibyz78,Trevor_EX2,1,50,2020-11-19T17:33:28-08:00,3.2682249546051,4,Pure_Unrelated.csv,Control_VersionB.csv,"Control B","Control B",VASE,KING,Study2,U,115,71,JOL,User,-,"How likely are you to correctly recall the second item in the pair?|Type your response on a scale from 0-100 and then press Enter.",Study/JOL,"Study Phase",2712,,,2469,2470,,,,0,1
w870212_eeg,1up3ibyz78,Trevor_EX2,1,51,2020-11-19T17:33:31-08:00,3.0064210891724,4,Pure_Unrelated.csv,Control_VersionB.csv,"Control B","Control B",DAYS,WEEKS,BUFFER4,Buffer,176,101,JOL,User,-,"How likely are you to correctly recall the second item in the pair?|Type your response on a scale from 0-100 and then press Enter.",Study/JOL,BUFFER2,2530,,,2026,2355,,,,100,1
w870212_eeg,1up3ibyz78,Trevor_EX2,1,52,2020-11-19T17:33:35-08:00,3.7306759357452,4,Pure_Unrelated.csv,Control_VersionB.csv,"Control B","Control B",SPRING,MARCH,BUFFER4,Buffer,179,97,JOL,User,-,"How likely are you to correctly recall the second item in the pair?|Type your response on a scale from 0-100 and then press Enter.",Study/JOL,BUFFER2,3129,,,2831,2897,,,,80,1
w870212_eeg,1up3ibyz78,Trevor_EX2,1,53,2020-11-19T17:33:39-08:00,3.6502969264984,4,Pure_Unrelated.csv,Control_VersionB.csv,"Control B","Control B",TOOL,SHED,BUFFER4,Buffer,178,98,JOL,User,-,"How likely are you to correctly recall the second item in the pair?|Type your response on a scale from 0-100 and then press Enter.",Study/JOL,BUFFER2,1578,,,1094,1352,,,,100,1
w870212_eeg,1up3ibyz78,Trevor_EX2,1,54,2020-11-19T17:33:41-08:00,2.6916329860687,4,Pure_Unrelated.csv,Control_VersionB.csv,"Control B","Control B",OCTOBER,SPOOKY,BUFFER4,Buffer,180,100,JOL,User,-,"How likely are you to correctly recall the second item in the pair?|Type your response on a scale from 0-100 and then press Enter.",Study/JOL,BUFFER2,1752,,,1344,1547,,,,100,1
w870212_eeg,1up3ibyz78,Trevor_EX2,1,55,2020-11-19T17:33:43-08:00,2.1023969650269,4,Pure_Unrelated.csv,Control_VersionB.csv,"Control B","Control B",MONTH,YEAR,BUFFER4,Buffer,177,99,JOL,User,-,"How likely are you to correctly recall the second item in the pair?|Type your response on a scale from 0-100 and then press Enter.",Study/JOL,BUFFER2,1607,,,970,1395,,,,100,1
w870212_eeg,1up3ibyz78,Trevor_EX2,1,56,2020-11-19T17:33:45-08:00,1.2042579650879,4,Pure_Unrelated.csv,Control_VersionB.csv,"Control B","Control B",,,,,,0,Instruct,User,-,"You have completed this section. Please press Enter.",Filler_Instruction,Instruct2,790,,,-1,-1,,,,,1
w870212_eeg,1up3ibyz78,Trevor_EX2,1,57,2020-11-19T17:35:45-08:00,120.61342120171,4,Pure_Unrelated.csv,Control_VersionB.csv,"Control B","Control B",,,,,,0,FreeRecall,120,120,"Please list the 50 US states in alphabetical order. The task will automatically advance to the next screen after two minutes.",,Filler1,120006,"1 alabama 2alaska 3arkansas 4. california 4colorado 5connecticut 6delaware f7lorida 8georgia 9illinois 10indiana 11. iowa 12. kansas 13. minnesota 14. missouri 15. montana 16. nebraska 17. nevada 18. pennsylvania 19. rhode island 20. texas 21. utah 22. vermont 23. wisconsin 24. wyominc",0,4066,119568,0,0,,,1
w870212_eeg,1up3ibyz78,Trevor_EX2,1,58,2020-11-19T17:35:59-08:00,13.359538793564,4,Pure_Unrelated.csv,Control_VersionB.csv,"Control B","Control B",,,,,,0,Instruct,-,10,"You will now be presented with the first word from each of the previously studied item pairs. Please type the missing word. If you do not know the word, you may guess or press Enter to skip forward to the next pair.",,Instruct3,12902,,,-1,-1,,,,,1
w870212_eeg,1up3ibyz78,Trevor_EX2,1,59,2020-11-19T17:36:06-08:00,6.928670167923,4,Pure_Unrelated.csv,Control_VersionB.csv,"Control B","Control B",ADD,VALLEY,Study2,U,112,72,Test,User,-,,Recall,Recall1,6433,subtact,15.384615384615,3423,6344,0,0,,,1
w870212_eeg,1up3ibyz78,Trevor_EX2,1,60,2020-11-19T17:36:10-08:00,4.3574900627136,4,Pure_Unrelated.csv,Control_VersionB.csv,"Control B","Control B",HAND,FIX,Study2,U,105,95,Test,User,-,,Recall,Recall1,3837,,0,-1,-1,0,0,,,1
w870212_eeg,1up3ibyz78,Trevor_EX2,1,61,2020-11-19T17:36:12-08:00,2.2867329120636,4,Pure_Unrelated.csv,Control_VersionB.csv,"Control B","Control B",JELLY,NAUGHTY,Study2,U,172,57,Test,User,-,,Recall,Recall1,1863,naughty,100,1028,1727,1,1,,,1
w870212_eeg,1up3ibyz78,Trevor_EX2,1,62,2020-11-19T17:36:15-08:00,2.3597869873047,4,Pure_Unrelated.csv,Control_VersionB.csv,"Control B","Control B",TUCK,ALLOW,Study2,U,108,89,Test,User,-,,Recall,Recall1,1759,roll,44.444444444444,1242,1586,0,0,,,1
w870212_eeg,1up3ibyz78,Trevor_EX2,1,63,2020-11-19T17:36:16-08:00,1.5904960632324,4,Pure_Unrelated.csv,Control_VersionB.csv,"Control B","Control B",WOMAN,LIFT,Study2,U,99,70,Test,User,-,,Recall,Recall1,1173,lift,100,760,1071,1,1,,,1
w870212_eeg,1up3ibyz78,Trevor_EX2,1,64,2020-11-19T17:36:20-08:00,3.9933140277863,4,Pure_Unrelated.csv,Control_VersionB.csv,"Control B","Control B",SMOOTH,OMIT,Study2,U,157,93,Test,User,-,,Recall,Recall1,3539,omit,100,3128,3421,1,1,,,1
w870212_eeg,1up3ibyz78,Trevor_EX2,1,65,2020-11-19T17:36:24-08:00,3.8548588752747,4,Pure_Unrelated.csv,Control_VersionB.csv,"Control B","Control B",CLUTTER,PUSHER,Study2,U,96,76,Test,User,-,,Recall,Recall1,3371,,0,-1,-1,0,0,,,1
w870212_eeg,1up3ibyz78,Trevor_EX2,1,66,2020-11-19T17:36:26-08:00,2.3984310626984,4,Pure_Unrelated.csv,Control_VersionB.csv,"Control B","Control B",WOULD,CASH,Study2,U,113,91,Test,User,-,,Recall,Recall1,2009,,0,-1,-1,0,0,,,1
w870212_eeg,1up3ibyz78,Trevor_EX2,1,67,2020-11-19T17:36:30-08:00,3.07297706604,4,Pure_Unrelated.csv,Control_VersionB.csv,"Control B","Control B",ACCIDENT,STRONG,Study2,U,110,65,Test,User,-,,Recall,Recall1,2600,,0,-1,-1,0,0,,,1
w870212_eeg,1up3ibyz78,Trevor_EX2,1,68,2020-11-19T17:36:32-08:00,2.9502108097076,4,Pure_Unrelated.csv,Control_VersionB.csv,"Control B","Control B",SPELL,BONE,Study2,U,174,60,Test,User,-,,Recall,Recall1,2524,hand,25,1581,2355,0,0,,,1
w870212_eeg,1up3ibyz78,Trevor_EX2,1,69,2020-11-19T17:36:36-08:00,3.533548116684,4,Pure_Unrelated.csv,Control_VersionB.csv,"Control B","Control B",GUARD,WHEEL,Study2,U,170,69,Test,User,-,,Recall,Recall1,3185,,0,-1,-1,0,0,,,1
w870212_eeg,1up3ibyz78,Trevor_EX2,1,70,2020-11-19T17:36:39-08:00,3.0427858829498,4,Pure_Unrelated.csv,Control_VersionB.csv,"Control B","Control B",Business,Death,Study2,U,102,87,Test,User,-,,Recall,Recall1,2600,Death,100,1463,2438,1,1,,,1
w870212_eeg,1up3ibyz78,Trevor_EX2,1,71,2020-11-19T17:36:41-08:00,2.2474429607391,4,Pure_Unrelated.csv,Control_VersionB.csv,"Control B","Control B",WASTE,SEDATE,Study2,U,165,77,Test,User,-,,Recall,Recall1,1797,,0,-1,-1,0,0,,,1
w870212_eeg,1up3ibyz78,Trevor_EX2,1,72,2020-11-19T17:36:46-08:00,4.4566700458527,4,Pure_Unrelated.csv,Control_VersionB.csv,"Control B","Control B",BRONZE,ARTERY,Study2,U,104,94,Test,User,-,,Recall,Recall1,3961,artery,100,2333,3760,1,1,,,1
w870212_eeg,1up3ibyz78,Trevor_EX2,1,73,2020-11-19T17:36:49-08:00,2.9925780296326,4,Pure_Unrelated.csv,Control_VersionB.csv,"Control B","Control B",PUFF,NUMBER,Study2,U,171,75,Test,User,-,,Recall,Recall1,2600,number,100,1837,2485,1,1,,,1
w870212_eeg,1up3ibyz78,Trevor_EX2,1,74,2020-11-19T17:36:51-08:00,2.2444460391998,4,Pure_Unrelated.csv,Control_VersionB.csv,"Control B","Control B",READY,CORN,Study2,U,158,73,Test,User,-,,Recall,Recall1,1791,,0,-1,-1,0,0,,,1
w870212_eeg,1up3ibyz78,Trevor_EX2,1,75,2020-11-19T17:36:53-08:00,1.5726430416107,4,Pure_Unrelated.csv,Control_VersionB.csv,"Control B","Control B",SYSTEM,LICK,Study2,U,167,81,Test,User,-,,Recall,Recall1,1185,,0,-1,-1,0,0,,,1
w870212_eeg,1up3ibyz78,Trevor_EX2,1,76,2020-11-19T17:36:54-08:00,1.5848078727722,4,Pure_Unrelated.csv,Control_VersionB.csv,"Control B","Control B",SICK,HIDE,Study2,U,114,68,Test,User,-,,Recall,Recall1,1013,,0,-1,-1,0,0,,,1
w870212_eeg,1up3ibyz78,Trevor_EX2,1,77,2020-11-19T17:36:55-08:00,1.2398819923401,4,Pure_Unrelated.csv,Control_VersionB.csv,"Control B","Control B",LAKE,OPINION,Study2,U,160,84,Test,User,-,,Recall,Recall1,745,,0,-1,-1,0,0,,,1
w870212_eeg,1up3ibyz78,Trevor_EX2,1,78,2020-11-19T17:36:58-08:00,2.5875940322876,4,Pure_Unrelated.csv,Control_VersionB.csv,"Control B","Control B",ZOO,THUMB,Study2,U,168,90,Test,User,-,,Recall,Recall1,2046,,0,-1,-1,0,0,,,1
w870212_eeg,1up3ibyz78,Trevor_EX2,1,79,2020-11-19T17:37:01-08:00,2.6968531608582,4,Pure_Unrelated.csv,Control_VersionB.csv,"Control B","Control B",MUTE,WAVE,Study2,U,173,80,Test,User,-,,Recall,Recall1,2248,math,25,1779,2106,0,0,,,1
w870212_eeg,1up3ibyz78,Trevor_EX2,1,80,2020-11-19T17:37:03-08:00,2.3699429035187,4,Pure_Unrelated.csv,Control_VersionB.csv,"Control B","Control B",LION,ART,Study2,U,109,63,Test,User,-,,Recall,Recall1,1956,art,100,1386,1895,1,1,,,1
w870212_eeg,1up3ibyz78,Trevor_EX2,1,81,2020-11-19T17:37:05-08:00,2.2452681064606,4,Pure_Unrelated.csv,Control_VersionB.csv,"Control B","Control B",ROAD,SCENT,Study2,U,166,85,Test,User,-,,Recall,Recall1,1840,,0,-1,-1,0,0,,,1
w870212_eeg,1up3ibyz78,Trevor_EX2,1,82,2020-11-19T17:37:08-08:00,2.6717259883881,4,Pure_Unrelated.csv,Control_VersionB.csv,"Control B","Control B",STOMACH,TOWN,Study2,U,159,96,Test,User,-,,Recall,Recall1,2170,,0,-1,-1,0,0,,,1
w870212_eeg,1up3ibyz78,Trevor_EX2,1,83,2020-11-19T17:37:10-08:00,2.3633069992065,4,Pure_Unrelated.csv,Control_VersionB.csv,"Control B","Control B",CAR,HAPPY,Study2,U,107,66,Test,User,-,,Recall,Recall1,1730,,0,-1,-1,0,0,,,1
w870212_eeg,1up3ibyz78,Trevor_EX2,1,84,2020-11-19T17:37:12-08:00,1.2880439758301,4,Pure_Unrelated.csv,Control_VersionB.csv,"Control B","Control B",NULL,COUGH,Study2,U,156,82,Test,User,-,,Recall,Recall1,915,,0,-1,-1,0,0,,,1
w870212_eeg,1up3ibyz78,Trevor_EX2,1,85,2020-11-19T17:37:13-08:00,1.4979019165039,4,Pure_Unrelated.csv,Control_VersionB.csv,"Control B","Control B",PUT,ROLL,Study2,U,163,78,Test,User,-,,Recall,Recall1,1009,,0,-1,-1,0,0,,,1
w870212_eeg,1up3ibyz78,Trevor_EX2,1,86,2020-11-19T17:37:15-08:00,2.0892441272736,4,Pure_Unrelated.csv,Control_VersionB.csv,"Control B","Control B",FLOOR,DISCOVER,Study2,U,101,74,Test,User,-,,Recall,Recall1,1559,,0,-1,-1,0,0,,,1
w870212_eeg,1up3ibyz78,Trevor_EX2,1,87,2020-11-19T17:37:20-08:00,4.6293568611145,4,Pure_Unrelated.csv,Control_VersionB.csv,"Control B","Control B",BELT,SOON,Study2,U,100,92,Test,User,-,,Recall,Recall1,4181,soon,100,1479,4032,1,1,,,1
w870212_eeg,1up3ibyz78,Trevor_EX2,1,88,2020-11-19T17:37:22-08:00,2.5257570743561,4,Pure_Unrelated.csv,Control_VersionB.csv,"Control B","Control B",HUNGRY,PARK,Study2,U,98,86,Test,User,-,,Recall,Recall1,2112,park,100,1492,1727,1,1,,,1
w870212_eeg,1up3ibyz78,Trevor_EX2,1,89,2020-11-19T17:37:28-08:00,5.3684439659119,4,Pure_Unrelated.csv,Control_VersionB.csv,"Control B","Control B",FLOAT,HARMONY,Study2,U,161,59,Test,User,-,,Recall,Recall1,4887,harmony,100,4193,4719,1,1,,,1
w870212_eeg,1up3ibyz78,Trevor_EX2,1,90,2020-11-19T17:37:29-08:00,1.6342089176178,4,Pure_Unrelated.csv,Control_VersionB.csv,"Control B","Control B",DETECT,FREE,Study2,U,162,67,Test,User,-,,Recall,Recall1,1211,,0,-1,-1,0,0,,,1
w870212_eeg,1up3ibyz78,Trevor_EX2,1,91,2020-11-19T17:37:31-08:00,1.3096761703491,4,Pure_Unrelated.csv,Control_VersionB.csv,"Control B","Control B",DESIRE,NOISE,Study2,U,169,61,Test,User,-,,Recall,Recall1,767,,0,-1,-1,0,0,,,1
w870212_eeg,1up3ibyz78,Trevor_EX2,1,92,2020-11-19T17:37:33-08:00,2.4561297893524,4,Pure_Unrelated.csv,Control_VersionB.csv,"Control B","Control B",SIGHT,DEBATE,Study2,U,103,83,Test,User,-,,Recall,Recall1,1994,,0,-1,-1,0,0,,,1
w870212_eeg,1up3ibyz78,Trevor_EX2,1,93,2020-11-19T17:37:34-08:00,1.0332131385803,4,Pure_Unrelated.csv,Control_VersionB.csv,"Control B","Control B",POSITION,MACHINE,Study2,U,106,62,Test,User,-,,Recall,Recall1,620,,0,-1,-1,0,0,,,1
w870212_eeg,1up3ibyz78,Trevor_EX2,1,94,2020-11-19T17:37:38-08:00,3.4195289611816,4,Pure_Unrelated.csv,Control_VersionB.csv,"Control B","Control B",VASE,KING,Study2,U,115,71,Test,User,-,,Recall,Recall1,2948,king,100,2477,2787,1,1,,,1
w870212_eeg,1up3ibyz78,Trevor_EX2,1,95,2020-11-19T17:37:39-08:00,1.5855638980865,4,Pure_Unrelated.csv,Control_VersionB.csv,"Control B","Control B",RIDDLE,SUGAR,Study2,U,111,64,Test,User,-,,Recall,Recall1,1189,,0,-1,-1,0,0,,,1
w870212_eeg,1up3ibyz78,Trevor_EX2,1,96,2020-11-19T17:37:42-08:00,2.6878111362457,4,Pure_Unrelated.csv,Control_VersionB.csv,"Control B","Control B",SWING,FOG,Study2,U,175,88,Test,User,-,,Recall,Recall1,2259,,0,-1,-1,0,0,,,1
w870212_eeg,1up3ibyz78,Trevor_EX2,1,97,2020-11-19T17:37:44-08:00,2.4012229442596,4,Pure_Unrelated.csv,Control_VersionB.csv,"Control B","Control B",FLOAT,HARMONY,Study2,U,161,59,Test,User,-,,Recall,Recall1,1887,harmony,100,1233,1762,1,1,,,1
w870212_eeg,1up3ibyz78,Trevor_EX2,1,98,2020-11-19T17:37:46-08:00,1.3548090457916,4,Pure_Unrelated.csv,Control_VersionB.csv,"Control B","Control B",SACKING,DIETARY,Study2,U,97,79,Test,User,-,,Recall,Recall1,936,,0,-1,-1,0,0,,,1
w870212_eeg,1up3ibyz78,Trevor_EX2,1,99,2020-11-19T17:38:00-08:00,14.271081924438,4,Pure_Unrelated.csv,Control_VersionB.csv,"Control B","Control B",,,,,,0,Instruct,-,10,"You will now be presented with a new set of word pairs. Please study each pair. Remember that your memory will be tested! When finished, press Enter to move to the next pair.",Initial_Instruct,Instruct4,13758,,,-1,-1,,,,,1
w870212_eeg,1up3ibyz78,Trevor_EX2,1,100,2020-11-19T17:48:17-08:00,617.61948394775,4,Pure_Unrelated.csv,Control_VersionB.csv,"Control B","Control B",,,,,,0,Instruct,,10,"You will again be asked to rate your ability to remember these items using a 0 to 100 scale. Remember to use the full range of the scale!",,Instruct10,616902,,,-1,-1,,,,,0.954
w870212_eeg,1up3ibyz78,Trevor_EX2,1,101,2020-11-19T17:48:21-08:00,3.988842010498,4,Pure_Unrelated.csv,Control_VersionB.csv,"Control B","Control B",,,,,,0,Instruct,User,-,"Press Enter when you are readty to begin",,Instruct11,2998,,,-1,-1,,,,,1
w870212_eeg,1up3ibyz78,Trevor_EX2,1,102,2020-11-19T17:48:28-08:00,6.2730550765991,4,Pure_Unrelated.csv,Control_VersionB.csv,"Control B","Control B",SPACE,JAM,BUFFER1,Buffer,5,6,JOL,User,-,"How likely are you to correctly recall the second item in the pair?|Type your response on a scale from 0-100 and then press Enter.",Study/JOL,BUFFER3,5564,,,4702,5287,,,,100,1
w870212_eeg,1up3ibyz78,Trevor_EX2,1,103,2020-11-19T17:48:34-08:00,6.1800270080566,4,Pure_Unrelated.csv,Control_VersionB.csv,"Control B","Control B",SCARE,HIDE,BUFFER1,Buffer,4,3,JOL,User,-,"How likely are you to correctly recall the second item in the pair?|Type your response on a scale from 0-100 and then press Enter.",Study/JOL,BUFFER3,5664,,,2823,5385,,,,70,1
w870212_eeg,1up3ibyz78,Trevor_EX2,1,104,2020-11-19T17:48:39-08:00,4.9576139450073,4,Pure_Unrelated.csv,Control_VersionB.csv,"Control B","Control B",TREES,GREEN,BUFFER1,Buffer,1,2,JOL,User,-,"How likely are you to correctly recall the second item in the pair?|Type your response on a scale from 0-100 and then press Enter.",Study/JOL,BUFFER3,4297,,,3237,3937,,,,50,1
w870212_eeg,1up3ibyz78,Trevor_EX2,1,105,2020-11-19T17:48:43-08:00,3.9639060497284,4,Pure_Unrelated.csv,Control_VersionB.csv,"Control B","Control B",BASEBALL,CATCHER,BUFFER1,Buffer,2,5,JOL,User,-,"How likely are you to correctly recall the second item in the pair?|Type your response on a scale from 0-100 and then press Enter.",Study/JOL,BUFFER3,3470,,,2181,3111,,,,50,1
w870212_eeg,1up3ibyz78,Trevor_EX2,1,106,2020-11-19T17:48:45-08:00,2.4217429161072,4,Pure_Unrelated.csv,Control_VersionB.csv,"Control B","Control B",PEANUT,BUTTER,BUFFER1,Buffer,3,4,JOL,User,-,"How likely are you to correctly recall the second item in the pair?|Type your response on a scale from 0-100 and then press Enter.",Study/JOL,BUFFER3,1985,,,1142,1689,,,,100,1
w870212_eeg,1up3ibyz78,Trevor_EX2,1,107,2020-11-19T17:48:51-08:00,5.6721200942993,4,Pure_Unrelated.csv,Control_VersionB.csv,"Control B","Control B",CRACKLE,ABLE,Study1,U,12,12,JOL,User,-,"How likely are you to correctly recall the second item in the pair?|Type your response on a scale from 0-100 and then press Enter.",Study/JOL,"Study Phase2",5018,,,4357,4862,,,,30,1
w870212_eeg,1up3ibyz78,Trevor_EX2,1,108,2020-11-19T17:48:56-08:00,5.2024350166321,4,Pure_Unrelated.csv,Control_VersionB.csv,"Control B","Control B",MAIN,SCAR,Study1,U,25,32,JOL,User,-,"How likely are you to correctly recall the second item in the pair?|Type your response on a scale from 0-100 and then press Enter.",Study/JOL,"Study Phase2",4665,,,3918,4396,,,,20,1
w870212_eeg,1up3ibyz78,Trevor_EX2,1,109,2020-11-19T17:48:59-08:00,2.4351320266724,4,Pure_Unrelated.csv,Control_VersionB.csv,"Control B","Control B",CAKE,CLOTHES,Study1,U,16,28,JOL,User,-,"How likely are you to correctly recall the second item in the pair?|Type your response on a scale from 0-100 and then press Enter.",Study/JOL,"Study Phase2",1805,,,1502,1502,,,,0,1
w870212_eeg,1up3ibyz78,Trevor_EX2,1,110,2020-11-19T17:50:12-08:00,73.389831066132,4,Pure_Unrelated.csv,Control_VersionB.csv,"Control B","Control B",SHELL,SHAKE,Study1,U,13,21,JOL,User,-,"How likely are you to correctly recall the second item in the pair?|Type your response on a scale from 0-100 and then press Enter.",Study/JOL,"Study Phase2",2832,,,2568,2568,,,,0,1
w870212_eeg,1up3ibyz78,Trevor_EX2,1,111,2020-11-19T17:50:20-08:00,7.820652961731,4,Pure_Unrelated.csv,Control_VersionB.csv,"Control B","Control B",LISTEN,FICTION,Study1,U,14,43,JOL,User,-,"How likely are you to correctly recall the second item in the pair?|Type your response on a scale from 0-100 and then press Enter.",Study/JOL,"Study Phase2",7242,,,6556,6944,,,,50,1
w870212_eeg,1up3ibyz78,Trevor_EX2,1,112,2020-11-19T17:50:24-08:00,4.2017509937286,4,Pure_Unrelated.csv,Control_VersionB.csv,"Control B","Control B",ROSE,NEGLECT,Study1,U,82,15,JOL,User,-,"How likely are you to correctly recall the second item in the pair?|Type your response on a scale from 0-100 and then press Enter.",Study/JOL,"Study Phase2",3539,,,3303,3303,,,,0,1
w870212_eeg,1up3ibyz78,Trevor_EX2,1,113,2020-11-19T17:50:27-08:00,2.9198658466339,4,Pure_Unrelated.csv,Control_VersionB.csv,"Control B","Control B",RESIST,GLUE,Study1,U,69,39,JOL,User,-,"How likely are you to correctly recall the second item in the pair?|Type your response on a scale from 0-100 and then press Enter.",Study/JOL,"Study Phase2",2144,,,1885,1885,,,,0,1
w870212_eeg,1up3ibyz78,Trevor_EX2,1,114,2020-11-19T17:50:38-08:00,11.386281013489,4,Pure_Unrelated.csv,Control_VersionB.csv,"Control B","Control B",GRIND,STAND,Study1,U,85,36,JOL,User,-,"How likely are you to correctly recall the second item in the pair?|Type your response on a scale from 0-100 and then press Enter.",Study/JOL,"Study Phase2",9534,,,9239,9239,,,,0,1
w870212_eeg,1up3ibyz78,Trevor_EX2,1,115,2020-11-19T17:50:46-08:00,7.6301000118256,4,Pure_Unrelated.csv,Control_VersionB.csv,"Control B","Control B",KEYS,JOKE,Study1,U,15,13,JOL,User,-,"How likely are you to correctly recall the second item in the pair?|Type your response on a scale from 0-100 and then press Enter.",Study/JOL,"Study Phase2",5221,,,4576,4971,,,,50,1
w870212_eeg,1up3ibyz78,Trevor_EX2,1,116,2020-11-19T17:50:52-08:00,6.2157959938049,4,Pure_Unrelated.csv,Control_VersionB.csv,"Control B","Control B",MAZE,ELECTION,Study1,U,9,17,JOL,User,-,"How likely are you to correctly recall the second item in the pair?|Type your response on a scale from 0-100 and then press Enter.",Study/JOL,"Study Phase2",5688,,,4309,4797,,,,50,1
w870212_eeg,1up3ibyz78,Trevor_EX2,1,117,2020-11-19T17:50:55-08:00,2.4893231391907,4,Pure_Unrelated.csv,Control_VersionB.csv,"Control B","Control B",MOAT,CLEAR,Study1,U,19,18,JOL,User,-,"How likely are you to correctly recall the second item in the pair?|Type your response on a scale from 0-100 and then press Enter.",Study/JOL,"Study Phase2",1688,,,1398,1398,,,,0,1
w870212_eeg,1up3ibyz78,Trevor_EX2,1,118,2020-11-19T17:50:58-08:00,3.3721170425415,4,Pure_Unrelated.csv,Control_VersionB.csv,"Control B","Control B",NAME,HATE,Study1,U,17,22,JOL,User,-,"How likely are you to correctly recall the second item in the pair?|Type your response on a scale from 0-100 and then press Enter.",Study/JOL,"Study Phase2",2735,,,1947,2394,,,,59,1
w870212_eeg,1up3ibyz78,Trevor_EX2,1,119,2020-11-19T17:51:03-08:00,5.2585299015045,4,Pure_Unrelated.csv,Control_VersionB.csv,"Control B","Control B",VEHICLE,CHARM,Study1,U,10,8,JOL,User,-,"How likely are you to correctly recall the second item in the pair?|Type your response on a scale from 0-100 and then press Enter.",Study/JOL,"Study Phase2",4734,,,3618,4408,,,,10,1
w870212_eeg,1up3ibyz78,Trevor_EX2,1,120,2020-11-19T17:51:07-08:00,3.3639719486237,4,Pure_Unrelated.csv,Control_VersionB.csv,"Control B","Control B",INFLATE,DISGUST,Study1,U,76,23,JOL,User,-,"How likely are you to correctly recall the second item in the pair?|Type your response on a scale from 0-100 and then press Enter.",Study/JOL,"Study Phase2",2850,,,2572,2572,,,,0,1
w870212_eeg,1up3ibyz78,Trevor_EX2,1,121,2020-11-19T17:51:10-08:00,3.352422952652,4,Pure_Unrelated.csv,Control_VersionB.csv,"Control B","Control B",PARCEL,THROAT,Study1,U,67,11,JOL,User,-,"How likely are you to correctly recall the second item in the pair?|Type your response on a scale from 0-100 and then press Enter.",Study/JOL,"Study Phase2",1784,,,1529,1529,,,,0,1
w870212_eeg,1up3ibyz78,Trevor_EX2,1,122,2020-11-19T17:51:13-08:00,3.323114156723,4,Pure_Unrelated.csv,Control_VersionB.csv,"Control B","Control B",PET,MOON,Study1,U,74,33,JOL,User,-,"How likely are you to correctly recall the second item in the pair?|Type your response on a scale from 0-100 and then press Enter.",Study/JOL,"Study Phase2",2595,,,2028,2309,,,,50,1
w870212_eeg,1up3ibyz78,Trevor_EX2,1,123,2020-11-19T17:51:18-08:00,4.2598068714142,4,Pure_Unrelated.csv,Control_VersionB.csv,"Control B","Control B",MEAT,OBTAIN,Study1,U,11,45,JOL,User,-,"How likely are you to correctly recall the second item in the pair?|Type your response on a scale from 0-100 and then press Enter.",Study/JOL,"Study Phase2",3649,,,3453,3453,,,,0,1
w870212_eeg,1up3ibyz78,Trevor_EX2,1,124,2020-11-19T17:51:21-08:00,3.4022569656372,4,Pure_Unrelated.csv,Control_VersionB.csv,"Control B","Control B",WARN,SEA,Study1,U,80,34,JOL,User,-,"How likely are you to correctly recall the second item in the pair?|Type your response on a scale from 0-100 and then press Enter.",Study/JOL,"Study Phase2",2839,,,2587,2587,,,,0,1
w870212_eeg,1up3ibyz78,Trevor_EX2,1,125,2020-11-19T17:51:25-08:00,3.9747850894928,4,Pure_Unrelated.csv,Control_VersionB.csv,"Control B","Control B",MIRROR,CHILDREN,Study1,U,24,24,JOL,User,-,"How likely are you to correctly recall the second item in the pair?|Type your response on a scale from 0-100 and then press Enter.",Study/JOL,"Study Phase2",3435,,,2573,3044,,,,10,1
w870212_eeg,1up3ibyz78,Trevor_EX2,1,126,2020-11-19T17:51:30-08:00,4.8679149150848,4,Pure_Unrelated.csv,Control_VersionB.csv,"Control B","Control B",STRESS,YAM,Study1,U,68,25,JOL,User,-,"How likely are you to correctly recall the second item in the pair?|Type your response on a scale from 0-100 and then press Enter.",Study/JOL,"Study Phase2",4307,,,3697,4018,,,,50,1
w870212_eeg,1up3ibyz78,Trevor_EX2,1,127,2020-11-19T17:51:32-08:00,2.6368579864502,4,Pure_Unrelated.csv,Control_VersionB.csv,"Control B","Control B",DONKEY,LUSH,Study1,U,84,10,JOL,User,-,"How likely are you to correctly recall the second item in the pair?|Type your response on a scale from 0-100 and then press Enter.",Study/JOL,"Study Phase2",2006,,,1745,1745,,,,0,1
w870212_eeg,1up3ibyz78,Trevor_EX2,1,128,2020-11-19T17:51:35-08:00,2.8466410636902,4,Pure_Unrelated.csv,Control_VersionB.csv,"Control B","Control B",STRETCH,CLOTH,Study1,U,7,9,JOL,User,-,"How likely are you to correctly recall the second item in the pair?|Type your response on a scale from 0-100 and then press Enter.",Study/JOL,"Study Phase2",2345,,,1665,2035,,,,50,1
w870212_eeg,1up3ibyz78,Trevor_EX2,1,129,2020-11-19T17:51:38-08:00,2.7686290740967,4,Pure_Unrelated.csv,Control_VersionB.csv,"Control B","Control B",NUMBER,HARD,Study1,U,78,35,JOL,User,-,"How likely are you to correctly recall the second item in the pair?|Type your response on a scale from 0-100 and then press Enter.",Study/JOL,"Study Phase2",2331,,,1557,1918,,,,50,1
w870212_eeg,1up3ibyz78,Trevor_EX2,1,130,2020-11-19T17:51:41-08:00,2.8226389884949,4,Pure_Unrelated.csv,Control_VersionB.csv,"Control B","Control B",FUZZY,BANG,Study1,U,18,41,JOL,User,-,"How likely are you to correctly recall the second item in the pair?|Type your response on a scale from 0-100 and then press Enter.",Study/JOL,"Study Phase2",2244,,,1898,1898,,,,0,1
w870212_eeg,1up3ibyz78,Trevor_EX2,1,131,2020-11-19T17:51:43-08:00,2.5114948749542,4,Pure_Unrelated.csv,Control_VersionB.csv,"Control B","Control B",LEASE,TOIL,Study1,U,20,44,JOL,User,-,"How likely are you to correctly recall the second item in the pair?|Type your response on a scale from 0-100 and then press Enter.",Study/JOL,"Study Phase2",1941,,,1696,1696,,,,0,1
w870212_eeg,1up3ibyz78,Trevor_EX2,1,132,2020-11-19T17:51:47-08:00,3.7790582180023,4,Pure_Unrelated.csv,Control_VersionB.csv,"Control B","Control B",CRAYON,RATE,Study1,U,79,7,JOL,User,-,"How likely are you to correctly recall the second item in the pair?|Type your response on a scale from 0-100 and then press Enter.",Study/JOL,"Study Phase2",3198,,,2966,2966,,,,0,1
w870212_eeg,1up3ibyz78,Trevor_EX2,1,133,2020-11-19T17:51:49-08:00,1.8485338687897,4,Pure_Unrelated.csv,Control_VersionB.csv,"Control B","Control B",TAX,OWL,Study1,U,72,40,JOL,User,-,"How likely are you to correctly recall the second item in the pair?|Type your response on a scale from 0-100 and then press Enter.",Study/JOL,"Study Phase2",1371,,,1093,1093,,,,0,1
w870212_eeg,1up3ibyz78,Trevor_EX2,1,134,2020-11-19T17:51:52-08:00,3.0027949810028,4,Pure_Unrelated.csv,Control_VersionB.csv,"Control B","Control B",BOTH,OUNCE,Study1,U,22,26,JOL,User,-,"How likely are you to correctly recall the second item in the pair?|Type your response on a scale from 0-100 and then press Enter.",Study/JOL,"Study Phase2",2495,,,2268,2268,,,,0,1
w870212_eeg,1up3ibyz78,Trevor_EX2,1,135,2020-11-19T17:51:56-08:00,3.7623801231384,4,Pure_Unrelated.csv,Control_VersionB.csv,"Control B","Control B",JUSTICE,MAROON,Study1,U,6,37,JOL,User,-,"How likely are you to correctly recall the second item in the pair?|Type your response on a scale from 0-100 and then press Enter.",Study/JOL,"Study Phase2",3270,,,2974,2974,,,,0,1
w870212_eeg,1up3ibyz78,Trevor_EX2,1,136,2020-11-19T17:51:59-08:00,3.090723991394,4,Pure_Unrelated.csv,Control_VersionB.csv,"Control B","Control B",DEGREE,CHAIR,Study1,U,71,27,JOL,User,-,"How likely are you to correctly recall the second item in the pair?|Type your response on a scale from 0-100 and then press Enter.",Study/JOL,"Study Phase2",2661,,,2037,2317,,,,50,1
w870212_eeg,1up3ibyz78,Trevor_EX2,1,137,2020-11-19T17:52:01-08:00,2.5041928291321,4,Pure_Unrelated.csv,Control_VersionB.csv,"Control B","Control B",FUTURE,SINCERE,Study1,U,70,42,JOL,User,-,"How likely are you to correctly recall the second item in the pair?|Type your response on a scale from 0-100 and then press Enter.",Study/JOL,"Study Phase2",2033,,,1418,1746,,,,50,1
w870212_eeg,1up3ibyz78,Trevor_EX2,1,138,2020-11-19T17:52:03-08:00,1.8379950523376,4,Pure_Unrelated.csv,Control_VersionB.csv,"Control B","Control B",DIZZY,SWEATER,Study1,U,77,14,JOL,User,-,"How likely are you to correctly recall the second item in the pair?|Type your response on a scale from 0-100 and then press Enter.",Study/JOL,"Study Phase2",1345,,,1009,1009,,,,0,1
w870212_eeg,1up3ibyz78,Trevor_EX2,1,139,2020-11-19T17:52:07-08:00,3.9380600452423,4,Pure_Unrelated.csv,Control_VersionB.csv,"Control B","Control B",TEMPERATURE,MORNING,Study1,U,23,16,JOL,User,-,"How likely are you to correctly recall the second item in the pair?|Type your response on a scale from 0-100 and then press Enter.",Study/JOL,"Study Phase2",3250,,,2599,2910,,,,50,1
w870212_eeg,1up3ibyz78,Trevor_EX2,1,140,2020-11-19T17:52:09-08:00,1.9530739784241,4,Pure_Unrelated.csv,Control_VersionB.csv,"Control B","Control B",BROAD,INFECT,Study1,U,75,38,JOL,User,-,"How likely are you to correctly recall the second item in the pair?|Type your response on a scale from 0-100 and then press Enter.",Study/JOL,"Study Phase2",1332,,,1130,1130,,,,0,1
w870212_eeg,1up3ibyz78,Trevor_EX2,1,141,2020-11-19T17:52:15-08:00,5.4841439723969,4,Pure_Unrelated.csv,Control_VersionB.csv,"Control B","Control B",THICK,CONTEST,Study1,U,73,19,JOL,User,-,"How likely are you to correctly recall the second item in the pair?|Type your response on a scale from 0-100 and then press Enter.",Study/JOL,"Study Phase2",4938,,,1088,4649,,,,50,1
w870212_eeg,1up3ibyz78,Trevor_EX2,1,142,2020-11-19T17:52:16-08:00,1.8916339874268,4,Pure_Unrelated.csv,Control_VersionB.csv,"Control B","Control B",DIFFICULT,POOR,Study1,U,81,46,JOL,User,-,"How likely are you to correctly recall the second item in the pair?|Type your response on a scale from 0-100 and then press Enter.",Study/JOL,"Study Phase2",1381,,,1144,1145,,,,0,1
w870212_eeg,1up3ibyz78,Trevor_EX2,1,143,2020-11-19T17:52:19-08:00,2.6034710407257,4,Pure_Unrelated.csv,Control_VersionB.csv,"Control B","Control B",GIVE,STEAK,Study1,U,8,30,JOL,User,-,"How likely are you to correctly recall the second item in the pair?|Type your response on a scale from 0-100 and then press Enter.",Study/JOL,"Study Phase2",2055,,,1501,1564,,,,50,1
w870212_eeg,1up3ibyz78,Trevor_EX2,1,144,2020-11-19T17:52:21-08:00,1.9283509254456,4,Pure_Unrelated.csv,Control_VersionB.csv,"Control B","Control B",BAT,SHAKY,Study1,U,66,20,JOL,User,-,"How likely are you to correctly recall the second item in the pair?|Type your response on a scale from 0-100 and then press Enter.",Study/JOL,"Study Phase2",1426,,,1183,1183,,,,0,1
w870212_eeg,1up3ibyz78,Trevor_EX2,1,145,2020-11-19T17:52:24-08:00,2.9820590019226,4,Pure_Unrelated.csv,Control_VersionB.csv,"Control B","Control B",LOAN,SIGN,Study1,U,21,29,JOL,User,-,"How likely are you to correctly recall the second item in the pair?|Type your response on a scale from 0-100 and then press Enter.",Study/JOL,"Study Phase2",2411,,,1718,2077,,,,50,1
w870212_eeg,1up3ibyz78,Trevor_EX2,1,146,2020-11-19T17:52:26-08:00,1.8303360939026,4,Pure_Unrelated.csv,Control_VersionB.csv,"Control B","Control B",RIPE,VERIFY,Study1,U,83,31,JOL,User,-,"How likely are you to correctly recall the second item in the pair?|Type your response on a scale from 0-100 and then press Enter.",Study/JOL,"Study Phase2",1142,,,923,923,,,,0,1
w870212_eeg,1up3ibyz78,Trevor_EX2,1,147,2020-11-19T17:52:30-08:00,3.8732829093933,4,Pure_Unrelated.csv,Control_VersionB.csv,"Control B","Control B",GEESE,GOOSE,BUFFER2,Buffer,86,48,JOL,User,-,"How likely are you to correctly recall the second item in the pair?|Type your response on a scale from 0-100 and then press Enter.",Study/JOL,BUFFER4,3259,,,2965,3011,,,,80,1
w870212_eeg,1up3ibyz78,Trevor_EX2,1,148,2020-11-19T17:52:32-08:00,1.94460105896,4,Pure_Unrelated.csv,Control_VersionB.csv,"Control B","Control B",MALT,CHOCOLATE,BUFFER2,Buffer,88,47,JOL,User,-,"How likely are you to correctly recall the second item in the pair?|Type your response on a scale from 0-100 and then press Enter.",Study/JOL,BUFFER4,1448,,,1095,1096,,,,0,1
w870212_eeg,1up3ibyz78,Trevor_EX2,1,149,2020-11-19T17:52:39-08:00,6.9345989227295,4,Pure_Unrelated.csv,Control_VersionB.csv,"Control B","Control B",THING,STUFF,BUFFER2,Buffer,90,51,JOL,User,-,"How likely are you to correctly recall the second item in the pair?|Type your response on a scale from 0-100 and then press Enter.",Study/JOL,BUFFER4,6321,,,5678,6026,,,,70,1
w870212_eeg,1up3ibyz78,Trevor_EX2,1,150,2020-11-19T17:52:42-08:00,3.5088109970093,4,Pure_Unrelated.csv,Control_VersionB.csv,"Control B","Control B",SHERRIF,POLICE,BUFFER2,Buffer,87,50,JOL,User,-,"How likely are you to correctly recall the second item in the pair?|Type your response on a scale from 0-100 and then press Enter.",Study/JOL,BUFFER4,2775,,,1040,2486,,,,70,1
w870212_eeg,1up3ibyz78,Trevor_EX2,1,151,2020-11-19T17:52:46-08:00,3.6652162075043,4,Pure_Unrelated.csv,Control_VersionB.csv,"Control B","Control B",MOON,SPACE,BUFFER2,Buffer,89,49,JOL,User,-,"How likely are you to correctly recall the second item in the pair?|Type your response on a scale from 0-100 and then press Enter.",Study/JOL,BUFFER4,2734,,,1617,2381,,,,70,1
w870212_eeg,1up3ibyz78,Trevor_EX2,1,152,2020-11-19T17:52:48-08:00,1.792778968811,4,Pure_Unrelated.csv,Control_VersionB.csv,"Control B","Control B",,,,,,0,Instruct,User,-,"You have completed this section. Please press Enter.",Filler_Instruction,Instruct5,940,,,-1,-1,,,,,1
w870212_eeg,1up3ibyz78,Trevor_EX2,1,153,2020-11-19T17:54:51-08:00,123.5558488369,4,Pure_Unrelated.csv,Control_VersionB.csv,"Control B","Control B",,,,,,0,FreeRecall,120,120,"Please list the 50 US states in reverse alphabetical order (z - a). The task will automatically advance to the next screen after two minutes.",,Filler2,120002,"abcdefghijklmnopqrstuvwxyz wyoming wisconsin washinton virginia vermont utah texas south dakota rhode island pennsylvabia oregobn montana minnesota mivhigan louisana ksnsas",0,6003,115910,0,0,,,1
w870212_eeg,1up3ibyz78,Trevor_EX2,1,154,2020-11-19T17:55:06-08:00,15.162218093872,4,Pure_Unrelated.csv,Control_VersionB.csv,"Control B","Control B",,,,,,0,Instruct,-,10,"You will now be presented with the first word from each of the previously studied item pairs. Please type the missing word. If you do not know the word, you may guess or press Enter to skip forward to the next pair.",,Instruct6,13933,,,-1,-1,,,,,1
w870212_eeg,1up3ibyz78,Trevor_EX2,1,155,2020-11-19T17:55:13-08:00,6.8618309497833,4,Pure_Unrelated.csv,Control_VersionB.csv,"Control B","Control B",INFLATE,DISGUST,Study1,U,76,23,Test,User,-,,Recall,Recall2,5442,harm,0,4227,5024,0,0,,,1
w870212_eeg,1up3ibyz78,Trevor_EX2,1,156,2020-11-19T17:55:17-08:00,3.9749109745026,4,Pure_Unrelated.csv,Control_VersionB.csv,"Control B","Control B",RESIST,GLUE,Study1,U,69,39,Test,User,-,,Recall,Recall2,3117,,0,-1,-1,0,0,,,1
w870212_eeg,1up3ibyz78,Trevor_EX2,1,157,2020-11-19T17:55:19-08:00,1.9200999736786,4,Pure_Unrelated.csv,Control_VersionB.csv,"Control B","Control B",RIPE,VERIFY,Study1,U,83,31,Test,User,-,,Recall,Recall2,1175,,0,-1,-1,0,0,,,1
w870212_eeg,1up3ibyz78,Trevor_EX2,1,158,2020-11-19T17:55:21-08:00,1.4940741062164,4,Pure_Unrelated.csv,Control_VersionB.csv,"Control B","Control B",CAKE,CLOTHES,Study1,U,16,28,Test,User,-,,Recall,Recall2,952,,0,-1,-1,0,0,,,1
w870212_eeg,1up3ibyz78,Trevor_EX2,1,159,2020-11-19T17:55:24-08:00,3.9661920070648,4,Pure_Unrelated.csv,Control_VersionB.csv,"Control B","Control B",BROAD,INFECT,Study1,U,75,38,Test,User,-,,Recall,Recall2,3439,infect,100,1459,2833,1,1,,,1
w870212_eeg,1up3ibyz78,Trevor_EX2,1,160,2020-11-19T17:55:28-08:00,3.2393200397491,4,Pure_Unrelated.csv,Control_VersionB.csv,"Control B","Control B",WARN,SEA,Study1,U,80,34,Test,User,-,,Recall,Recall2,2773,,0,-1,-1,0,0,,,1
w870212_eeg,1up3ibyz78,Trevor_EX2,1,161,2020-11-19T17:55:34-08:00,6.4185988903046,4,Pure_Unrelated.csv,Control_VersionB.csv,"Control B","Control B",DONKEY,LUSH,Study1,U,84,10,Test,User,-,,Recall,Recall2,5982,lust,75,4373,5431,0,1,,,1
w870212_eeg,1up3ibyz78,Trevor_EX2,1,162,2020-11-19T17:55:38-08:00,4.0436079502106,4,Pure_Unrelated.csv,Control_VersionB.csv,"Control B","Control B",STRETCH,CLOTH,Study1,U,7,9,Test,User,-,,Recall,Recall2,3281,cloth,100,1792,2798,1,1,,,1
w870212_eeg,1up3ibyz78,Trevor_EX2,1,163,2020-11-19T17:55:41-08:00,2.6467990875244,4,Pure_Unrelated.csv,Control_VersionB.csv,"Control B","Control B",DIFFICULT,POOR,Study1,U,81,46,Test,User,-,,Recall,Recall2,1583,,0,-1,-1,0,0,,,1
w870212_eeg,1up3ibyz78,Trevor_EX2,1,164,2020-11-19T17:55:50-08:00,8.8025810718536,4,Pure_Unrelated.csv,Control_VersionB.csv,"Control B","Control B",MEAT,OBTAIN,Study1,U,11,45,Test,User,-,,Recall,Recall2,8350,,0,-1,-1,0,0,,,1
w870212_eeg,1up3ibyz78,Trevor_EX2,1,165,2020-11-19T17:55:55-08:00,5.3850028514862,4,Pure_Unrelated.csv,Control_VersionB.csv,"Control B","Control B",MAIN,SCAR,Study1,U,25,32,Test,User,-,,Recall,Recall2,4842,,0,-1,-1,0,0,,,1
w870212_eeg,1up3ibyz78,Trevor_EX2,1,166,2020-11-19T17:55:58-08:00,2.9202871322632,4,Pure_Unrelated.csv,Control_VersionB.csv,"Control B","Control B",PET,MOON,Study1,U,74,33,Test,User,-,,Recall,Recall2,2465,,0,-1,-1,0,0,,,1
w870212_eeg,1up3ibyz78,Trevor_EX2,1,167,2020-11-19T17:56:02-08:00,4.4786379337311,4,Pure_Unrelated.csv,Control_VersionB.csv,"Control B","Control B",LOAN,SIGN,Study1,U,21,29,Test,User,-,,Recall,Recall2,3552,sign,100,2165,3008,1,1,,,1
w870212_eeg,1up3ibyz78,Trevor_EX2,1,168,2020-11-19T17:56:06-08:00,3.5288510322571,4,Pure_Unrelated.csv,Control_VersionB.csv,"Control B","Control B",TEMPERATURE,MORNING,Study1,U,23,16,Test,User,-,,Recall,Recall2,3056,morning,100,1003,2673,1,1,,,1
w870212_eeg,1up3ibyz78,Trevor_EX2,1,169,2020-11-19T17:56:10-08:00,4.3616180419922,4,Pure_Unrelated.csv,Control_VersionB.csv,"Control B","Control B",JUSTICE,MAROON,Study1,U,6,37,Test,User,-,,Recall,Recall2,3544,,0,-1,-1,0,0,,,1
w870212_eeg,1up3ibyz78,Trevor_EX2,1,170,2020-11-19T17:56:12-08:00,1.3996949195862,4,Pure_Unrelated.csv,Control_VersionB.csv,"Control B","Control B",BOTH,OUNCE,Study1,U,22,26,Test,User,-,,Recall,Recall2,970,,0,-1,-1,0,0,,,1
w870212_eeg,1up3ibyz78,Trevor_EX2,1,171,2020-11-19T17:56:14-08:00,2.5600180625916,4,Pure_Unrelated.csv,Control_VersionB.csv,"Control B","Control B",FUTURE,SINCERE,Study1,U,70,42,Test,User,-,,Recall,Recall2,2019,,0,-1,-1,0,0,,,1
w870212_eeg,1up3ibyz78,Trevor_EX2,1,172,2020-11-19T17:56:23-08:00,8.9606308937073,4,Pure_Unrelated.csv,Control_VersionB.csv,"Control B","Control B",THICK,CONTEST,Study1,U,73,19,Test,User,-,,Recall,Recall2,8522,contest,100,6712,8049,1,1,,,1
w870212_eeg,1up3ibyz78,Trevor_EX2,1,173,2020-11-19T17:56:25-08:00,2.0793850421906,4,Pure_Unrelated.csv,Control_VersionB.csv,"Control B","Control B",LEASE,TOIL,Study1,U,20,44,Test,User,-,,Recall,Recall2,1612,,0,-1,-1,0,0,,,1
w870212_eeg,1up3ibyz78,Trevor_EX2,1,174,2020-11-19T17:56:27-08:00,1.6268739700317,4,Pure_Unrelated.csv,Control_VersionB.csv,"Control B","Control B",NAME,HATE,Study1,U,17,22,Test,User,-,,Recall,Recall2,1235,,0,-1,-1,0,0,,,1
w870212_eeg,1up3ibyz78,Trevor_EX2,1,175,2020-11-19T17:56:31-08:00,3.7678520679474,4,Pure_Unrelated.csv,Control_VersionB.csv,"Control B","Control B",NUMBER,HARD,Study1,U,78,35,Test,User,-,,Recall,Recall2,3152,math,25,2007,2661,0,0,,,1
w870212_eeg,1up3ibyz78,Trevor_EX2,1,176,2020-11-19T17:56:39-08:00,7.843113899231,4,Pure_Unrelated.csv,Control_VersionB.csv,"Control B","Control B",FUZZY,BANG,Study1,U,18,41,Test,User,-,,Recall,Recall2,6522,,0,2448,2967,0,0,,,1
w870212_eeg,1up3ibyz78,Trevor_EX2,1,177,2020-11-19T17:56:45-08:00,6.3616101741791,4,Pure_Unrelated.csv,Control_VersionB.csv,"Control B","Control B",VEHICLE,CHARM,Study1,U,10,8,Test,User,-,,Recall,Recall2,5864,,0,-1,-1,0,0,,,1
w870212_eeg,1up3ibyz78,Trevor_EX2,1,178,2020-11-19T17:56:51-08:00,6.3626120090485,4,Pure_Unrelated.csv,Control_VersionB.csv,"Control B","Control B",STRESS,YAM,Study1,U,68,25,Test,User,-,,Recall,Recall2,5731,yam,100,4021,5230,1,1,,,1
w870212_eeg,1up3ibyz78,Trevor_EX2,1,179,2020-11-19T17:56:57-08:00,5.2471659183502,4,Pure_Unrelated.csv,Control_VersionB.csv,"Control B","Control B",MAZE,ELECTION,Study1,U,9,17,Test,User,-,,Recall,Recall2,4772,election,100,2641,4337,1,1,,,1
w870212_eeg,1up3ibyz78,Trevor_EX2,1,180,2020-11-19T17:57:03-08:00,6.7881240844727,4,Pure_Unrelated.csv,Control_VersionB.csv,"Control B","Control B",KEYS,JOKE,Study1,U,15,13,Test,User,-,,Recall,Recall2,6031,joke,100,4371,5268,1,1,,,1
w870212_eeg,1up3ibyz78,Trevor_EX2,1,181,2020-11-19T17:57:06-08:00,2.316547870636,4,Pure_Unrelated.csv,Control_VersionB.csv,"Control B","Control B",BAT,SHAKY,Study1,U,66,20,Test,User,-,,Recall,Recall2,1296,,0,-1,-1,0,0,,,1
w870212_eeg,1up3ibyz78,Trevor_EX2,1,182,2020-11-19T17:57:09-08:00,3.8451800346375,4,Pure_Unrelated.csv,Control_VersionB.csv,"Control B","Control B",MIRROR,CHILDREN,Study1,U,24,24,Test,User,-,,Recall,Recall2,3313,children,100,1080,2963,1,1,,,1
w870212_eeg,1up3ibyz78,Trevor_EX2,1,183,2020-11-19T17:57:14-08:00,4.278815984726,4,Pure_Unrelated.csv,Control_VersionB.csv,"Control B","Control B",ROSE,NEGLECT,Study1,U,82,15,Test,User,-,,Recall,Recall2,3770,harm,0,2294,3277,0,0,,,1
w870212_eeg,1up3ibyz78,Trevor_EX2,1,184,2020-11-19T17:57:18-08:00,4.1955599784851,4,Pure_Unrelated.csv,Control_VersionB.csv,"Control B","Control B",CRAYON,RATE,Study1,U,79,7,Test,User,-,,Recall,Recall2,3640,,0,-1,-1,0,0,,,1
w870212_eeg,1up3ibyz78,Trevor_EX2,1,185,2020-11-19T17:57:21-08:00,2.6064579486847,4,Pure_Unrelated.csv,Control_VersionB.csv,"Control B","Control B",GIVE,STEAK,Study1,U,8,30,Test,User,-,,Recall,Recall2,1896,,0,-1,-1,0,0,,,1
w870212_eeg,1up3ibyz78,Trevor_EX2,1,186,2020-11-19T17:57:24-08:00,3.9068109989166,4,Pure_Unrelated.csv,Control_VersionB.csv,"Control B","Control B",GRIND,STAND,Study1,U,85,36,Test,User,-,,Recall,Recall2,3148,stand,100,1402,2028,1,1,,,1
w870212_eeg,1up3ibyz78,Trevor_EX2,1,187,2020-11-19T17:57:31-08:00,6.3836421966553,4,Pure_Unrelated.csv,Control_VersionB.csv,"Control B","Control B",CRACKLE,ABLE,Study1,U,12,12,Test,User,-,,Recall,Recall2,5863,shake,44.444444444444,4805,5306,0,0,,,1
w870212_eeg,1up3ibyz78,Trevor_EX2,1,188,2020-11-19T17:58:03-08:00,31.881049871445,4,Pure_Unrelated.csv,Control_VersionB.csv,"Control B","Control B",DIZZY,SWEATER,Study1,U,77,14,Test,User,-,,Recall,Recall2,31063,,0,-1,-1,0,0,,,1
w870212_eeg,1up3ibyz78,Trevor_EX2,1,189,2020-11-19T17:58:04-08:00,1.6193521022797,4,Pure_Unrelated.csv,Control_VersionB.csv,"Control B","Control B",LISTEN,FICTION,Study1,U,14,43,Test,User,-,,Recall,Recall2,1218,,0,-1,-1,0,0,,,1
w870212_eeg,1up3ibyz78,Trevor_EX2,1,190,2020-11-19T17:58:11-08:00,6.3429729938507,4,Pure_Unrelated.csv,Control_VersionB.csv,"Control B","Control B",SHELL,SHAKE,Study1,U,13,21,Test,User,-,,Recall,Recall2,5678,,0,-1,-1,0,0,,,1
w870212_eeg,1up3ibyz78,Trevor_EX2,1,191,2020-11-19T17:58:14-08:00,2.9550158977509,4,Pure_Unrelated.csv,Control_VersionB.csv,"Control B","Control B",PARCEL,THROAT,Study1,U,67,11,Test,User,-,,Recall,Recall2,2585,,0,-1,-1,0,0,,,1
w870212_eeg,1up3ibyz78,Trevor_EX2,1,192,2020-11-19T17:58:19-08:00,5.8253741264343,4,Pure_Unrelated.csv,Control_VersionB.csv,"Control B","Control B",MOAT,CLEAR,Study1,U,19,18,Test,User,-,,Recall,Recall2,5433,smooth,0,2569,4978,0,0,,,1
w870212_eeg,1up3ibyz78,Trevor_EX2,1,193,2020-11-19T17:58:21-08:00,1.6325209140778,4,Pure_Unrelated.csv,Control_VersionB.csv,"Control B","Control B",DEGREE,CHAIR,Study1,U,71,27,Test,User,-,,Recall,Recall2,1105,,0,-1,-1,0,0,,,1
w870212_eeg,1up3ibyz78,Trevor_EX2,1,194,2020-11-19T17:58:23-08:00,1.584009885788,4,Pure_Unrelated.csv,Control_VersionB.csv,"Control B","Control B",TAX,OWL,Study1,U,72,40,Test,User,-,,Recall,Recall2,1186,,0,-1,-1,0,0,,,1
w870212_eeg,1up3ibyz78,Trevor_EX2,1,195,2020-11-19T17:58:24-08:00,1.1866400241852,4,Pure_Unrelated.csv,Control_VersionB.csv,"Control B","Control B",,,,,,0,Instruct,User,-,"You have completed this section. Please press Enter.",,Instruct7,756,,,-1,-1,,,,,1
w870212_eeg,1up3ibyz78,Trevor_EX2,1,196,2020-11-19T17:58:26-08:00,1.6492750644684,4,Pure_Unrelated.csv,Control_VersionB.csv,"Control B","Control B",,,,,,0,Instruct,User,-,"The following screen will ask you a few questions abour your experience today. You must complete these questions to receive credit.",,Instruct8,1219,,,-1,-1,,,,,1
