Username,ID,ExperimentName,Session,Trial,Date,TimeDif,"Condition Number","Stimuli File","Order File","Condition Description","Condition Notes",Stimuli*Cue,Stimuli*Answer,Stimuli*Shuffle,"Stimuli*Stimuli Notes",Stimuli*Value,Procedure*Item,"Procedure*Trial Type","Procedure*Max Time","Procedure*Min Time",Procedure*Text,"Procedure*Procedure Notes",Procedure*Shuffle,Response*RT,Response*Response,Response*Accuracy,Response*RTfirst,Response*RTlast,Response*strictAcc,Response*lenientAcc,Response*focus,Response*JOL,Response*Focus
w10003302_MPR,12ioc9hvpw,Trevor_EX2,1,1,2020-11-02T19:07:09-08:00,7.1367049217224,1,Pure_Unrelated.csv,SF_VersionA.csv,"Sans F A","Sans F A",,,,,,0,Instruct,-,5,"In this section, you will be presented with a series of word pairs.",Initial_Instruct,Instruct1,6927,,,-1,-1,,,,,0.923
w10003302_MPR,12ioc9hvpw,Trevor_EX2,1,2,2020-11-02T19:07:17-08:00,7.7637321949005,1,Pure_Unrelated.csv,SF_VersionA.csv,"Sans F A","Sans F A",,,,,,0,Instruct,-,5,"As you study, you will be asked to rate your ability to remember the second item in the pair if you were only shown the first at test. You will make these ratings using a 0 to 100 Scale.",,Instruct13,7529,,,-1,-1,,,,,1
w10003302_MPR,12ioc9hvpw,Trevor_EX2,1,3,2020-11-02T19:07:28-08:00,11.045658826828,1,Pure_Unrelated.csv,SF_VersionA.csv,"Sans F A","Sans F A",,,,,,0,Instruct,-,10,"For example, if you are given the pair CAT - DOG, a rating of 0 indicates that you would not remember DOG at test, while a rating of 100 indicates full certainty that you would remember the word DOG at test.",,Instruct14,10778,,,-1,-1,,,,,1
w10003302_MPR,12ioc9hvpw,Trevor_EX2,1,4,2020-11-02T19:07:39-08:00,11.093068122864,1,Pure_Unrelated.csv,SF_VersionA.csv,"Sans F A","Sans F A",,,,,,0,Instruct,-,10,"When making your ratings, it is criticial that you use the full range of the scale. You will be disqualified for only giving ratings of 0 or 100! After making your rating, press Enter to advance to the next pair.",,Instruct15,10835,,,-1,-1,,,,,1
w10003302_MPR,12ioc9hvpw,Trevor_EX2,1,5,2020-11-02T19:07:41-08:00,2.0597748756409,1,Pure_Unrelated.csv,SF_VersionA.csv,"Sans F A","Sans F A",,,,,,0,Instruct,User,-,"You will now begin the study. Press Enter when you are ready to begin.",,Instruct16,1764,,,-1,-1,,,,,1
w10003302_MPR,12ioc9hvpw,Trevor_EX2,1,6,2020-11-02T19:07:50-08:00,8.4876751899719,1,Pure_Unrelated.csv,SF_VersionA.csv,"Sans F A","Sans F A",SPACE,JAM,BUFFER1,Buffer,5,3,JOL_SF,User,-,"How likely are you to correctly recall the second item in the pair?|Type your response on a scale from 0-100 and then press Enter.",Study/JOL,BUFFER,7978,,,6730,6895,,,,99,1
w10003302_MPR,12ioc9hvpw,Trevor_EX2,1,7,2020-11-02T19:07:53-08:00,3.8217589855194,1,Pure_Unrelated.csv,SF_VersionA.csv,"Sans F A","Sans F A",PEANUT,BUTTER,BUFFER1,Buffer,3,6,JOL,User,-,"How likely are you to correctly recall the second item in the pair?|Type your response on a scale from 0-100 and then press Enter.",Study/JOL,BUFFER,3571,,,1867,2213,,,,100,1
w10003302_MPR,12ioc9hvpw,Trevor_EX2,1,8,2020-11-02T19:07:58-08:00,5.0248010158539,1,Pure_Unrelated.csv,SF_VersionA.csv,"Sans F A","Sans F A",TREES,GREEN,BUFFER1,Buffer,1,4,JOL_SF,User,-,"How likely are you to correctly recall the second item in the pair?|Type your response on a scale from 0-100 and then press Enter.",Study/JOL,BUFFER,4762,,,3826,3999,,,,87,1
w10003302_MPR,12ioc9hvpw,Trevor_EX2,1,9,2020-11-02T19:08:05-08:00,6.6415848731995,1,Pure_Unrelated.csv,SF_VersionA.csv,"Sans F A","Sans F A",BASEBALL,CATCHER,BUFFER1,Buffer,2,5,JOL,User,-,"How likely are you to correctly recall the second item in the pair?|Type your response on a scale from 0-100 and then press Enter.",Study/JOL,BUFFER,6407,,,3070,5501,,,,50,1
w10003302_MPR,12ioc9hvpw,Trevor_EX2,1,10,2020-11-02T19:08:15-08:00,10.219293117523,1,Pure_Unrelated.csv,SF_VersionA.csv,"Sans F A","Sans F A",SCARE,HIDE,BUFFER1,Buffer,4,2,JOL_SF,User,-,"How likely are you to correctly recall the second item in the pair?|Type your response on a scale from 0-100 and then press Enter.",Study/JOL,BUFFER,9972,,,8990,9141,,,,90,1
w10003302_MPR,12ioc9hvpw,Trevor_EX2,1,11,2020-11-02T19:08:20-08:00,5.0993909835815,1,Pure_Unrelated.csv,SF_VersionA.csv,"Sans F A","Sans F A",CRACKLE,ABLE,Study1,U,12,44,JOL,User,-,"How likely are you to correctly recall the second item in the pair?|Type your response on a scale from 0-100 and then press Enter.",Study/JOL,"Study Phase",4846,,,3684,3819,,,,10,1
w10003302_MPR,12ioc9hvpw,Trevor_EX2,1,12,2020-11-02T19:08:28-08:00,7.780730009079,1,Pure_Unrelated.csv,SF_VersionA.csv,"Sans F A","Sans F A",STRESS,YAM,Study1,U,68,34,JOL,User,-,"How likely are you to correctly recall the second item in the pair?|Type your response on a scale from 0-100 and then press Enter.",Study/JOL,"Study Phase",7533,,,4166,6642,,,,10,1
w10003302_MPR,12ioc9hvpw,Trevor_EX2,1,13,2020-11-02T19:08:33-08:00,4.6766548156738,1,Pure_Unrelated.csv,SF_VersionA.csv,"Sans F A","Sans F A",MAZE,ELECTION,Study1,U,9,23,JOL_SF,User,-,"How likely are you to correctly recall the second item in the pair?|Type your response on a scale from 0-100 and then press Enter.",Study/JOL,"Study Phase",4438,,,3515,3649,,,,29,1
w10003302_MPR,12ioc9hvpw,Trevor_EX2,1,14,2020-11-02T19:08:38-08:00,5.028801202774,1,Pure_Unrelated.csv,SF_VersionA.csv,"Sans F A","Sans F A",ROSE,NEGLECT,Study1,U,82,36,JOL,User,-,"How likely are you to correctly recall the second item in the pair?|Type your response on a scale from 0-100 and then press Enter.",Study/JOL,"Study Phase",4784,,,3907,4069,,,,89,1
w10003302_MPR,12ioc9hvpw,Trevor_EX2,1,15,2020-11-02T19:08:43-08:00,4.94442486763,1,Pure_Unrelated.csv,SF_VersionA.csv,"Sans F A","Sans F A",WARN,SEA,Study1,U,80,20,JOL_SF,User,-,"How likely are you to correctly recall the second item in the pair?|Type your response on a scale from 0-100 and then press Enter.",Study/JOL,"Study Phase",4710,,,3104,3852,,,,1,1
w10003302_MPR,12ioc9hvpw,Trevor_EX2,1,16,2020-11-02T19:08:46-08:00,3.4589440822601,1,Pure_Unrelated.csv,SF_VersionA.csv,"Sans F A","Sans F A",BROAD,INFECT,Study1,U,75,26,JOL_SF,User,-,"How likely are you to correctly recall the second item in the pair?|Type your response on a scale from 0-100 and then press Enter.",Study/JOL,"Study Phase",3224,,,2591,2592,,,,8,1
w10003302_MPR,12ioc9hvpw,Trevor_EX2,1,17,2020-11-02T19:08:50-08:00,3.4570419788361,1,Pure_Unrelated.csv,SF_VersionA.csv,"Sans F A","Sans F A",MEAT,OBTAIN,Study1,U,11,12,JOL_SF,User,-,"How likely are you to correctly recall the second item in the pair?|Type your response on a scale from 0-100 and then press Enter.",Study/JOL,"Study Phase",3226,,,2393,2557,,,,89,1
w10003302_MPR,12ioc9hvpw,Trevor_EX2,1,18,2020-11-02T19:08:54-08:00,4.1072340011597,1,Pure_Unrelated.csv,SF_VersionA.csv,"Sans F A","Sans F A",BAT,SHAKY,Study1,U,66,18,JOL_SF,User,-,"How likely are you to correctly recall the second item in the pair?|Type your response on a scale from 0-100 and then press Enter.",Study/JOL,"Study Phase",3874,,,2938,3174,,,,32,1
w10003302_MPR,12ioc9hvpw,Trevor_EX2,1,19,2020-11-02T19:08:58-08:00,3.765594959259,1,Pure_Unrelated.csv,SF_VersionA.csv,"Sans F A","Sans F A",STRETCH,CLOTH,Study1,U,7,24,JOL_SF,User,-,"How likely are you to correctly recall the second item in the pair?|Type your response on a scale from 0-100 and then press Enter.",Study/JOL,"Study Phase",3533,,,2326,2606,,,,79,1
w10003302_MPR,12ioc9hvpw,Trevor_EX2,1,20,2020-11-02T19:09:01-08:00,3.6716070175171,1,Pure_Unrelated.csv,SF_VersionA.csv,"Sans F A","Sans F A",NAME,HATE,Study1,U,17,16,JOL_SF,User,-,"How likely are you to correctly recall the second item in the pair?|Type your response on a scale from 0-100 and then press Enter.",Study/JOL,"Study Phase",3417,,,1876,2614,,,,86,1
w10003302_MPR,12ioc9hvpw,Trevor_EX2,1,21,2020-11-02T19:09:08-08:00,6.8463580608368,1,Pure_Unrelated.csv,SF_VersionA.csv,"Sans F A","Sans F A",RESIST,GLUE,Study1,U,69,31,JOL,User,-,"How likely are you to correctly recall the second item in the pair?|Type your response on a scale from 0-100 and then press Enter.",Study/JOL,"Study Phase",6589,,,5394,5761,,,,70,1
w10003302_MPR,12ioc9hvpw,Trevor_EX2,1,22,2020-11-02T19:09:13-08:00,5.0005450248718,1,Pure_Unrelated.csv,SF_VersionA.csv,"Sans F A","Sans F A",BOTH,OUNCE,Study1,U,22,11,JOL_SF,User,-,"How likely are you to correctly recall the second item in the pair?|Type your response on a scale from 0-100 and then press Enter.",Study/JOL,"Study Phase",4764,,,3723,4074,,,,45,1
w10003302_MPR,12ioc9hvpw,Trevor_EX2,1,23,2020-11-02T19:09:16-08:00,3.1573588848114,1,Pure_Unrelated.csv,SF_VersionA.csv,"Sans F A","Sans F A",DIZZY,SWEATER,Study1,U,77,35,JOL,User,-,"How likely are you to correctly recall the second item in the pair?|Type your response on a scale from 0-100 and then press Enter.",Study/JOL,"Study Phase",2897,,,2270,2270,,,,9,1
w10003302_MPR,12ioc9hvpw,Trevor_EX2,1,24,2020-11-02T19:09:20-08:00,4.1227569580078,1,Pure_Unrelated.csv,SF_VersionA.csv,"Sans F A","Sans F A",CAKE,CLOTHES,Study1,U,16,38,JOL,User,-,"How likely are you to correctly recall the second item in the pair?|Type your response on a scale from 0-100 and then press Enter.",Study/JOL,"Study Phase",3899,,,2704,2920,,,,89,1
w10003302_MPR,12ioc9hvpw,Trevor_EX2,1,25,2020-11-02T19:09:23-08:00,2.9957611560822,1,Pure_Unrelated.csv,SF_VersionA.csv,"Sans F A","Sans F A",LEASE,TOIL,Study1,U,20,37,JOL,User,-,"How likely are you to correctly recall the second item in the pair?|Type your response on a scale from 0-100 and then press Enter.",Study/JOL,"Study Phase",2744,,,1838,2057,,,,87,1
w10003302_MPR,12ioc9hvpw,Trevor_EX2,1,26,2020-11-02T19:09:27-08:00,3.7755739688873,1,Pure_Unrelated.csv,SF_VersionA.csv,"Sans F A","Sans F A",DONKEY,LUSH,Study1,U,84,27,JOL,User,-,"How likely are you to correctly recall the second item in the pair?|Type your response on a scale from 0-100 and then press Enter.",Study/JOL,"Study Phase",3543,,,2543,2926,,,,100,1
w10003302_MPR,12ioc9hvpw,Trevor_EX2,1,27,2020-11-02T19:09:32-08:00,5.1121699810028,1,Pure_Unrelated.csv,SF_VersionA.csv,"Sans F A","Sans F A",TEMPERATURE,MORNING,Study1,U,23,45,JOL,User,-,"How likely are you to correctly recall the second item in the pair?|Type your response on a scale from 0-100 and then press Enter.",Study/JOL,"Study Phase",4880,,,3909,4285,,,,81,1
w10003302_MPR,12ioc9hvpw,Trevor_EX2,1,28,2020-11-02T19:09:35-08:00,2.9741859436035,1,Pure_Unrelated.csv,SF_VersionA.csv,"Sans F A","Sans F A",GRIND,STAND,Study1,U,85,43,JOL,User,-,"How likely are you to correctly recall the second item in the pair?|Type your response on a scale from 0-100 and then press Enter.",Study/JOL,"Study Phase",2745,,,2067,2297,,,,32,1
w10003302_MPR,12ioc9hvpw,Trevor_EX2,1,29,2020-11-02T19:09:41-08:00,5.4479160308838,1,Pure_Unrelated.csv,SF_VersionA.csv,"Sans F A","Sans F A",PET,MOON,Study1,U,74,22,JOL_SF,User,-,"How likely are you to correctly recall the second item in the pair?|Type your response on a scale from 0-100 and then press Enter.",Study/JOL,"Study Phase",5209,,,3964,4508,,,,40,1
w10003302_MPR,12ioc9hvpw,Trevor_EX2,1,30,2020-11-02T19:09:44-08:00,3.1552879810333,1,Pure_Unrelated.csv,SF_VersionA.csv,"Sans F A","Sans F A",CRAYON,RATE,Study1,U,79,40,JOL,User,-,"How likely are you to correctly recall the second item in the pair?|Type your response on a scale from 0-100 and then press Enter.",Study/JOL,"Study Phase",2924,,,2092,2370,,,,49,1
w10003302_MPR,12ioc9hvpw,Trevor_EX2,1,31,2020-11-02T19:09:47-08:00,3.047847032547,1,Pure_Unrelated.csv,SF_VersionA.csv,"Sans F A","Sans F A",PARCEL,THROAT,Study1,U,67,17,JOL_SF,User,-,"How likely are you to correctly recall the second item in the pair?|Type your response on a scale from 0-100 and then press Enter.",Study/JOL,"Study Phase",2808,,,2123,2258,,,,50,1
w10003302_MPR,12ioc9hvpw,Trevor_EX2,1,32,2020-11-02T19:09:51-08:00,3.8989930152893,1,Pure_Unrelated.csv,SF_VersionA.csv,"Sans F A","Sans F A",DEGREE,CHAIR,Study1,U,71,13,JOL_SF,User,-,"How likely are you to correctly recall the second item in the pair?|Type your response on a scale from 0-100 and then press Enter.",Study/JOL,"Study Phase",3669,,,2905,3075,,,,99,1
w10003302_MPR,12ioc9hvpw,Trevor_EX2,1,33,2020-11-02T19:09:55-08:00,4.2329299449921,1,Pure_Unrelated.csv,SF_VersionA.csv,"Sans F A","Sans F A",TAX,OWL,Study1,U,72,8,JOL_SF,User,-,"How likely are you to correctly recall the second item in the pair?|Type your response on a scale from 0-100 and then press Enter.",Study/JOL,"Study Phase",4002,,,3349,3506,,,,29,1
w10003302_MPR,12ioc9hvpw,Trevor_EX2,1,34,2020-11-02T19:09:58-08:00,3.2181890010834,1,Pure_Unrelated.csv,SF_VersionA.csv,"Sans F A","Sans F A",GIVE,STEAK,Study1,U,8,7,JOL_SF,User,-,"How likely are you to correctly recall the second item in the pair?|Type your response on a scale from 0-100 and then press Enter.",Study/JOL,"Study Phase",2987,,,2355,2496,,,,19,1
w10003302_MPR,12ioc9hvpw,Trevor_EX2,1,35,2020-11-02T19:10:01-08:00,3.0071940422058,1,Pure_Unrelated.csv,SF_VersionA.csv,"Sans F A","Sans F A",INFLATE,DISGUST,Study1,U,76,32,JOL,User,-,"How likely are you to correctly recall the second item in the pair?|Type your response on a scale from 0-100 and then press Enter.",Study/JOL,"Study Phase",2774,,,1919,2218,,,,100,1
w10003302_MPR,12ioc9hvpw,Trevor_EX2,1,36,2020-11-02T19:10:05-08:00,3.2721099853516,1,Pure_Unrelated.csv,SF_VersionA.csv,"Sans F A","Sans F A",THICK,CONTEST,Study1,U,73,19,JOL_SF,User,-,"How likely are you to correctly recall the second item in the pair?|Type your response on a scale from 0-100 and then press Enter.",Study/JOL,"Study Phase",3044,,,2310,2481,,,,18,1
w10003302_MPR,12ioc9hvpw,Trevor_EX2,1,37,2020-11-02T19:10:08-08:00,3.2812938690186,1,Pure_Unrelated.csv,SF_VersionA.csv,"Sans F A","Sans F A",MAIN,SCAR,Study1,U,25,46,JOL,User,-,"How likely are you to correctly recall the second item in the pair?|Type your response on a scale from 0-100 and then press Enter.",Study/JOL,"Study Phase",3018,,,2299,2491,,,,89,1
w10003302_MPR,12ioc9hvpw,Trevor_EX2,1,38,2020-11-02T19:10:12-08:00,4.1917860507965,1,Pure_Unrelated.csv,SF_VersionA.csv,"Sans F A","Sans F A",FUZZY,BANG,Study1,U,18,33,JOL,User,-,"How likely are you to correctly recall the second item in the pair?|Type your response on a scale from 0-100 and then press Enter.",Study/JOL,"Study Phase",3954,,,3054,3213,,,,88,1
w10003302_MPR,12ioc9hvpw,Trevor_EX2,1,39,2020-11-02T19:10:16-08:00,4.1792559623718,1,Pure_Unrelated.csv,SF_VersionA.csv,"Sans F A","Sans F A",JUSTICE,MAROON,Study1,U,6,29,JOL,User,-,"How likely are you to correctly recall the second item in the pair?|Type your response on a scale from 0-100 and then press Enter.",Study/JOL,"Study Phase",3957,,,3227,3496,,,,78,1
w10003302_MPR,12ioc9hvpw,Trevor_EX2,1,40,2020-11-02T19:10:20-08:00,3.9524981975555,1,Pure_Unrelated.csv,SF_VersionA.csv,"Sans F A","Sans F A",LOAN,SIGN,Study1,U,21,9,JOL_SF,User,-,"How likely are you to correctly recall the second item in the pair?|Type your response on a scale from 0-100 and then press Enter.",Study/JOL,"Study Phase",3706,,,2961,3275,,,,87,1
w10003302_MPR,12ioc9hvpw,Trevor_EX2,1,41,2020-11-02T19:10:32-08:00,11.787506818771,1,Pure_Unrelated.csv,SF_VersionA.csv,"Sans F A","Sans F A",NUMBER,HARD,Study1,U,78,14,JOL_SF,User,-,"How likely are you to correctly recall the second item in the pair?|Type your response on a scale from 0-100 and then press Enter.",Study/JOL,"Study Phase",11561,,,9496,9704,,,,87,0.881
w10003302_MPR,12ioc9hvpw,Trevor_EX2,1,42,2020-11-02T19:10:36-08:00,4.4542369842529,1,Pure_Unrelated.csv,SF_VersionA.csv,"Sans F A","Sans F A",FUTURE,SINCERE,Study1,U,70,15,JOL_SF,User,-,"How likely are you to correctly recall the second item in the pair?|Type your response on a scale from 0-100 and then press Enter.",Study/JOL,"Study Phase",4155,,,3547,3751,,,,80,1
w10003302_MPR,12ioc9hvpw,Trevor_EX2,1,43,2020-11-02T19:10:44-08:00,7.7697141170502,1,Pure_Unrelated.csv,SF_VersionA.csv,"Sans F A","Sans F A",KEYS,JOKE,Study1,U,15,42,JOL,User,-,"How likely are you to correctly recall the second item in the pair?|Type your response on a scale from 0-100 and then press Enter.",Study/JOL,"Study Phase",7546,,,3808,6914,,,,98,1
w10003302_MPR,12ioc9hvpw,Trevor_EX2,1,44,2020-11-02T19:10:48-08:00,4.2228388786316,1,Pure_Unrelated.csv,SF_VersionA.csv,"Sans F A","Sans F A",MOAT,CLEAR,Study1,U,19,28,JOL,User,-,"How likely are you to correctly recall the second item in the pair?|Type your response on a scale from 0-100 and then press Enter.",Study/JOL,"Study Phase",3968,,,2909,3124,,,,78,1
w10003302_MPR,12ioc9hvpw,Trevor_EX2,1,45,2020-11-02T19:10:52-08:00,3.2007911205292,1,Pure_Unrelated.csv,SF_VersionA.csv,"Sans F A","Sans F A",DIFFICULT,POOR,Study1,U,81,30,JOL,User,-,"How likely are you to correctly recall the second item in the pair?|Type your response on a scale from 0-100 and then press Enter.",Study/JOL,"Study Phase",2984,,,2134,2722,,,,83,1
w10003302_MPR,12ioc9hvpw,Trevor_EX2,1,46,2020-11-02T19:11:01-08:00,9.6236140727997,1,Pure_Unrelated.csv,SF_VersionA.csv,"Sans F A","Sans F A",RIPE,VERIFY,Study1,U,83,21,JOL_SF,User,-,"How likely are you to correctly recall the second item in the pair?|Type your response on a scale from 0-100 and then press Enter.",Study/JOL,"Study Phase",9401,,,8628,9099,,,,72,1
w10003302_MPR,12ioc9hvpw,Trevor_EX2,1,47,2020-11-02T19:11:06-08:00,5.0312259197235,1,Pure_Unrelated.csv,SF_VersionA.csv,"Sans F A","Sans F A",VEHICLE,CHARM,Study1,U,10,10,JOL_SF,User,-,"How likely are you to correctly recall the second item in the pair?|Type your response on a scale from 0-100 and then press Enter.",Study/JOL,"Study Phase",4801,,,4069,4528,,,,64,1
w10003302_MPR,12ioc9hvpw,Trevor_EX2,1,48,2020-11-02T19:11:09-08:00,3.2336299419403,1,Pure_Unrelated.csv,SF_VersionA.csv,"Sans F A","Sans F A",SHELL,SHAKE,Study1,U,13,41,JOL,User,-,"How likely are you to correctly recall the second item in the pair?|Type your response on a scale from 0-100 and then press Enter.",Study/JOL,"Study Phase",3013,,,2261,2752,,,,87,1
w10003302_MPR,12ioc9hvpw,Trevor_EX2,1,49,2020-11-02T19:11:12-08:00,2.7877099514008,1,Pure_Unrelated.csv,SF_VersionA.csv,"Sans F A","Sans F A",LISTEN,FICTION,Study1,U,14,39,JOL,User,-,"How likely are you to correctly recall the second item in the pair?|Type your response on a scale from 0-100 and then press Enter.",Study/JOL,"Study Phase",2562,,,1840,2326,,,,82,1
w10003302_MPR,12ioc9hvpw,Trevor_EX2,1,50,2020-11-02T19:11:15-08:00,2.936751127243,1,Pure_Unrelated.csv,SF_VersionA.csv,"Sans F A","Sans F A",MIRROR,CHILDREN,Study1,U,24,25,JOL_SF,User,-,"How likely are you to correctly recall the second item in the pair?|Type your response on a scale from 0-100 and then press Enter.",Study/JOL,"Study Phase",2692,,,2146,2371,,,,87,1
w10003302_MPR,12ioc9hvpw,Trevor_EX2,1,51,2020-11-02T19:11:18-08:00,3.3128459453583,1,Pure_Unrelated.csv,SF_VersionA.csv,"Sans F A","Sans F A",MALT,CHOCOLATE,BUFFER2,Buffer,88,49,JOL,User,-,"How likely are you to correctly recall the second item in the pair?|Type your response on a scale from 0-100 and then press Enter.",Study/JOL,BUFFER2,3080,,,1680,2891,,,,99,1
w10003302_MPR,12ioc9hvpw,Trevor_EX2,1,52,2020-11-02T19:11:21-08:00,2.8512759208679,1,Pure_Unrelated.csv,SF_VersionA.csv,"Sans F A","Sans F A",THING,STUFF,BUFFER2,Buffer,90,50,JOL,User,-,"How likely are you to correctly recall the second item in the pair?|Type your response on a scale from 0-100 and then press Enter.",Study/JOL,BUFFER2,2626,,,1383,2420,,,,100,1
w10003302_MPR,12ioc9hvpw,Trevor_EX2,1,53,2020-11-02T19:11:24-08:00,3.0324041843414,1,Pure_Unrelated.csv,SF_VersionA.csv,"Sans F A","Sans F A",GEESE,GOOSE,BUFFER2,Buffer,86,48,JOL_SF,User,-,"How likely are you to correctly recall the second item in the pair?|Type your response on a scale from 0-100 and then press Enter.",Study/JOL,BUFFER2,2799,,,2400,2608,,,,98,1
w10003302_MPR,12ioc9hvpw,Trevor_EX2,1,54,2020-11-02T19:11:27-08:00,2.6344738006592,1,Pure_Unrelated.csv,SF_VersionA.csv,"Sans F A","Sans F A",SHERRIF,POLICE,BUFFER2,Buffer,87,47,JOL_SF,User,-,"How likely are you to correctly recall the second item in the pair?|Type your response on a scale from 0-100 and then press Enter.",Study/JOL,BUFFER2,2368,,,1953,2147,,,,87,1
w10003302_MPR,12ioc9hvpw,Trevor_EX2,1,55,2020-11-02T19:11:29-08:00,2.4105641841888,1,Pure_Unrelated.csv,SF_VersionA.csv,"Sans F A","Sans F A",MOON,SPACE,BUFFER2,Buffer,89,51,JOL,User,-,"How likely are you to correctly recall the second item in the pair?|Type your response on a scale from 0-100 and then press Enter.",Study/JOL,BUFFER2,2190,,,1844,2028,,,,99,1
w10003302_MPR,12ioc9hvpw,Trevor_EX2,1,56,2020-11-02T19:11:30-08:00,1.0454938411713,1,Pure_Unrelated.csv,SF_VersionA.csv,"Sans F A","Sans F A",,,,,,0,Instruct,User,-,"You have completed this section. Please press Enter.",Filler_Instruction,Instruct2,830,,,-1,-1,,,,,1
w10003302_MPR,12ioc9hvpw,Trevor_EX2,1,57,2020-11-02T19:13:31-08:00,120.3273639679,1,Pure_Unrelated.csv,SF_VersionA.csv,"Sans F A","Sans F A",,,,,,0,FreeRecall,120,120,"Please list the 50 US states in alphabetical order. The task will automatically advance to the next screen after two minutes.",,Filler1,120003,"Alabama Alaska Arizona Arkansas California Colorado Connecticut Delaware Florida Georgia Hawaii Idaho Illinois Indiana Iowa Kansas Kentucky Louisiana Maine Maryland Massachusetts Michigan Mississippi Missouri Mo",0,6699,119997,0,0,,,1
w10003302_MPR,12ioc9hvpw,Trevor_EX2,1,58,2020-11-02T19:13:42-08:00,10.951586008072,1,Pure_Unrelated.csv,SF_VersionA.csv,"Sans F A","Sans F A",,,,,,0,Instruct,-,10,"You will now be presented with the first word from each of the previously studied item pairs. Please type the missing word. If you do not know the word, you may guess or press Enter to skip forward to the next pair.",,Instruct3,10667,,,-1,-1,,,,,1
w10003302_MPR,12ioc9hvpw,Trevor_EX2,1,59,2020-11-02T19:13:46-08:00,3.8427431583405,1,Pure_Unrelated.csv,SF_VersionA.csv,"Sans F A","Sans F A",MIRROR,CHILDREN,Study1,U,24,25,Test,User,-,,Recall,Recall1,3572,child,76.923076923077,2740,3339,0,1,,,1
w10003302_MPR,12ioc9hvpw,Trevor_EX2,1,60,2020-11-02T19:13:49-08:00,3.811861038208,1,Pure_Unrelated.csv,SF_VersionA.csv,"Sans F A","Sans F A",MOAT,CLEAR,Study1,U,19,28,Test,User,-,,Recall,Recall1,3584,float,40,1590,3482,0,0,,,1
w10003302_MPR,12ioc9hvpw,Trevor_EX2,1,61,2020-11-02T19:13:51-08:00,1.6945888996124,1,Pure_Unrelated.csv,SF_VersionA.csv,"Sans F A","Sans F A",LOAN,SIGN,Study1,U,21,9,Test,User,-,,Recall,Recall1,1477,,0,-1,-1,0,0,,,1
w10003302_MPR,12ioc9hvpw,Trevor_EX2,1,62,2020-11-02T19:13:54-08:00,2.7120471000671,1,Pure_Unrelated.csv,SF_VersionA.csv,"Sans F A","Sans F A",PARCEL,THROAT,Study1,U,67,17,Test,User,-,,Recall,Recall1,2455,,0,-1,-1,0,0,,,1
w10003302_MPR,12ioc9hvpw,Trevor_EX2,1,63,2020-11-02T19:13:55-08:00,1.3633859157562,1,Pure_Unrelated.csv,SF_VersionA.csv,"Sans F A","Sans F A",BOTH,OUNCE,Study1,U,22,11,Test,User,-,,Recall,Recall1,1143,,0,-1,-1,0,0,,,1
w10003302_MPR,12ioc9hvpw,Trevor_EX2,1,64,2020-11-02T19:14:01-08:00,5.8514750003815,1,Pure_Unrelated.csv,SF_VersionA.csv,"Sans F A","Sans F A",MEAT,OBTAIN,Study1,U,11,12,Test,User,-,,Recall,Recall1,5628,Strike,33.333333333333,1625,5479,0,0,,,1
w10003302_MPR,12ioc9hvpw,Trevor_EX2,1,65,2020-11-02T19:14:03-08:00,2.2217121124268,1,Pure_Unrelated.csv,SF_VersionA.csv,"Sans F A","Sans F A",DEGREE,CHAIR,Study1,U,71,13,Test,User,-,,Recall,Recall1,1976,Dean,22.222222222222,1266,1801,0,0,,,1
w10003302_MPR,12ioc9hvpw,Trevor_EX2,1,66,2020-11-02T19:14:07-08:00,3.4570519924164,1,Pure_Unrelated.csv,SF_VersionA.csv,"Sans F A","Sans F A",STRESS,YAM,Study1,U,68,34,Test,User,-,,Recall,Recall1,3193,anxiety,20,2115,2997,0,0,,,1
w10003302_MPR,12ioc9hvpw,Trevor_EX2,1,67,2020-11-02T19:14:09-08:00,1.8887298107147,1,Pure_Unrelated.csv,SF_VersionA.csv,"Sans F A","Sans F A",NAME,HATE,Study1,U,17,16,Test,User,-,,Recall,Recall1,1662,game,50,1198,1556,0,0,,,1
w10003302_MPR,12ioc9hvpw,Trevor_EX2,1,68,2020-11-02T19:14:10-08:00,1.2806711196899,1,Pure_Unrelated.csv,SF_VersionA.csv,"Sans F A","Sans F A",FUTURE,SINCERE,Study1,U,70,15,Test,User,-,,Recall,Recall1,1049,,0,-1,-1,0,0,,,1
w10003302_MPR,12ioc9hvpw,Trevor_EX2,1,69,2020-11-02T19:14:12-08:00,2.4974598884583,1,Pure_Unrelated.csv,SF_VersionA.csv,"Sans F A","Sans F A",KEYS,JOKE,Study1,U,15,42,Test,User,-,,Recall,Recall1,2277,laugh,0,1375,1841,0,0,,,1
w10003302_MPR,12ioc9hvpw,Trevor_EX2,1,70,2020-11-02T19:14:14-08:00,1.9478240013123,1,Pure_Unrelated.csv,SF_VersionA.csv,"Sans F A","Sans F A",WARN,SEA,Study1,U,80,20,Test,User,-,,Recall,Recall1,1717,,0,-1,-1,0,0,,,1
w10003302_MPR,12ioc9hvpw,Trevor_EX2,1,71,2020-11-02T19:14:19-08:00,4.2943260669708,1,Pure_Unrelated.csv,SF_VersionA.csv,"Sans F A","Sans F A",FUZZY,BANG,Study1,U,18,33,Test,User,-,,Recall,Recall1,4079,sweater,18.181818181818,1962,3627,0,0,,,1
w10003302_MPR,12ioc9hvpw,Trevor_EX2,1,72,2020-11-02T19:14:20-08:00,1.7121150493622,1,Pure_Unrelated.csv,SF_VersionA.csv,"Sans F A","Sans F A",BAT,SHAKY,Study1,U,66,18,Test,User,-,,Recall,Recall1,1491,,0,-1,-1,0,0,,,1
w10003302_MPR,12ioc9hvpw,Trevor_EX2,1,73,2020-11-02T19:14:22-08:00,1.6618299484253,1,Pure_Unrelated.csv,SF_VersionA.csv,"Sans F A","Sans F A",VEHICLE,CHARM,Study1,U,10,10,Test,User,-,,Recall,Recall1,1434,,0,-1,-1,0,0,,,1
w10003302_MPR,12ioc9hvpw,Trevor_EX2,1,74,2020-11-02T19:14:25-08:00,3.3575510978699,1,Pure_Unrelated.csv,SF_VersionA.csv,"Sans F A","Sans F A",DIZZY,SWEATER,Study1,U,77,35,Test,User,-,,Recall,Recall1,3132,sweater,100,1165,2964,1,1,,,1
w10003302_MPR,12ioc9hvpw,Trevor_EX2,1,75,2020-11-02T19:14:29-08:00,3.5392549037933,1,Pure_Unrelated.csv,SF_VersionA.csv,"Sans F A","Sans F A",CRACKLE,ABLE,Study1,U,12,44,Test,User,-,,Recall,Recall1,3317,fackle,60,2418,3180,0,0,,,1
w10003302_MPR,12ioc9hvpw,Trevor_EX2,1,76,2020-11-02T19:14:32-08:00,2.9018940925598,1,Pure_Unrelated.csv,SF_VersionA.csv,"Sans F A","Sans F A",RESIST,GLUE,Study1,U,69,31,Test,User,-,,Recall,Recall1,2681,meat,25,2174,2481,0,0,,,1
w10003302_MPR,12ioc9hvpw,Trevor_EX2,1,77,2020-11-02T19:14:33-08:00,1.3819839954376,1,Pure_Unrelated.csv,SF_VersionA.csv,"Sans F A","Sans F A",TAX,OWL,Study1,U,72,8,Test,User,-,,Recall,Recall1,1076,,0,-1,-1,0,0,,,1
w10003302_MPR,12ioc9hvpw,Trevor_EX2,1,78,2020-11-02T19:14:39-08:00,5.488196849823,1,Pure_Unrelated.csv,SF_VersionA.csv,"Sans F A","Sans F A",DONKEY,LUSH,Study1,U,84,27,Test,User,-,,Recall,Recall1,5259,flourish,66.666666666667,3531,5040,0,0,,,1
w10003302_MPR,12ioc9hvpw,Trevor_EX2,1,79,2020-11-02T19:14:46-08:00,7.4642601013184,1,Pure_Unrelated.csv,SF_VersionA.csv,"Sans F A","Sans F A",CRAYON,RATE,Study1,U,79,40,Test,User,-,,Recall,Recall1,7233,rate,100,3866,7110,1,1,,,1
w10003302_MPR,12ioc9hvpw,Trevor_EX2,1,80,2020-11-02T19:14:51-08:00,5.0232200622559,1,Pure_Unrelated.csv,SF_VersionA.csv,"Sans F A","Sans F A",TEMPERATURE,MORNING,Study1,U,23,45,Test,User,-,,Recall,Recall1,4767,morning,100,1426,4628,1,1,,,1
w10003302_MPR,12ioc9hvpw,Trevor_EX2,1,81,2020-11-02T19:14:55-08:00,3.8557629585266,1,Pure_Unrelated.csv,SF_VersionA.csv,"Sans F A","Sans F A",JUSTICE,MAROON,Study1,U,6,29,Test,User,-,,Recall,Recall1,3636,,0,2584,2736,0,0,,,1
w10003302_MPR,12ioc9hvpw,Trevor_EX2,1,82,2020-11-02T19:14:57-08:00,2.1295590400696,1,Pure_Unrelated.csv,SF_VersionA.csv,"Sans F A","Sans F A",NUMBER,HARD,Study1,U,78,14,Test,User,-,,Recall,Recall1,1901,game,25,1423,1712,0,0,,,1
w10003302_MPR,12ioc9hvpw,Trevor_EX2,1,83,2020-11-02T19:15:03-08:00,5.5830998420715,1,Pure_Unrelated.csv,SF_VersionA.csv,"Sans F A","Sans F A",ROSE,NEGLECT,Study1,U,82,36,Test,User,-,,Recall,Recall1,5323,discarded,12.5,2887,5204,0,0,,,1
w10003302_MPR,12ioc9hvpw,Trevor_EX2,1,84,2020-11-02T19:15:06-08:00,3.7358939647675,1,Pure_Unrelated.csv,SF_VersionA.csv,"Sans F A","Sans F A",CAKE,CLOTHES,Study1,U,16,38,Test,User,-,,Recall,Recall1,3502,shoe,18.181818181818,2791,3118,0,0,,,1
w10003302_MPR,12ioc9hvpw,Trevor_EX2,1,85,2020-11-02T19:15:08-08:00,1.1977171897888,1,Pure_Unrelated.csv,SF_VersionA.csv,"Sans F A","Sans F A",LISTEN,FICTION,Study1,U,14,39,Test,User,-,,Recall,Recall1,944,,0,-1,-1,0,0,,,1
w10003302_MPR,12ioc9hvpw,Trevor_EX2,1,86,2020-11-02T19:15:09-08:00,1.7050969600677,1,Pure_Unrelated.csv,SF_VersionA.csv,"Sans F A","Sans F A",BROAD,INFECT,Study1,U,75,26,Test,User,-,,Recall,Recall1,1485,,0,-1,-1,0,0,,,1
w10003302_MPR,12ioc9hvpw,Trevor_EX2,1,87,2020-11-02T19:15:12-08:00,2.2462549209595,1,Pure_Unrelated.csv,SF_VersionA.csv,"Sans F A","Sans F A",PET,MOON,Study1,U,74,22,Test,User,-,,Recall,Recall1,2019,moon,100,1320,1806,1,1,,,1
w10003302_MPR,12ioc9hvpw,Trevor_EX2,1,88,2020-11-02T19:15:14-08:00,2.697811126709,1,Pure_Unrelated.csv,SF_VersionA.csv,"Sans F A","Sans F A",DIFFICULT,POOR,Study1,U,81,30,Test,User,-,,Recall,Recall1,2469,,0,-1,-1,0,0,,,1
w10003302_MPR,12ioc9hvpw,Trevor_EX2,1,89,2020-11-02T19:15:17-08:00,2.6520018577576,1,Pure_Unrelated.csv,SF_VersionA.csv,"Sans F A","Sans F A",SHELL,SHAKE,Study1,U,13,41,Test,User,-,,Recall,Recall1,2423,,0,-1,-1,0,0,,,1
w10003302_MPR,12ioc9hvpw,Trevor_EX2,1,90,2020-11-02T19:15:19-08:00,2.1677420139313,1,Pure_Unrelated.csv,SF_VersionA.csv,"Sans F A","Sans F A",RIPE,VERIFY,Study1,U,83,21,Test,User,-,,Recall,Recall1,1932,pipe,20,1262,1765,0,0,,,1
w10003302_MPR,12ioc9hvpw,Trevor_EX2,1,91,2020-11-02T19:15:23-08:00,3.6271839141846,1,Pure_Unrelated.csv,SF_VersionA.csv,"Sans F A","Sans F A",MAZE,ELECTION,Study1,U,9,23,Test,User,-,,Recall,Recall1,3358,politics,37.5,1725,3166,0,0,,,1
w10003302_MPR,12ioc9hvpw,Trevor_EX2,1,92,2020-11-02T19:15:24-08:00,1.5812640190125,1,Pure_Unrelated.csv,SF_VersionA.csv,"Sans F A","Sans F A",GRIND,STAND,Study1,U,85,43,Test,User,-,,Recall,Recall1,1342,,0,-1,-1,0,0,,,1
w10003302_MPR,12ioc9hvpw,Trevor_EX2,1,93,2020-11-02T19:15:26-08:00,1.3587729930878,1,Pure_Unrelated.csv,SF_VersionA.csv,"Sans F A","Sans F A",STRETCH,CLOTH,Study1,U,7,24,Test,User,-,,Recall,Recall1,1090,,0,-1,-1,0,0,,,1
w10003302_MPR,12ioc9hvpw,Trevor_EX2,1,94,2020-11-02T19:15:27-08:00,1.3032941818237,1,Pure_Unrelated.csv,SF_VersionA.csv,"Sans F A","Sans F A",GIVE,STEAK,Study1,U,8,7,Test,User,-,,Recall,Recall1,1054,,0,-1,-1,0,0,,,1
w10003302_MPR,12ioc9hvpw,Trevor_EX2,1,95,2020-11-02T19:15:29-08:00,2.4219119548798,1,Pure_Unrelated.csv,SF_VersionA.csv,"Sans F A","Sans F A",THICK,CONTEST,Study1,U,73,19,Test,User,-,,Recall,Recall1,2209,contest,100,1335,2088,1,1,,,1
w10003302_MPR,12ioc9hvpw,Trevor_EX2,1,96,2020-11-02T19:15:33-08:00,3.2373418807983,1,Pure_Unrelated.csv,SF_VersionA.csv,"Sans F A","Sans F A",LEASE,TOIL,Study1,U,20,37,Test,User,-,,Recall,Recall1,3008,difficult,30.769230769231,1539,2488,0,0,,,1
w10003302_MPR,12ioc9hvpw,Trevor_EX2,1,97,2020-11-02T19:15:36-08:00,3.2759649753571,1,Pure_Unrelated.csv,SF_VersionA.csv,"Sans F A","Sans F A",INFLATE,DISGUST,Study1,U,76,32,Test,User,-,,Recall,Recall1,3009,disgusting,82.352941176471,1182,2718,0,1,,,1
w10003302_MPR,12ioc9hvpw,Trevor_EX2,1,98,2020-11-02T19:15:37-08:00,1.5974631309509,1,Pure_Unrelated.csv,SF_VersionA.csv,"Sans F A","Sans F A",MAIN,SCAR,Study1,U,25,46,Test,User,-,,Recall,Recall1,1359,,0,-1,-1,0,0,,,1
w10003302_MPR,12ioc9hvpw,Trevor_EX2,1,99,2020-11-02T19:15:49-08:00,11.597049951553,1,Pure_Unrelated.csv,SF_VersionA.csv,"Sans F A","Sans F A",,,,,,0,Instruct,-,10,"You will now be presented with a new set of word pairs. Please study each pair. Remember that your memory will be tested! When finished, press Enter to move to the next pair.",Initial_Instruct,Instruct4,11367,,,-1,-1,,,,,1
w10003302_MPR,12ioc9hvpw,Trevor_EX2,1,100,2020-11-02T19:16:07-08:00,17.97595500946,1,Pure_Unrelated.csv,SF_VersionA.csv,"Sans F A","Sans F A",,,,,,0,Instruct,,10,"You will again be asked to rate your ability to remember these items using a 0 to 100 scale. Remember to use the full range of the scale!",,Instruct10,17527,,,-1,-1,,,,,0.962
w10003302_MPR,12ioc9hvpw,Trevor_EX2,1,101,2020-11-02T19:16:09-08:00,1.8983850479126,1,Pure_Unrelated.csv,SF_VersionA.csv,"Sans F A","Sans F A",,,,,,0,Instruct,User,-,"Press Enter when you are readty to begin",,Instruct11,1470,,,-1,-1,,,,,1
w10003302_MPR,12ioc9hvpw,Trevor_EX2,1,102,2020-11-02T19:16:16-08:00,6.6301589012146,1,Pure_Unrelated.csv,SF_VersionA.csv,"Sans F A","Sans F A",ICE,FROZEN,BUFFER3,Buffer,94,56,JOL_SF,User,-,"How likely are you to correctly recall the second item in the pair?|Type your response on a scale from 0-100 and then press Enter.",Study/JOL,BUFFER3,6045,,,5651,5840,,,,75,1
w10003302_MPR,12ioc9hvpw,Trevor_EX2,1,103,2020-11-02T19:16:20-08:00,4.8356330394745,1,Pure_Unrelated.csv,SF_VersionA.csv,"Sans F A","Sans F A",NOODLE,STRING,BUFFER3,Buffer,92,54,JOL,User,-,"How likely are you to correctly recall the second item in the pair?|Type your response on a scale from 0-100 and then press Enter.",Study/JOL,BUFFER3,4548,,,3741,4276,,,,19,1
w10003302_MPR,12ioc9hvpw,Trevor_EX2,1,104,2020-11-02T19:16:25-08:00,4.0741550922394,1,Pure_Unrelated.csv,SF_VersionA.csv,"Sans F A","Sans F A",CARROT,POTATO,BUFFER3,Buffer,91,53,JOL_SF,User,-,"How likely are you to correctly recall the second item in the pair?|Type your response on a scale from 0-100 and then press Enter.",Study/JOL,BUFFER3,3823,,,3408,3600,,,,78,1
w10003302_MPR,12ioc9hvpw,Trevor_EX2,1,105,2020-11-02T19:16:27-08:00,2.7684559822083,1,Pure_Unrelated.csv,SF_VersionA.csv,"Sans F A","Sans F A",SHRIMP,FISH,BUFFER3,Buffer,93,55,JOL,User,-,"How likely are you to correctly recall the second item in the pair?|Type your response on a scale from 0-100 and then press Enter.",Study/JOL,BUFFER3,2496,,,1970,2250,,,,70,1
w10003302_MPR,12ioc9hvpw,Trevor_EX2,1,106,2020-11-02T19:16:32-08:00,4.2928779125214,1,Pure_Unrelated.csv,SF_VersionA.csv,"Sans F A","Sans F A",CAMP,ADVENTURE,BUFFER3,Buffer,95,52,JOL_SF,User,-,"How likely are you to correctly recall the second item in the pair?|Type your response on a scale from 0-100 and then press Enter.",Study/JOL,BUFFER3,4061,,,3463,3791,,,,70,1
w10003302_MPR,12ioc9hvpw,Trevor_EX2,1,107,2020-11-02T19:16:46-08:00,14.156556129456,1,Pure_Unrelated.csv,SF_VersionA.csv,"Sans F A","Sans F A",ZOO,THUMB,Study2,U,168,73,JOL_SF,User,-,"How likely are you to correctly recall the second item in the pair?|Type your response on a scale from 0-100 and then press Enter.",Study/JOL,"Study Phase2",13811,,,13256,13504,,,,89,1
w10003302_MPR,12ioc9hvpw,Trevor_EX2,1,108,2020-11-02T19:16:50-08:00,3.8138289451599,1,Pure_Unrelated.csv,SF_VersionA.csv,"Sans F A","Sans F A",STOMACH,TOWN,Study2,U,159,96,JOL,User,-,"How likely are you to correctly recall the second item in the pair?|Type your response on a scale from 0-100 and then press Enter.",Study/JOL,"Study Phase2",3530,,,3165,3302,,,,20,1
w10003302_MPR,12ioc9hvpw,Trevor_EX2,1,109,2020-11-02T19:16:52-08:00,2.8723039627075,1,Pure_Unrelated.csv,SF_VersionA.csv,"Sans F A","Sans F A",SYSTEM,LICK,Study2,U,167,83,JOL,User,-,"How likely are you to correctly recall the second item in the pair?|Type your response on a scale from 0-100 and then press Enter.",Study/JOL,"Study Phase2",2632,,,1906,2394,,,,19,1
w10003302_MPR,12ioc9hvpw,Trevor_EX2,1,110,2020-11-02T19:16:56-08:00,3.097482919693,1,Pure_Unrelated.csv,SF_VersionA.csv,"Sans F A","Sans F A",RIDDLE,SUGAR,Study2,U,111,66,JOL_SF,User,-,"How likely are you to correctly recall the second item in the pair?|Type your response on a scale from 0-100 and then press Enter.",Study/JOL,"Study Phase2",2854,,,2588,2588,,,,1,1
w10003302_MPR,12ioc9hvpw,Trevor_EX2,1,111,2020-11-02T19:16:59-08:00,3.20183801651,1,Pure_Unrelated.csv,SF_VersionA.csv,"Sans F A","Sans F A",DESIRE,NOISE,Study2,U,169,80,JOL,User,-,"How likely are you to correctly recall the second item in the pair?|Type your response on a scale from 0-100 and then press Enter.",Study/JOL,"Study Phase2",2963,,,2408,2783,,,,24,1
w10003302_MPR,12ioc9hvpw,Trevor_EX2,1,112,2020-11-02T19:17:02-08:00,3.287278175354,1,Pure_Unrelated.csv,SF_VersionA.csv,"Sans F A","Sans F A",VASE,KING,Study2,U,115,91,JOL,User,-,"How likely are you to correctly recall the second item in the pair?|Type your response on a scale from 0-100 and then press Enter.",Study/JOL,"Study Phase2",3058,,,2397,2846,,,,30,1
w10003302_MPR,12ioc9hvpw,Trevor_EX2,1,113,2020-11-02T19:17:05-08:00,3.4224989414215,1,Pure_Unrelated.csv,SF_VersionA.csv,"Sans F A","Sans F A",SPELL,BONE,Study2,U,174,65,JOL_SF,User,-,"How likely are you to correctly recall the second item in the pair?|Type your response on a scale from 0-100 and then press Enter.",Study/JOL,"Study Phase2",3174,,,2601,2930,,,,19,1
w10003302_MPR,12ioc9hvpw,Trevor_EX2,1,114,2020-11-02T19:17:13-08:00,7.9487490653992,1,Pure_Unrelated.csv,SF_VersionA.csv,"Sans F A","Sans F A",FLOAT,HARMONY,Study2,U,161,71,JOL_SF,User,-,"How likely are you to correctly recall the second item in the pair?|Type your response on a scale from 0-100 and then press Enter.",Study/JOL,"Study Phase2",7704,,,7061,7379,,,,49,1
w10003302_MPR,12ioc9hvpw,Trevor_EX2,1,115,2020-11-02T19:17:20-08:00,6.4204587936401,1,Pure_Unrelated.csv,SF_VersionA.csv,"Sans F A","Sans F A",ADD,VALLEY,Study2,U,112,92,JOL,User,-,"How likely are you to correctly recall the second item in the pair?|Type your response on a scale from 0-100 and then press Enter.",Study/JOL,"Study Phase2",6179,,,5603,5943,,,,69,0.864
w10003302_MPR,12ioc9hvpw,Trevor_EX2,1,116,2020-11-02T19:17:23-08:00,3.6915199756622,1,Pure_Unrelated.csv,SF_VersionA.csv,"Sans F A","Sans F A",READY,CORN,Study2,U,158,74,JOL_SF,User,-,"How likely are you to correctly recall the second item in the pair?|Type your response on a scale from 0-100 and then press Enter.",Study/JOL,"Study Phase2",3420,,,3015,3216,,,,32,1
w10003302_MPR,12ioc9hvpw,Trevor_EX2,1,117,2020-11-02T19:17:27-08:00,3.9647190570831,1,Pure_Unrelated.csv,SF_VersionA.csv,"Sans F A","Sans F A",NULL,COUGH,Study2,U,156,90,JOL,User,-,"How likely are you to correctly recall the second item in the pair?|Type your response on a scale from 0-100 and then press Enter.",Study/JOL,"Study Phase2",3739,,,3060,3312,,,,19,1
w10003302_MPR,12ioc9hvpw,Trevor_EX2,1,118,2020-11-02T19:17:33-08:00,5.2600719928741,1,Pure_Unrelated.csv,SF_VersionA.csv,"Sans F A","Sans F A",PUT,ROLL,Study2,U,163,93,JOL,User,-,"How likely are you to correctly recall the second item in the pair?|Type your response on a scale from 0-100 and then press Enter.",Study/JOL,"Study Phase2",5032,,,4644,4871,,,,34,1
w10003302_MPR,12ioc9hvpw,Trevor_EX2,1,119,2020-11-02T19:17:37-08:00,3.8005290031433,1,Pure_Unrelated.csv,SF_VersionA.csv,"Sans F A","Sans F A",SIGHT,DEBATE,Study2,U,103,57,JOL_SF,User,-,"How likely are you to correctly recall the second item in the pair?|Type your response on a scale from 0-100 and then press Enter.",Study/JOL,"Study Phase2",3561,,,3036,3277,,,,87,1
w10003302_MPR,12ioc9hvpw,Trevor_EX2,1,120,2020-11-02T19:17:46-08:00,9.5920550823212,1,Pure_Unrelated.csv,SF_VersionA.csv,"Sans F A","Sans F A",ACCIDENT,STRONG,Study2,U,110,64,JOL_SF,User,-,"How likely are you to correctly recall the second item in the pair?|Type your response on a scale from 0-100 and then press Enter.",Study/JOL,"Study Phase2",9357,,,8897,9066,,,,76,1
w10003302_MPR,12ioc9hvpw,Trevor_EX2,1,121,2020-11-02T19:17:50-08:00,4.3716909885406,1,Pure_Unrelated.csv,SF_VersionA.csv,"Sans F A","Sans F A",GUARD,WHEEL,Study2,U,170,82,JOL,User,-,"How likely are you to correctly recall the second item in the pair?|Type your response on a scale from 0-100 and then press Enter.",Study/JOL,"Study Phase2",4099,,,3004,3273,,,,43,1
w10003302_MPR,12ioc9hvpw,Trevor_EX2,1,122,2020-11-02T19:17:54-08:00,3.7909750938416,1,Pure_Unrelated.csv,SF_VersionA.csv,"Sans F A","Sans F A",SLIM,KNOW,Study2,U,164,79,JOL,User,-,"How likely are you to correctly recall the second item in the pair?|Type your response on a scale from 0-100 and then press Enter.",Study/JOL,"Study Phase2",3540,,,3051,3324,,,,72,1
w10003302_MPR,12ioc9hvpw,Trevor_EX2,1,123,2020-11-02T19:18:00-08:00,6.1928689479828,1,Pure_Unrelated.csv,SF_VersionA.csv,"Sans F A","Sans F A",DETECT,FREE,Study2,U,162,70,JOL_SF,User,-,"How likely are you to correctly recall the second item in the pair?|Type your response on a scale from 0-100 and then press Enter.",Study/JOL,"Study Phase2",5902,,,5540,5694,,,,09,1
w10003302_MPR,12ioc9hvpw,Trevor_EX2,1,124,2020-11-02T19:18:03-08:00,2.3155179023743,1,Pure_Unrelated.csv,SF_VersionA.csv,"Sans F A","Sans F A",ROAD,SCENT,Study2,U,166,85,JOL,User,-,"How likely are you to correctly recall the second item in the pair?|Type your response on a scale from 0-100 and then press Enter.",Study/JOL,"Study Phase2",2038,,,1825,1825,,,,9,1
w10003302_MPR,12ioc9hvpw,Trevor_EX2,1,125,2020-11-02T19:18:16-08:00,13.376008987427,1,Pure_Unrelated.csv,SF_VersionA.csv,"Sans F A","Sans F A",BELT,SOON,Study2,U,100,89,JOL,User,-,"How likely are you to correctly recall the second item in the pair?|Type your response on a scale from 0-100 and then press Enter.",Study/JOL,"Study Phase2",13135,,,12769,12974,,,,23,1
w10003302_MPR,12ioc9hvpw,Trevor_EX2,1,126,2020-11-02T19:18:19-08:00,3.2800440788269,1,Pure_Unrelated.csv,SF_VersionA.csv,"Sans F A","Sans F A",SMOOTH,OMIT,Study2,U,157,78,JOL,User,-,"How likely are you to correctly recall the second item in the pair?|Type your response on a scale from 0-100 and then press Enter.",Study/JOL,"Study Phase2",3007,,,2799,2799,,,,0,1
w10003302_MPR,12ioc9hvpw,Trevor_EX2,1,127,2020-11-02T19:18:24-08:00,4.9037048816681,1,Pure_Unrelated.csv,SF_VersionA.csv,"Sans F A","Sans F A",SICK,HIDE,Study2,U,114,63,JOL_SF,User,-,"How likely are you to correctly recall the second item in the pair?|Type your response on a scale from 0-100 and then press Enter.",Study/JOL,"Study Phase2",4671,,,4087,4244,,,,29,1
w10003302_MPR,12ioc9hvpw,Trevor_EX2,1,128,2020-11-02T19:18:26-08:00,2.0755400657654,1,Pure_Unrelated.csv,SF_VersionA.csv,"Sans F A","Sans F A",HUNGRY,PARK,Study2,U,98,76,JOL_SF,User,-,"How likely are you to correctly recall the second item in the pair?|Type your response on a scale from 0-100 and then press Enter.",Study/JOL,"Study Phase2",1804,,,1439,1606,,,,10,1
w10003302_MPR,12ioc9hvpw,Trevor_EX2,1,129,2020-11-02T19:18:29-08:00,2.3926341533661,1,Pure_Unrelated.csv,SF_VersionA.csv,"Sans F A","Sans F A",TUCK,ALLOW,Study2,U,108,81,JOL,User,-,"How likely are you to correctly recall the second item in the pair?|Type your response on a scale from 0-100 and then press Enter.",Study/JOL,"Study Phase2",2123,,,1922,1922,,,,8,1
w10003302_MPR,12ioc9hvpw,Trevor_EX2,1,130,2020-11-02T19:18:32-08:00,2.8021759986877,1,Pure_Unrelated.csv,SF_VersionA.csv,"Sans F A","Sans F A",CAR,HAPPY,Study2,U,107,68,JOL_SF,User,-,"How likely are you to correctly recall the second item in the pair?|Type your response on a scale from 0-100 and then press Enter.",Study/JOL,"Study Phase2",2563,,,2363,2363,,,,0,1
w10003302_MPR,12ioc9hvpw,Trevor_EX2,1,131,2020-11-02T19:18:36-08:00,4.4788539409637,1,Pure_Unrelated.csv,SF_VersionA.csv,"Sans F A","Sans F A",SWING,FOG,Study2,U,175,77,JOL,User,-,"How likely are you to correctly recall the second item in the pair?|Type your response on a scale from 0-100 and then press Enter.",Study/JOL,"Study Phase2",4232,,,3727,3918,,,,34,1
w10003302_MPR,12ioc9hvpw,Trevor_EX2,1,132,2020-11-02T19:18:38-08:00,2.0065128803253,1,Pure_Unrelated.csv,SF_VersionA.csv,"Sans F A","Sans F A",HAND,FIX,Study2,U,105,86,JOL,User,-,"How likely are you to correctly recall the second item in the pair?|Type your response on a scale from 0-100 and then press Enter.",Study/JOL,"Study Phase2",1736,,,1394,1545,,,,29,1
w10003302_MPR,12ioc9hvpw,Trevor_EX2,1,133,2020-11-02T19:18:41-08:00,2.4999599456787,1,Pure_Unrelated.csv,SF_VersionA.csv,"Sans F A","Sans F A",LION,ART,Study2,U,109,62,JOL_SF,User,-,"How likely are you to correctly recall the second item in the pair?|Type your response on a scale from 0-100 and then press Enter.",Study/JOL,"Study Phase2",2266,,,1772,2025,,,,18,1
w10003302_MPR,12ioc9hvpw,Trevor_EX2,1,134,2020-11-02T19:18:45-08:00,3.9643321037292,1,Pure_Unrelated.csv,SF_VersionA.csv,"Sans F A","Sans F A",CLUTTER,PUSHER,Study2,U,96,75,JOL_SF,User,-,"How likely are you to correctly recall the second item in the pair?|Type your response on a scale from 0-100 and then press Enter.",Study/JOL,"Study Phase2",3743,,,3225,3540,,,,73,1
w10003302_MPR,12ioc9hvpw,Trevor_EX2,1,135,2020-11-02T19:18:47-08:00,2.620817899704,1,Pure_Unrelated.csv,SF_VersionA.csv,"Sans F A","Sans F A",JELLY,NAUGHTY,Study2,U,172,88,JOL,User,-,"How likely are you to correctly recall the second item in the pair?|Type your response on a scale from 0-100 and then press Enter.",Study/JOL,"Study Phase2",2385,,,2163,2163,,,,7,1
w10003302_MPR,12ioc9hvpw,Trevor_EX2,1,136,2020-11-02T19:18:50-08:00,2.7082760334015,1,Pure_Unrelated.csv,SF_VersionA.csv,"Sans F A","Sans F A",SACKING,DIETARY,Study2,U,97,95,JOL,User,-,"How likely are you to correctly recall the second item in the pair?|Type your response on a scale from 0-100 and then press Enter.",Study/JOL,"Study Phase2",2422,,,2260,2260,,,,0,1
w10003302_MPR,12ioc9hvpw,Trevor_EX2,1,137,2020-11-02T19:18:55-08:00,4.7379930019379,1,Pure_Unrelated.csv,SF_VersionA.csv,"Sans F A","Sans F A",MUTE,WAVE,Study2,U,173,67,JOL_SF,User,-,"How likely are you to correctly recall the second item in the pair?|Type your response on a scale from 0-100 and then press Enter.",Study/JOL,"Study Phase2",4493,,,4109,4332,,,,34,1
w10003302_MPR,12ioc9hvpw,Trevor_EX2,1,138,2020-11-02T19:18:58-08:00,3.1642601490021,1,Pure_Unrelated.csv,SF_VersionA.csv,"Sans F A","Sans F A",Business,Death,Study2,U,102,94,JOL,User,-,"How likely are you to correctly recall the second item in the pair?|Type your response on a scale from 0-100 and then press Enter.",Study/JOL,"Study Phase2",2932,,,2494,2708,,,,99,1
w10003302_MPR,12ioc9hvpw,Trevor_EX2,1,139,2020-11-02T19:19:01-08:00,3.6347198486328,1,Pure_Unrelated.csv,SF_VersionA.csv,"Sans F A","Sans F A",WOMAN,LIFT,Study2,U,99,72,JOL_SF,User,-,"How likely are you to correctly recall the second item in the pair?|Type your response on a scale from 0-100 and then press Enter.",Study/JOL,"Study Phase2",3374,,,2873,3131,,,,08,1
w10003302_MPR,12ioc9hvpw,Trevor_EX2,1,140,2020-11-02T19:19:05-08:00,3.1888000965118,1,Pure_Unrelated.csv,SF_VersionA.csv,"Sans F A","Sans F A",LAKE,OPINION,Study2,U,160,87,JOL,User,-,"How likely are you to correctly recall the second item in the pair?|Type your response on a scale from 0-100 and then press Enter.",Study/JOL,"Study Phase2",2957,,,2724,2724,,,,5,1
w10003302_MPR,12ioc9hvpw,Trevor_EX2,1,141,2020-11-02T19:19:09-08:00,4.1884210109711,1,Pure_Unrelated.csv,SF_VersionA.csv,"Sans F A","Sans F A",PUFF,NUMBER,Study2,U,171,61,JOL_SF,User,-,"How likely are you to correctly recall the second item in the pair?|Type your response on a scale from 0-100 and then press Enter.",Study/JOL,"Study Phase2",3947,,,3088,3644,,,,36,1
w10003302_MPR,12ioc9hvpw,Trevor_EX2,1,142,2020-11-02T19:19:11-08:00,2.3218898773193,1,Pure_Unrelated.csv,SF_VersionA.csv,"Sans F A","Sans F A",BRONZE,ARTERY,Study2,U,104,84,JOL,User,-,"How likely are you to correctly recall the second item in the pair?|Type your response on a scale from 0-100 and then press Enter.",Study/JOL,"Study Phase2",2049,,,1487,1835,,,,19,1
w10003302_MPR,12ioc9hvpw,Trevor_EX2,1,143,2020-11-02T19:19:13-08:00,1.6076681613922,1,Pure_Unrelated.csv,SF_VersionA.csv,"Sans F A","Sans F A",FLOOR,DISCOVER,Study2,U,101,60,JOL_SF,User,-,"How likely are you to correctly recall the second item in the pair?|Type your response on a scale from 0-100 and then press Enter.",Study/JOL,"Study Phase2",1373,,,735,1022,,,,20,1
w10003302_MPR,12ioc9hvpw,Trevor_EX2,1,144,2020-11-02T19:19:18-08:00,4.9595949649811,1,Pure_Unrelated.csv,SF_VersionA.csv,"Sans F A","Sans F A",WASTE,SEDATE,Study2,U,165,59,JOL_SF,User,-,"How likely are you to correctly recall the second item in the pair?|Type your response on a scale from 0-100 and then press Enter.",Study/JOL,"Study Phase2",4715,,,2186,4483,,,,49,1
w10003302_MPR,12ioc9hvpw,Trevor_EX2,1,145,2020-11-02T19:19:21-08:00,3.4454200267792,1,Pure_Unrelated.csv,SF_VersionA.csv,"Sans F A","Sans F A",WASTE,SEDATE,Study2,U,165,59,JOL_SF,User,-,"How likely are you to correctly recall the second item in the pair?|Type your response on a scale from 0-100 and then press Enter.",Study/JOL,"Study Phase2",3197,,,2485,2797,,,,49,1
w10003302_MPR,12ioc9hvpw,Trevor_EX2,1,146,2020-11-02T19:19:24-08:00,2.792683839798,1,Pure_Unrelated.csv,SF_VersionA.csv,"Sans F A","Sans F A",WOULD,CASH,Study2,U,113,69,JOL_SF,User,-,"How likely are you to correctly recall the second item in the pair?|Type your response on a scale from 0-100 and then press Enter.",Study/JOL,"Study Phase2",2540,,,1979,2250,,,,29,1
w10003302_MPR,12ioc9hvpw,Trevor_EX2,1,147,2020-11-02T19:19:28-08:00,3.6785960197449,1,Pure_Unrelated.csv,SF_VersionA.csv,"Sans F A","Sans F A",OCTOBER,SPOOKY,BUFFER4,Buffer,180,101,JOL,User,-,"How likely are you to correctly recall the second item in the pair?|Type your response on a scale from 0-100 and then press Enter.",Study/JOL,BUFFER4,3449,,,1471,3242,,,,99,1
w10003302_MPR,12ioc9hvpw,Trevor_EX2,1,148,2020-11-02T19:19:42-08:00,14.802265167236,1,Pure_Unrelated.csv,SF_VersionA.csv,"Sans F A","Sans F A",MONTH,YEAR,BUFFER4,Buffer,177,100,JOL,User,-,"How likely are you to correctly recall the second item in the pair?|Type your response on a scale from 0-100 and then press Enter.",Study/JOL,BUFFER4,14546,,,13969,14141,,,,99,1
w10003302_MPR,12ioc9hvpw,Trevor_EX2,1,149,2020-11-02T19:19:47-08:00,5.066773891449,1,Pure_Unrelated.csv,SF_VersionA.csv,"Sans F A","Sans F A",SPRING,MARCH,BUFFER4,Buffer,179,99,JOL,User,-,"How likely are you to correctly recall the second item in the pair?|Type your response on a scale from 0-100 and then press Enter.",Study/JOL,BUFFER4,4743,,,3700,4183,,,,85,1
w10003302_MPR,12ioc9hvpw,Trevor_EX2,1,150,2020-11-02T19:19:50-08:00,2.8745880126953,1,Pure_Unrelated.csv,SF_VersionA.csv,"Sans F A","Sans F A",TOOL,SHED,BUFFER4,Buffer,178,98,JOL_SF,User,-,"How likely are you to correctly recall the second item in the pair?|Type your response on a scale from 0-100 and then press Enter.",Study/JOL,BUFFER4,2608,,,1870,2329,,,,87,1
w10003302_MPR,12ioc9hvpw,Trevor_EX2,1,151,2020-11-02T19:19:53-08:00,2.8983891010284,1,Pure_Unrelated.csv,SF_VersionA.csv,"Sans F A","Sans F A",DAYS,WEEKS,BUFFER4,Buffer,176,97,JOL_SF,User,-,"How likely are you to correctly recall the second item in the pair?|Type your response on a scale from 0-100 and then press Enter.",Study/JOL,BUFFER4,2643,,,2167,2398,,,,98,1
w10003302_MPR,12ioc9hvpw,Trevor_EX2,1,152,2020-11-02T19:19:54-08:00,1.1365518569946,1,Pure_Unrelated.csv,SF_VersionA.csv,"Sans F A","Sans F A",,,,,,0,Instruct,User,-,"You have completed this section. Please press Enter.",Filler_Instruction,Instruct5,895,,,-1,-1,,,,,1
w10003302_MPR,12ioc9hvpw,Trevor_EX2,1,153,2020-11-02T19:21:55-08:00,120.2936861515,1,Pure_Unrelated.csv,SF_VersionA.csv,"Sans F A","Sans F A",,,,,,0,FreeRecall,120,120,"Please list the 50 US states in reverse alphabetical order (z - a). The task will automatically advance to the next screen after two minutes.",,Filler2,120002,"Wyoming Wisconsin West Virginia Washington Virginia Utah Texas Tennessee South Dakota South Carolina Rhode Island Pennsylvania Oregon Oklahoma Ohio North Dakota North Carolina New York New Mexico New Jersey New Hampshire Nevada Nebraska Montana Missouri Mississippi Michigan Massachusetts Maryland Maine ",0,5270,118651,0,0,,,1
w10003302_MPR,12ioc9hvpw,Trevor_EX2,1,154,2020-11-02T19:22:06-08:00,11.441669940948,1,Pure_Unrelated.csv,SF_VersionA.csv,"Sans F A","Sans F A",,,,,,0,Instruct,-,10,"You will now be presented with the first word from each of the previously studied item pairs. Please type the missing word. If you do not know the word, you may guess or press Enter to skip forward to the next pair.",,Instruct6,11077,,,-1,-1,,,,,1
w10003302_MPR,12ioc9hvpw,Trevor_EX2,1,155,2020-11-02T19:22:09-08:00,3.0052728652954,1,Pure_Unrelated.csv,SF_VersionA.csv,"Sans F A","Sans F A",Business,Death,Study2,U,102,94,Test,User,-,,Recall,Recall2,2709,Death,100,2026,2564,1,1,,,1
w10003302_MPR,12ioc9hvpw,Trevor_EX2,1,156,2020-11-02T19:22:12-08:00,2.4586842060089,1,Pure_Unrelated.csv,SF_VersionA.csv,"Sans F A","Sans F A",VASE,KING,Study2,U,115,91,Test,User,-,,Recall,Recall2,2232,King,100,1561,1956,1,1,,,1
w10003302_MPR,12ioc9hvpw,Trevor_EX2,1,157,2020-11-02T19:22:14-08:00,2.79816198349,1,Pure_Unrelated.csv,SF_VersionA.csv,"Sans F A","Sans F A",ADD,VALLEY,Study2,U,112,92,Test,User,-,,Recall,Recall2,2560,subtract,14.285714285714,1182,2409,0,0,,,1
w10003302_MPR,12ioc9hvpw,Trevor_EX2,1,158,2020-11-02T19:22:16-08:00,2.0071020126343,1,Pure_Unrelated.csv,SF_VersionA.csv,"Sans F A","Sans F A",NULL,COUGH,Study2,U,156,90,Test,User,-,,Recall,Recall2,1775,void,22.222222222222,1285,1673,0,0,,,1
w10003302_MPR,12ioc9hvpw,Trevor_EX2,1,159,2020-11-02T19:22:18-08:00,1.7332019805908,1,Pure_Unrelated.csv,SF_VersionA.csv,"Sans F A","Sans F A",WOMAN,LIFT,Study2,U,99,72,Test,User,-,,Recall,Recall2,1500,lift,100,1024,1403,1,1,,,1
w10003302_MPR,12ioc9hvpw,Trevor_EX2,1,160,2020-11-02T19:22:21-08:00,2.6351099014282,1,Pure_Unrelated.csv,SF_VersionA.csv,"Sans F A","Sans F A",SIGHT,DEBATE,Study2,U,103,57,Test,User,-,,Recall,Recall2,2404,flight,16.666666666667,1310,2169,0,0,,,1
w10003302_MPR,12ioc9hvpw,Trevor_EX2,1,161,2020-11-02T19:22:23-08:00,2.5481810569763,1,Pure_Unrelated.csv,SF_VersionA.csv,"Sans F A","Sans F A",PUFF,NUMBER,Study2,U,171,61,Test,User,-,,Recall,Recall2,2307,stuf,20,1468,2133,0,0,,,1
w10003302_MPR,12ioc9hvpw,Trevor_EX2,1,162,2020-11-02T19:22:26-08:00,2.3450808525085,1,Pure_Unrelated.csv,SF_VersionA.csv,"Sans F A","Sans F A",BELT,SOON,Study2,U,100,89,Test,User,-,,Recall,Recall2,2106,,0,-1,-1,0,0,,,1
w10003302_MPR,12ioc9hvpw,Trevor_EX2,1,163,2020-11-02T19:22:29-08:00,2.9542491436005,1,Pure_Unrelated.csv,SF_VersionA.csv,"Sans F A","Sans F A",LION,ART,Study2,U,109,62,Test,User,-,,Recall,Recall2,2723,ate,66.666666666667,2266,2502,0,0,,,1
w10003302_MPR,12ioc9hvpw,Trevor_EX2,1,164,2020-11-02T19:22:30-08:00,1.6006870269775,1,Pure_Unrelated.csv,SF_VersionA.csv,"Sans F A","Sans F A",HAND,FIX,Study2,U,105,86,Test,User,-,,Recall,Recall2,1364,,0,-1,-1,0,0,,,1
w10003302_MPR,12ioc9hvpw,Trevor_EX2,1,165,2020-11-02T19:22:34-08:00,3.4294698238373,1,Pure_Unrelated.csv,SF_VersionA.csv,"Sans F A","Sans F A",BRONZE,ARTERY,Study2,U,104,84,Test,User,-,,Recall,Recall2,3169,age,44.444444444444,2632,2925,0,0,,,1
w10003302_MPR,12ioc9hvpw,Trevor_EX2,1,166,2020-11-02T19:22:37-08:00,3.146210193634,1,Pure_Unrelated.csv,SF_VersionA.csv,"Sans F A","Sans F A",MUTE,WAVE,Study2,U,173,67,Test,User,-,,Recall,Recall2,2913,noise,22.222222222222,2257,2742,0,0,,,1
w10003302_MPR,12ioc9hvpw,Trevor_EX2,1,167,2020-11-02T19:22:42-08:00,5.2837059497833,1,Pure_Unrelated.csv,SF_VersionA.csv,"Sans F A","Sans F A",STOMACH,TOWN,Study2,U,159,96,Test,User,-,,Recall,Recall2,5046,desire,0,1711,4691,0,0,,,1
w10003302_MPR,12ioc9hvpw,Trevor_EX2,1,168,2020-11-02T19:22:45-08:00,3.3201420307159,1,Pure_Unrelated.csv,SF_VersionA.csv,"Sans F A","Sans F A",SMOOTH,OMIT,Study2,U,157,78,Test,User,-,,Recall,Recall2,3048,king,25,2228,2904,0,0,,,1
w10003302_MPR,12ioc9hvpw,Trevor_EX2,1,169,2020-11-02T19:22:50-08:00,4.2947590351105,1,Pure_Unrelated.csv,SF_VersionA.csv,"Sans F A","Sans F A",SLIM,KNOW,Study2,U,164,79,Test,User,-,,Recall,Recall2,4059,thought,18.181818181818,1664,2743,0,0,,,1
w10003302_MPR,12ioc9hvpw,Trevor_EX2,1,170,2020-11-02T19:22:54-08:00,4.171541929245,1,Pure_Unrelated.csv,SF_VersionA.csv,"Sans F A","Sans F A",SICK,HIDE,Study2,U,114,63,Test,User,-,,Recall,Recall2,3936,,0,-1,-1,0,0,,,1
w10003302_MPR,12ioc9hvpw,Trevor_EX2,1,171,2020-11-02T19:22:56-08:00,2.6438438892365,1,Pure_Unrelated.csv,SF_VersionA.csv,"Sans F A","Sans F A",SACKING,DIETARY,Study2,U,97,95,Test,User,-,,Recall,Recall2,2377,packing,14.285714285714,1441,2239,0,0,,,1
w10003302_MPR,12ioc9hvpw,Trevor_EX2,1,172,2020-11-02T19:23:01-08:00,4.4687261581421,1,Pure_Unrelated.csv,SF_VersionA.csv,"Sans F A","Sans F A",ZOO,THUMB,Study2,U,168,73,Test,User,-,,Recall,Recall2,4208,boo,25,3682,4014,0,0,,,1
w10003302_MPR,12ioc9hvpw,Trevor_EX2,1,173,2020-11-02T19:23:03-08:00,2.5396149158478,1,Pure_Unrelated.csv,SF_VersionA.csv,"Sans F A","Sans F A",WOULD,CASH,Study2,U,113,69,Test,User,-,,Recall,Recall2,2287,should,40,1324,1914,0,0,,,1
w10003302_MPR,12ioc9hvpw,Trevor_EX2,1,174,2020-11-02T19:23:06-08:00,2.2309501171112,1,Pure_Unrelated.csv,SF_VersionA.csv,"Sans F A","Sans F A",TUCK,ALLOW,Study2,U,108,81,Test,User,-,,Recall,Recall2,1963,allow,100,1267,1804,1,1,,,1
w10003302_MPR,12ioc9hvpw,Trevor_EX2,1,175,2020-11-02T19:23:07-08:00,1.7349078655243,1,Pure_Unrelated.csv,SF_VersionA.csv,"Sans F A","Sans F A",LAKE,OPINION,Study2,U,160,87,Test,User,-,,Recall,Recall2,1497,,0,-1,-1,0,0,,,1
w10003302_MPR,12ioc9hvpw,Trevor_EX2,1,176,2020-11-02T19:23:10-08:00,2.2032220363617,1,Pure_Unrelated.csv,SF_VersionA.csv,"Sans F A","Sans F A",FLOOR,DISCOVER,Study2,U,101,60,Test,User,-,,Recall,Recall2,1960,door,50,1411,1847,0,0,,,1
w10003302_MPR,12ioc9hvpw,Trevor_EX2,1,177,2020-11-02T19:23:12-08:00,1.9172439575195,1,Pure_Unrelated.csv,SF_VersionA.csv,"Sans F A","Sans F A",SPELL,BONE,Study2,U,174,65,Test,User,-,,Recall,Recall2,1666,,0,-1,-1,0,0,,,1
w10003302_MPR,12ioc9hvpw,Trevor_EX2,1,178,2020-11-02T19:23:13-08:00,1.4174239635468,1,Pure_Unrelated.csv,SF_VersionA.csv,"Sans F A","Sans F A",PUT,ROLL,Study2,U,163,93,Test,User,-,,Recall,Recall2,1192,,0,-1,-1,0,0,,,1
w10003302_MPR,12ioc9hvpw,Trevor_EX2,1,179,2020-11-02T19:23:15-08:00,1.6629321575165,1,Pure_Unrelated.csv,SF_VersionA.csv,"Sans F A","Sans F A",GUARD,WHEEL,Study2,U,170,82,Test,User,-,,Recall,Recall2,1436,,0,-1,-1,0,0,,,1
w10003302_MPR,12ioc9hvpw,Trevor_EX2,1,180,2020-11-02T19:23:17-08:00,2.7306268215179,1,Pure_Unrelated.csv,SF_VersionA.csv,"Sans F A","Sans F A",HUNGRY,PARK,Study2,U,98,76,Test,User,-,,Recall,Recall2,2474,desire,20,1490,2159,0,0,,,1
w10003302_MPR,12ioc9hvpw,Trevor_EX2,1,181,2020-11-02T19:23:19-08:00,1.3701031208038,1,Pure_Unrelated.csv,SF_VersionA.csv,"Sans F A","Sans F A",DETECT,FREE,Study2,U,162,70,Test,User,-,,Recall,Recall2,1101,,0,-1,-1,0,0,,,1
w10003302_MPR,12ioc9hvpw,Trevor_EX2,1,182,2020-11-02T19:23:21-08:00,2.177885055542,1,Pure_Unrelated.csv,SF_VersionA.csv,"Sans F A","Sans F A",CLUTTER,PUSHER,Study2,U,96,75,Test,User,-,,Recall,Recall2,1944,,0,-1,-1,0,0,,,1
w10003302_MPR,12ioc9hvpw,Trevor_EX2,1,183,2020-11-02T19:23:26-08:00,4.6397588253021,1,Pure_Unrelated.csv,SF_VersionA.csv,"Sans F A","Sans F A",READY,CORN,Study2,U,158,74,Test,User,-,,Recall,Recall2,4411,,0,-1,-1,0,0,,,1
w10003302_MPR,12ioc9hvpw,Trevor_EX2,1,184,2020-11-02T19:23:28-08:00,2.6359050273895,1,Pure_Unrelated.csv,SF_VersionA.csv,"Sans F A","Sans F A",DESIRE,NOISE,Study2,U,169,80,Test,User,-,,Recall,Recall2,2364,stomach,16.666666666667,1299,2194,0,0,,,1
w10003302_MPR,12ioc9hvpw,Trevor_EX2,1,185,2020-11-02T19:23:30-08:00,2.171177148819,1,Pure_Unrelated.csv,SF_VersionA.csv,"Sans F A","Sans F A",FLOAT,HARMONY,Study2,U,161,71,Test,User,-,,Recall,Recall2,1923,,0,-1,-1,0,0,,,1
w10003302_MPR,12ioc9hvpw,Trevor_EX2,1,186,2020-11-02T19:23:36-08:00,5.792603969574,1,Pure_Unrelated.csv,SF_VersionA.csv,"Sans F A","Sans F A",WASTE,SEDATE,Study2,U,165,59,Test,User,-,,Recall,Recall2,5547,taste,54.545454545455,3226,5384,0,0,,,1
w10003302_MPR,12ioc9hvpw,Trevor_EX2,1,187,2020-11-02T19:23:39-08:00,2.6001420021057,1,Pure_Unrelated.csv,SF_VersionA.csv,"Sans F A","Sans F A",RIDDLE,SUGAR,Study2,U,111,66,Test,User,-,,Recall,Recall2,2332,,0,-1,-1,0,0,,,1
w10003302_MPR,12ioc9hvpw,Trevor_EX2,1,188,2020-11-02T19:23:44-08:00,5.1859078407288,1,Pure_Unrelated.csv,SF_VersionA.csv,"Sans F A","Sans F A",SYSTEM,LICK,Study2,U,167,83,Test,User,-,,Recall,Recall2,4928,misuse,20,3790,4542,0,0,,,1
w10003302_MPR,12ioc9hvpw,Trevor_EX2,1,189,2020-11-02T19:23:48-08:00,4.2211771011353,1,Pure_Unrelated.csv,SF_VersionA.csv,"Sans F A","Sans F A",ROAD,SCENT,Study2,U,166,85,Test,User,-,,Recall,Recall2,3984,silence,50,2442,3759,0,0,,,1
w10003302_MPR,12ioc9hvpw,Trevor_EX2,1,190,2020-11-02T19:23:50-08:00,2.2492740154266,1,Pure_Unrelated.csv,SF_VersionA.csv,"Sans F A","Sans F A",CAR,HAPPY,Study2,U,107,68,Test,User,-,,Recall,Recall2,1983,happy,100,1250,1800,1,1,,,1
w10003302_MPR,12ioc9hvpw,Trevor_EX2,1,191,2020-11-02T19:23:53-08:00,2.7125070095062,1,Pure_Unrelated.csv,SF_VersionA.csv,"Sans F A","Sans F A",JELLY,NAUGHTY,Study2,U,172,88,Test,User,-,,Recall,Recall2,2484,naughty,100,1295,2216,1,1,,,1
w10003302_MPR,12ioc9hvpw,Trevor_EX2,1,192,2020-11-02T19:23:55-08:00,1.6879699230194,1,Pure_Unrelated.csv,SF_VersionA.csv,"Sans F A","Sans F A",ACCIDENT,STRONG,Study2,U,110,64,Test,User,-,,Recall,Recall2,1459,,0,-1,-1,0,0,,,1
w10003302_MPR,12ioc9hvpw,Trevor_EX2,1,193,2020-11-02T19:23:57-08:00,2.0693421363831,1,Pure_Unrelated.csv,SF_VersionA.csv,"Sans F A","Sans F A",WASTE,SEDATE,Study2,U,165,59,Test,User,-,,Recall,Recall2,1810,taste,54.545454545455,1119,1644,0,0,,,1
w10003302_MPR,12ioc9hvpw,Trevor_EX2,1,194,2020-11-02T19:24:00-08:00,2.819995880127,1,Pure_Unrelated.csv,SF_VersionA.csv,"Sans F A","Sans F A",SWING,FOG,Study2,U,175,77,Test,User,-,,Recall,Recall2,2518,bluff,25,1661,2375,0,0,,,1
w10003302_MPR,12ioc9hvpw,Trevor_EX2,1,195,2020-11-02T19:24:01-08:00,1.3211770057678,1,Pure_Unrelated.csv,SF_VersionA.csv,"Sans F A","Sans F A",,,,,,0,Instruct,User,-,"You have completed this section. Please press Enter.",,Instruct7,1090,,,-1,-1,,,,,1
w10003302_MPR,12ioc9hvpw,Trevor_EX2,1,196,2020-11-02T19:24:03-08:00,2.1608381271362,1,Pure_Unrelated.csv,SF_VersionA.csv,"Sans F A","Sans F A",,,,,,0,Instruct,User,-,"The following screen will ask you a few questions abour your experience today. You must complete these questions to receive credit.",,Instruct8,1926,,,-1,-1,,,,,1
