Username,ID,ExperimentName,Session,Trial,Date,TimeDif,"Condition Number","Stimuli File","Order File","Condition Description","Condition Notes",Stimuli*Cue,Stimuli*Answer,Stimuli*Shuffle,"Stimuli*Stimuli Notes",Stimuli*Value,Procedure*Item,"Procedure*Trial Type","Procedure*Max Time","Procedure*Min Time",Procedure*Text,"Procedure*Procedure Notes",Procedure*Shuffle,Response*RT,Response*Response,Response*Accuracy,Response*RTfirst,Response*RTlast,Response*strictAcc,Response*lenientAcc,Response*focus,Response*JOL,Response*Focus
5efe59519563aa3504e9966a,v8rw02xk2q,Trevor_EX2,1,1,2020-10-23T14:50:11-07:00,6.3067669868469,2,Pure_Unrelated.csv,SF_VersionB.csv,"Sans F B","Sans F B",,,,,,0,Instruct,-,5,"In this section, you will be presented with a series of word pairs.",Initial_Instruct,Instruct1,5955,,,-1,-1,,,,,1
5efe59519563aa3504e9966a,v8rw02xk2q,Trevor_EX2,1,2,2020-10-23T14:50:18-07:00,7.1939640045166,2,Pure_Unrelated.csv,SF_VersionB.csv,"Sans F B","Sans F B",,,,,,0,Instruct,-,5,"As you study, you will be asked to rate your ability to remember the second item in the pair if you were only shown the first at test. You will make these ratings using a 0 to 100 Scale.",,Instruct13,5784,,,-1,-1,,,,,1
5efe59519563aa3504e9966a,v8rw02xk2q,Trevor_EX2,1,3,2020-10-23T14:50:31-07:00,13.037192106247,2,Pure_Unrelated.csv,SF_VersionB.csv,"Sans F B","Sans F B",,,,,,0,Instruct,-,10,"For example, if you are given the pair CAT - DOG, a rating of 0 indicates that you would not remember DOG at test, while a rating of 100 indicates full certainty that you would remember the word DOG at test.",,Instruct14,12642,,,-1,-1,,,,,1
5efe59519563aa3504e9966a,v8rw02xk2q,Trevor_EX2,1,4,2020-10-23T14:50:44-07:00,12.591789007187,2,Pure_Unrelated.csv,SF_VersionB.csv,"Sans F B","Sans F B",,,,,,0,Instruct,-,10,"When making your ratings, it is criticial that you use the full range of the scale. You will be disqualified for only giving ratings of 0 or 100! After making your rating, press Enter to advance to the next pair.",,Instruct15,12014,,,-1,-1,,,,,1
5efe59519563aa3504e9966a,v8rw02xk2q,Trevor_EX2,1,5,2020-10-23T14:50:47-07:00,3.3771419525146,2,Pure_Unrelated.csv,SF_VersionB.csv,"Sans F B","Sans F B",,,,,,0,Instruct,User,-,"You will now begin the study. Press Enter when you are ready to begin.",,Instruct16,2791,,,-1,-1,,,,,1
5efe59519563aa3504e9966a,v8rw02xk2q,Trevor_EX2,1,6,2020-10-23T14:50:55-07:00,7.6383590698242,2,Pure_Unrelated.csv,SF_VersionB.csv,"Sans F B","Sans F B",CARROT,POTATO,BUFFER3,Buffer,91,55,JOL_SF,User,-,"How likely are you to correctly recall the second item in the pair?|Type your response on a scale from 0-100 and then press Enter.",Study/JOL,BUFFER,7092,,,6543,6771,,,,75,1
5efe59519563aa3504e9966a,v8rw02xk2q,Trevor_EX2,1,7,2020-10-23T14:51:00-07:00,4.8894629478455,2,Pure_Unrelated.csv,SF_VersionB.csv,"Sans F B","Sans F B",CAMP,ADVENTURE,BUFFER3,Buffer,95,53,JOL,User,-,"How likely are you to correctly recall the second item in the pair?|Type your response on a scale from 0-100 and then press Enter.",Study/JOL,BUFFER,4517,,,1614,4180,,,,80,1
5efe59519563aa3504e9966a,v8rw02xk2q,Trevor_EX2,1,8,2020-10-23T14:51:03-07:00,3.3831639289856,2,Pure_Unrelated.csv,SF_VersionB.csv,"Sans F B","Sans F B",NOODLE,STRING,BUFFER3,Buffer,92,52,JOL,User,-,"How likely are you to correctly recall the second item in the pair?|Type your response on a scale from 0-100 and then press Enter.",Study/JOL,BUFFER,2810,,,1402,2385,,,,76,1
5efe59519563aa3504e9966a,v8rw02xk2q,Trevor_EX2,1,9,2020-10-23T14:51:07-07:00,3.6282651424408,2,Pure_Unrelated.csv,SF_VersionB.csv,"Sans F B","Sans F B",ICE,FROZEN,BUFFER3,Buffer,94,56,JOL_SF,User,-,"How likely are you to correctly recall the second item in the pair?|Type your response on a scale from 0-100 and then press Enter.",Study/JOL,BUFFER,3239,,,2336,2879,,,,100,1
5efe59519563aa3504e9966a,v8rw02xk2q,Trevor_EX2,1,10,2020-10-23T14:51:10-07:00,3.3323769569397,2,Pure_Unrelated.csv,SF_VersionB.csv,"Sans F B","Sans F B",SHRIMP,FISH,BUFFER3,Buffer,93,54,JOL,User,-,"How likely are you to correctly recall the second item in the pair?|Type your response on a scale from 0-100 and then press Enter.",Study/JOL,BUFFER,2962,,,2148,2521,,,,85,1
5efe59519563aa3504e9966a,v8rw02xk2q,Trevor_EX2,1,11,2020-10-23T14:51:15-07:00,5.3213310241699,2,Pure_Unrelated.csv,SF_VersionB.csv,"Sans F B","Sans F B",WASTE,SEDATE,Study2,U,165,78,JOL_SF,User,-,"How likely are you to correctly recall the second item in the pair?|Type your response on a scale from 0-100 and then press Enter.",Study/JOL,"Study Phase",4926,,,1815,4701,,,,25,1
5efe59519563aa3504e9966a,v8rw02xk2q,Trevor_EX2,1,12,2020-10-23T14:51:20-07:00,4.8327629566193,2,Pure_Unrelated.csv,SF_VersionB.csv,"Sans F B","Sans F B",CLUTTER,PUSHER,Study2,U,96,65,JOL,User,-,"How likely are you to correctly recall the second item in the pair?|Type your response on a scale from 0-100 and then press Enter.",Study/JOL,"Study Phase",4450,,,2139,4169,,,,45,1
5efe59519563aa3504e9966a,v8rw02xk2q,Trevor_EX2,1,13,2020-10-23T14:51:23-07:00,2.8677299022675,2,Pure_Unrelated.csv,SF_VersionB.csv,"Sans F B","Sans F B",SYSTEM,LICK,Study2,U,167,81,JOL_SF,User,-,"How likely are you to correctly recall the second item in the pair?|Type your response on a scale from 0-100 and then press Enter.",Study/JOL,"Study Phase",2491,,,1731,2162,,,,35,1
5efe59519563aa3504e9966a,v8rw02xk2q,Trevor_EX2,1,14,2020-10-23T14:51:28-07:00,5.1899349689484,2,Pure_Unrelated.csv,SF_VersionB.csv,"Sans F B","Sans F B",WOULD,CASH,Study2,U,113,76,JOL,User,-,"How likely are you to correctly recall the second item in the pair?|Type your response on a scale from 0-100 and then press Enter.",Study/JOL,"Study Phase",4807,,,3153,4039,,,,40,1
5efe59519563aa3504e9966a,v8rw02xk2q,Trevor_EX2,1,15,2020-10-23T14:52:00-07:00,32.316699981689,2,Pure_Unrelated.csv,SF_VersionB.csv,"Sans F B","Sans F B",HAND,FIX,Study2,U,105,69,JOL,User,-,"How likely are you to correctly recall the second item in the pair?|Type your response on a scale from 0-100 and then press Enter.",Study/JOL,"Study Phase",30909,,,1159,1965,,,,40,1
5efe59519563aa3504e9966a,v8rw02xk2q,Trevor_EX2,1,16,2020-10-23T14:52:15-07:00,14.635097026825,2,Pure_Unrelated.csv,SF_VersionB.csv,"Sans F B","Sans F B",BRONZE,ARTERY,Study2,U,104,60,JOL,User,-,"How likely are you to correctly recall the second item in the pair?|Type your response on a scale from 0-100 and then press Enter.",Study/JOL,"Study Phase",13974,,,13360,13620,,,,35,1
5efe59519563aa3504e9966a,v8rw02xk2q,Trevor_EX2,1,17,2020-10-23T14:52:18-07:00,2.9487030506134,2,Pure_Unrelated.csv,SF_VersionB.csv,"Sans F B","Sans F B",BELT,SOON,Study2,U,100,86,JOL_SF,User,-,"How likely are you to correctly recall the second item in the pair?|Type your response on a scale from 0-100 and then press Enter.",Study/JOL,"Study Phase",2353,,,1666,2119,,,,35,1
5efe59519563aa3504e9966a,v8rw02xk2q,Trevor_EX2,1,18,2020-10-23T14:52:20-07:00,2.1235980987549,2,Pure_Unrelated.csv,SF_VersionB.csv,"Sans F B","Sans F B",GUARD,WHEEL,Study2,U,170,68,JOL,User,-,"How likely are you to correctly recall the second item in the pair?|Type your response on a scale from 0-100 and then press Enter.",Study/JOL,"Study Phase",1722,,,907,1314,,,,50,1
5efe59519563aa3504e9966a,v8rw02xk2q,Trevor_EX2,1,19,2020-10-23T14:52:35-07:00,14.393546819687,2,Pure_Unrelated.csv,SF_VersionB.csv,"Sans F B","Sans F B",LAKE,OPINION,Study2,U,160,93,JOL_SF,User,-,"How likely are you to correctly recall the second item in the pair?|Type your response on a scale from 0-100 and then press Enter.",Study/JOL,"Study Phase",13992,,,13282,13799,,,,20,1
5efe59519563aa3504e9966a,v8rw02xk2q,Trevor_EX2,1,20,2020-10-23T14:53:00-07:00,25.493874073029,2,Pure_Unrelated.csv,SF_VersionB.csv,"Sans F B","Sans F B",HUNGRY,PARK,Study2,U,98,84,JOL_SF,User,-,"How likely are you to correctly recall the second item in the pair?|Type your response on a scale from 0-100 and then press Enter.",Study/JOL,"Study Phase",25091,,,23412,24058,,,,40,1
5efe59519563aa3504e9966a,v8rw02xk2q,Trevor_EX2,1,21,2020-10-23T14:53:03-07:00,2.8840589523315,2,Pure_Unrelated.csv,SF_VersionB.csv,"Sans F B","Sans F B",WOMAN,LIFT,Study2,U,99,95,JOL_SF,User,-,"How likely are you to correctly recall the second item in the pair?|Type your response on a scale from 0-100 and then press Enter.",Study/JOL,"Study Phase",2215,,,1119,1597,,,,40,1
5efe59519563aa3504e9966a,v8rw02xk2q,Trevor_EX2,1,22,2020-10-23T14:53:05-07:00,2.1965320110321,2,Pure_Unrelated.csv,SF_VersionB.csv,"Sans F B","Sans F B",RIDDLE,SUGAR,Study2,U,111,73,JOL,User,-,"How likely are you to correctly recall the second item in the pair?|Type your response on a scale from 0-100 and then press Enter.",Study/JOL,"Study Phase",1737,,,914,1376,,,,40,1
5efe59519563aa3504e9966a,v8rw02xk2q,Trevor_EX2,1,23,2020-10-23T14:53:07-07:00,2.1685321331024,2,Pure_Unrelated.csv,SF_VersionB.csv,"Sans F B","Sans F B",SPELL,BONE,Study2,U,174,82,JOL_SF,User,-,"How likely are you to correctly recall the second item in the pair?|Type your response on a scale from 0-100 and then press Enter.",Study/JOL,"Study Phase",1781,,,926,1325,,,,50,1
5efe59519563aa3504e9966a,v8rw02xk2q,Trevor_EX2,1,24,2020-10-23T14:53:09-07:00,2.1934080123901,2,Pure_Unrelated.csv,SF_VersionB.csv,"Sans F B","Sans F B",SWING,FOG,Study2,U,175,79,JOL_SF,User,-,"How likely are you to correctly recall the second item in the pair?|Type your response on a scale from 0-100 and then press Enter.",Study/JOL,"Study Phase",1789,,,748,1204,,,,40,1
5efe59519563aa3504e9966a,v8rw02xk2q,Trevor_EX2,1,25,2020-10-23T14:53:14-07:00,4.0750358104706,2,Pure_Unrelated.csv,SF_VersionB.csv,"Sans F B","Sans F B",SLIM,KNOW,Study2,U,164,80,JOL_SF,User,-,"How likely are you to correctly recall the second item in the pair?|Type your response on a scale from 0-100 and then press Enter.",Study/JOL,"Study Phase",3697,,,1801,3480,,,,15,1
5efe59519563aa3504e9966a,v8rw02xk2q,Trevor_EX2,1,26,2020-10-23T14:53:17-07:00,3.5151181221008,2,Pure_Unrelated.csv,SF_VersionB.csv,"Sans F B","Sans F B",ROAD,SCENT,Study2,U,166,94,JOL_SF,User,-,"How likely are you to correctly recall the second item in the pair?|Type your response on a scale from 0-100 and then press Enter.",Study/JOL,"Study Phase",3141,,,2302,2956,,,,35,1
5efe59519563aa3504e9966a,v8rw02xk2q,Trevor_EX2,1,27,2020-10-23T14:53:38-07:00,21.120460987091,2,Pure_Unrelated.csv,SF_VersionB.csv,"Sans F B","Sans F B",SICK,HIDE,Study2,U,114,85,JOL_SF,User,-,"How likely are you to correctly recall the second item in the pair?|Type your response on a scale from 0-100 and then press Enter.",Study/JOL,"Study Phase",20736,,,19802,20071,,,,45,0.595
5efe59519563aa3504e9966a,v8rw02xk2q,Trevor_EX2,1,28,2020-10-23T14:53:40-07:00,1.9315459728241,2,Pure_Unrelated.csv,SF_VersionB.csv,"Sans F B","Sans F B",FLOAT,HARMONY,Study2,U,161,75,JOL,User,-,"How likely are you to correctly recall the second item in the pair?|Type your response on a scale from 0-100 and then press Enter.",Study/JOL,"Study Phase",1320,,,790,958,,,,45,1
5efe59519563aa3504e9966a,v8rw02xk2q,Trevor_EX2,1,29,2020-10-23T14:53:43-07:00,2.9879341125488,2,Pure_Unrelated.csv,SF_VersionB.csv,"Sans F B","Sans F B",Business,Death,Study2,U,102,88,JOL_SF,User,-,"How likely are you to correctly recall the second item in the pair?|Type your response on a scale from 0-100 and then press Enter.",Study/JOL,"Study Phase",2583,,,1176,1751,,,,39,1
5efe59519563aa3504e9966a,v8rw02xk2q,Trevor_EX2,1,30,2020-10-23T14:53:53-07:00,9.4799339771271,2,Pure_Unrelated.csv,SF_VersionB.csv,"Sans F B","Sans F B",FLOOR,DISCOVER,Study2,U,101,87,JOL_SF,User,-,"How likely are you to correctly recall the second item in the pair?|Type your response on a scale from 0-100 and then press Enter.",Study/JOL,"Study Phase",9081,,,7810,8560,,,,34,0.682
5efe59519563aa3504e9966a,v8rw02xk2q,Trevor_EX2,1,31,2020-10-23T14:53:55-07:00,2.335834980011,2,Pure_Unrelated.csv,SF_VersionB.csv,"Sans F B","Sans F B",VASE,KING,Study2,U,115,71,JOL,User,-,"How likely are you to correctly recall the second item in the pair?|Type your response on a scale from 0-100 and then press Enter.",Study/JOL,"Study Phase",1921,,,1248,1648,,,,35,1
5efe59519563aa3504e9966a,v8rw02xk2q,Trevor_EX2,1,32,2020-10-23T14:53:58-07:00,2.6978349685669,2,Pure_Unrelated.csv,SF_VersionB.csv,"Sans F B","Sans F B",SMOOTH,OMIT,Study2,U,157,90,JOL_SF,User,-,"How likely are you to correctly recall the second item in the pair?|Type your response on a scale from 0-100 and then press Enter.",Study/JOL,"Study Phase",2282,,,1572,1802,,,,35,1
5efe59519563aa3504e9966a,v8rw02xk2q,Trevor_EX2,1,33,2020-10-23T14:54:00-07:00,2.3258290290833,2,Pure_Unrelated.csv,SF_VersionB.csv,"Sans F B","Sans F B",STOMACH,TOWN,Study2,U,159,74,JOL,User,-,"How likely are you to correctly recall the second item in the pair?|Type your response on a scale from 0-100 and then press Enter.",Study/JOL,"Study Phase",1920,,,1000,1478,,,,40,1
5efe59519563aa3504e9966a,v8rw02xk2q,Trevor_EX2,1,34,2020-10-23T14:54:07-07:00,6.5443818569183,2,Pure_Unrelated.csv,SF_VersionB.csv,"Sans F B","Sans F B",NULL,COUGH,Study2,U,156,67,JOL,User,-,"How likely are you to correctly recall the second item in the pair?|Type your response on a scale from 0-100 and then press Enter.",Study/JOL,"Study Phase",6106,,,5307,5785,,,,40,1
5efe59519563aa3504e9966a,v8rw02xk2q,Trevor_EX2,1,35,2020-10-23T14:54:09-07:00,2.9145200252533,2,Pure_Unrelated.csv,SF_VersionB.csv,"Sans F B","Sans F B",SIGHT,DEBATE,Study2,U,103,57,JOL,User,-,"How likely are you to correctly recall the second item in the pair?|Type your response on a scale from 0-100 and then press Enter.",Study/JOL,"Study Phase",2507,,,1716,2059,,,,60,1
5efe59519563aa3504e9966a,v8rw02xk2q,Trevor_EX2,1,36,2020-10-23T14:54:12-07:00,2.6870529651642,2,Pure_Unrelated.csv,SF_VersionB.csv,"Sans F B","Sans F B",ACCIDENT,STRONG,Study2,U,110,89,JOL_SF,User,-,"How likely are you to correctly recall the second item in the pair?|Type your response on a scale from 0-100 and then press Enter.",Study/JOL,"Study Phase",2297,,,1778,2113,,,,60,1
5efe59519563aa3504e9966a,v8rw02xk2q,Trevor_EX2,1,37,2020-10-23T14:54:17-07:00,4.5789639949799,2,Pure_Unrelated.csv,SF_VersionB.csv,"Sans F B","Sans F B",DETECT,FREE,Study2,U,162,70,JOL,User,-,"How likely are you to correctly recall the second item in the pair?|Type your response on a scale from 0-100 and then press Enter.",Study/JOL,"Study Phase",4196,,,1773,3875,,,,43,1
5efe59519563aa3504e9966a,v8rw02xk2q,Trevor_EX2,1,38,2020-10-23T14:54:51-07:00,34.539001226425,2,Pure_Unrelated.csv,SF_VersionB.csv,"Sans F B","Sans F B",ADD,VALLEY,Study2,U,112,59,JOL,User,-,"How likely are you to correctly recall the second item in the pair?|Type your response on a scale from 0-100 and then press Enter.",Study/JOL,"Study Phase",34133,,,1015,1261,,,,43,0.354
5efe59519563aa3504e9966a,v8rw02xk2q,Trevor_EX2,1,39,2020-10-23T14:54:55-07:00,3.7942209243774,2,Pure_Unrelated.csv,SF_VersionB.csv,"Sans F B","Sans F B",PUT,ROLL,Study2,U,163,92,JOL_SF,User,-,"How likely are you to correctly recall the second item in the pair?|Type your response on a scale from 0-100 and then press Enter.",Study/JOL,"Study Phase",3351,,,2632,3070,,,,40,1
5efe59519563aa3504e9966a,v8rw02xk2q,Trevor_EX2,1,40,2020-10-23T14:55:00-07:00,5.3590588569641,2,Pure_Unrelated.csv,SF_VersionB.csv,"Sans F B","Sans F B",ADD,VALLEY,Study2,U,112,59,JOL,User,-,"How likely are you to correctly recall the second item in the pair?|Type your response on a scale from 0-100 and then press Enter.",Study/JOL,"Study Phase",4957,,,1101,4772,,,,70,1
5efe59519563aa3504e9966a,v8rw02xk2q,Trevor_EX2,1,41,2020-10-23T14:55:03-07:00,2.2788150310516,2,Pure_Unrelated.csv,SF_VersionB.csv,"Sans F B","Sans F B",CAR,HAPPY,Study2,U,107,62,JOL,User,-,"How likely are you to correctly recall the second item in the pair?|Type your response on a scale from 0-100 and then press Enter.",Study/JOL,"Study Phase",1891,,,1227,1658,,,,70,1
5efe59519563aa3504e9966a,v8rw02xk2q,Trevor_EX2,1,42,2020-10-23T14:55:06-07:00,3.6334991455078,2,Pure_Unrelated.csv,SF_VersionB.csv,"Sans F B","Sans F B",READY,CORN,Study2,U,158,72,JOL,User,-,"How likely are you to correctly recall the second item in the pair?|Type your response on a scale from 0-100 and then press Enter.",Study/JOL,"Study Phase",2246,,,1774,1964,,,,30,1
5efe59519563aa3504e9966a,v8rw02xk2q,Trevor_EX2,1,43,2020-10-23T14:55:08-07:00,2.1101069450378,2,Pure_Unrelated.csv,SF_VersionB.csv,"Sans F B","Sans F B",TUCK,ALLOW,Study2,U,108,91,JOL_SF,User,-,"How likely are you to correctly recall the second item in the pair?|Type your response on a scale from 0-100 and then press Enter.",Study/JOL,"Study Phase",1713,,,1409,1471,,,,50,1
5efe59519563aa3504e9966a,v8rw02xk2q,Trevor_EX2,1,44,2020-10-23T14:55:13-07:00,4.102942943573,2,Pure_Unrelated.csv,SF_VersionB.csv,"Sans F B","Sans F B",DESIRE,NOISE,Study2,U,169,61,JOL,User,-,"How likely are you to correctly recall the second item in the pair?|Type your response on a scale from 0-100 and then press Enter.",Study/JOL,"Study Phase",3651,,,1851,2762,,,,50,1
5efe59519563aa3504e9966a,v8rw02xk2q,Trevor_EX2,1,45,2020-10-23T14:55:16-07:00,3.3333611488342,2,Pure_Unrelated.csv,SF_VersionB.csv,"Sans F B","Sans F B",PUFF,NUMBER,Study2,U,171,77,JOL_SF,User,-,"How likely are you to correctly recall the second item in the pair?|Type your response on a scale from 0-100 and then press Enter.",Study/JOL,"Study Phase",2940,,,2579,2642,,,,40,1
5efe59519563aa3504e9966a,v8rw02xk2q,Trevor_EX2,1,46,2020-10-23T14:55:18-07:00,1.7270410060883,2,Pure_Unrelated.csv,SF_VersionB.csv,"Sans F B","Sans F B",ZOO,THUMB,Study2,U,168,66,JOL,User,-,"How likely are you to correctly recall the second item in the pair?|Type your response on a scale from 0-100 and then press Enter.",Study/JOL,"Study Phase",1321,,,976,1093,,,,30,1
5efe59519563aa3504e9966a,v8rw02xk2q,Trevor_EX2,1,47,2020-10-23T14:55:20-07:00,2.2133839130402,2,Pure_Unrelated.csv,SF_VersionB.csv,"Sans F B","Sans F B",MUTE,WAVE,Study2,U,173,83,JOL_SF,User,-,"How likely are you to correctly recall the second item in the pair?|Type your response on a scale from 0-100 and then press Enter.",Study/JOL,"Study Phase",1813,,,1486,1572,,,,70,1
5efe59519563aa3504e9966a,v8rw02xk2q,Trevor_EX2,1,48,2020-10-23T14:55:22-07:00,2.1188168525696,2,Pure_Unrelated.csv,SF_VersionB.csv,"Sans F B","Sans F B",POSITION,MACHINE,Study2,U,106,64,JOL,User,-,"How likely are you to correctly recall the second item in the pair?|Type your response on a scale from 0-100 and then press Enter.",Study/JOL,"Study Phase",1736,,,1473,1536,,,,30,1
5efe59519563aa3504e9966a,v8rw02xk2q,Trevor_EX2,1,49,2020-10-23T14:55:24-07:00,1.8981950283051,2,Pure_Unrelated.csv,SF_VersionB.csv,"Sans F B","Sans F B",SACKING,DIETARY,Study2,U,97,63,JOL,User,-,"How likely are you to correctly recall the second item in the pair?|Type your response on a scale from 0-100 and then press Enter.",Study/JOL,"Study Phase",1492,,,1269,1323,,,,30,1
5efe59519563aa3504e9966a,v8rw02xk2q,Trevor_EX2,1,50,2020-10-23T14:55:27-07:00,3.5880990028381,2,Pure_Unrelated.csv,SF_VersionB.csv,"Sans F B","Sans F B",JELLY,NAUGHTY,Study2,U,172,96,JOL_SF,User,-,"How likely are you to correctly recall the second item in the pair?|Type your response on a scale from 0-100 and then press Enter.",Study/JOL,"Study Phase",3200,,,2665,2983,,,,50,1
5efe59519563aa3504e9966a,v8rw02xk2q,Trevor_EX2,1,51,2020-10-23T14:55:31-07:00,3.3951070308685,2,Pure_Unrelated.csv,SF_VersionB.csv,"Sans F B","Sans F B",TOOL,SHED,BUFFER4,Buffer,178,98,JOL,User,-,"How likely are you to correctly recall the second item in the pair?|Type your response on a scale from 0-100 and then press Enter.",Study/JOL,BUFFER2,3021,,,1686,2884,,,,90,1
5efe59519563aa3504e9966a,v8rw02xk2q,Trevor_EX2,1,52,2020-10-23T14:55:33-07:00,2.0339829921722,2,Pure_Unrelated.csv,SF_VersionB.csv,"Sans F B","Sans F B",MONTH,YEAR,BUFFER4,Buffer,177,99,JOL_SF,User,-,"How likely are you to correctly recall the second item in the pair?|Type your response on a scale from 0-100 and then press Enter.",Study/JOL,BUFFER2,1640,,,1453,1503,,,,90,1
5efe59519563aa3504e9966a,v8rw02xk2q,Trevor_EX2,1,53,2020-10-23T14:55:34-07:00,1.5421359539032,2,Pure_Unrelated.csv,SF_VersionB.csv,"Sans F B","Sans F B",SPRING,MARCH,BUFFER4,Buffer,179,101,JOL_SF,User,-,"How likely are you to correctly recall the second item in the pair?|Type your response on a scale from 0-100 and then press Enter.",Study/JOL,BUFFER2,1137,,,954,1000,,,,90,1
5efe59519563aa3504e9966a,v8rw02xk2q,Trevor_EX2,1,54,2020-10-23T14:55:37-07:00,2.52467918396,2,Pure_Unrelated.csv,SF_VersionB.csv,"Sans F B","Sans F B",DAYS,WEEKS,BUFFER4,Buffer,176,97,JOL,User,-,"How likely are you to correctly recall the second item in the pair?|Type your response on a scale from 0-100 and then press Enter.",Study/JOL,BUFFER2,2125,,,1302,2020,,,,100,1
5efe59519563aa3504e9966a,v8rw02xk2q,Trevor_EX2,1,55,2020-10-23T14:55:40-07:00,3.13223695755,2,Pure_Unrelated.csv,SF_VersionB.csv,"Sans F B","Sans F B",OCTOBER,SPOOKY,BUFFER4,Buffer,180,100,JOL_SF,User,-,"How likely are you to correctly recall the second item in the pair?|Type your response on a scale from 0-100 and then press Enter.",Study/JOL,BUFFER2,2732,,,1292,1994,,,,96,1
5efe59519563aa3504e9966a,v8rw02xk2q,Trevor_EX2,1,56,2020-10-23T14:55:41-07:00,1.2022788524628,2,Pure_Unrelated.csv,SF_VersionB.csv,"Sans F B","Sans F B",,,,,,0,Instruct,User,-,"You have completed this section. Please press Enter.",Filler_Instruction,Instruct2,805,,,-1,-1,,,,,1
5efe59519563aa3504e9966a,v8rw02xk2q,Trevor_EX2,1,57,2020-10-23T14:57:42-07:00,120.48839402199,2,Pure_Unrelated.csv,SF_VersionB.csv,"Sans F B","Sans F B",,,,,,0,FreeRecall,120,120,"Please list the 50 US states in alphabetical order. The task will automatically advance to the next screen after two minutes.",,Filler1,120005,"I live in Canada, but I'll try Alaska Alabama Baltimore Colorado Dakota Florida Georgia Idaho Iowa Kansas",0,7794,116689,0,0,,,1
5efe59519563aa3504e9966a,v8rw02xk2q,Trevor_EX2,1,58,2020-10-23T14:57:53-07:00,11.098968982697,2,Pure_Unrelated.csv,SF_VersionB.csv,"Sans F B","Sans F B",,,,,,0,Instruct,-,10,"You will now be presented with the first word from each of the previously studied item pairs. Please type the missing word. If you do not know the word, you may guess or press Enter to skip forward to the next pair.",,Instruct3,10437,,,-1,-1,,,,,1
5efe59519563aa3504e9966a,v8rw02xk2q,Trevor_EX2,1,59,2020-10-23T14:58:07-07:00,14.621400117874,2,Pure_Unrelated.csv,SF_VersionB.csv,"Sans F B","Sans F B",BELT,SOON,Study2,U,100,86,Test,User,-,,Recall,Recall1,14204,Hand,25,13123,14075,0,0,,,0.73
5efe59519563aa3504e9966a,v8rw02xk2q,Trevor_EX2,1,60,2020-10-23T14:58:11-07:00,3.2808361053467,2,Pure_Unrelated.csv,SF_VersionB.csv,"Sans F B","Sans F B",HUNGRY,PARK,Study2,U,98,84,Test,User,-,,Recall,Recall1,2692,Eat,28.571428571429,1736,2249,0,0,,,1
5efe59519563aa3504e9966a,v8rw02xk2q,Trevor_EX2,1,61,2020-10-23T14:58:13-07:00,1.9178907871246,2,Pure_Unrelated.csv,SF_VersionB.csv,"Sans F B","Sans F B",WOULD,CASH,Study2,U,113,76,Test,User,-,,Recall,Recall1,1492,,0,-1,-1,0,0,,,1
5efe59519563aa3504e9966a,v8rw02xk2q,Trevor_EX2,1,62,2020-10-23T14:58:18-07:00,5.3761332035065,2,Pure_Unrelated.csv,SF_VersionB.csv,"Sans F B","Sans F B",CLUTTER,PUSHER,Study2,U,96,65,Test,User,-,,Recall,Recall1,4941,Food,0,4396,4828,0,0,,,1
5efe59519563aa3504e9966a,v8rw02xk2q,Trevor_EX2,1,63,2020-10-23T14:58:21-07:00,3.4359078407288,2,Pure_Unrelated.csv,SF_VersionB.csv,"Sans F B","Sans F B",READY,CORN,Study2,U,158,72,Test,User,-,,Recall,Recall1,2024,,0,-1,-1,0,0,,,1
5efe59519563aa3504e9966a,v8rw02xk2q,Trevor_EX2,1,64,2020-10-23T14:58:23-07:00,1.5898230075836,2,Pure_Unrelated.csv,SF_VersionB.csv,"Sans F B","Sans F B",DETECT,FREE,Study2,U,162,70,Test,User,-,,Recall,Recall1,1200,,0,-1,-1,0,0,,,1
5efe59519563aa3504e9966a,v8rw02xk2q,Trevor_EX2,1,65,2020-10-23T14:58:25-07:00,2.2491180896759,2,Pure_Unrelated.csv,SF_VersionB.csv,"Sans F B","Sans F B",SWING,FOG,Study2,U,175,79,Test,User,-,,Recall,Recall1,1844,bat,0,1365,1771,0,0,,,1
5efe59519563aa3504e9966a,v8rw02xk2q,Trevor_EX2,1,66,2020-10-23T14:58:28-07:00,2.799861907959,2,Pure_Unrelated.csv,SF_VersionB.csv,"Sans F B","Sans F B",MUTE,WAVE,Study2,U,173,83,Test,User,-,,Recall,Recall1,2400,deaf,25,1568,2183,0,0,,,1
5efe59519563aa3504e9966a,v8rw02xk2q,Trevor_EX2,1,67,2020-10-23T14:58:30-07:00,1.9984381198883,2,Pure_Unrelated.csv,SF_VersionB.csv,"Sans F B","Sans F B",NULL,COUGH,Study2,U,156,67,Test,User,-,,Recall,Recall1,1599,,0,-1,-1,0,0,,,1
5efe59519563aa3504e9966a,v8rw02xk2q,Trevor_EX2,1,68,2020-10-23T14:58:32-07:00,1.4697799682617,2,Pure_Unrelated.csv,SF_VersionB.csv,"Sans F B","Sans F B",SMOOTH,OMIT,Study2,U,157,90,Test,User,-,,Recall,Recall1,931,,0,-1,-1,0,0,,,1
5efe59519563aa3504e9966a,v8rw02xk2q,Trevor_EX2,1,69,2020-10-23T14:58:34-07:00,2.4921388626099,2,Pure_Unrelated.csv,SF_VersionB.csv,"Sans F B","Sans F B",DESIRE,NOISE,Study2,U,169,61,Test,User,-,,Recall,Recall1,2082,,0,-1,-1,0,0,,,1
5efe59519563aa3504e9966a,v8rw02xk2q,Trevor_EX2,1,70,2020-10-23T14:58:36-07:00,2.2087340354919,2,Pure_Unrelated.csv,SF_VersionB.csv,"Sans F B","Sans F B",LAKE,OPINION,Study2,U,160,93,Test,User,-,,Recall,Recall1,1825,water,0,1034,1761,0,0,,,1
5efe59519563aa3504e9966a,v8rw02xk2q,Trevor_EX2,1,71,2020-10-23T14:58:40-07:00,3.6121420860291,2,Pure_Unrelated.csv,SF_VersionB.csv,"Sans F B","Sans F B",WASTE,SEDATE,Study2,U,165,78,Test,User,-,,Recall,Recall1,3209,garbage,30.769230769231,1314,2927,0,0,,,1
5efe59519563aa3504e9966a,v8rw02xk2q,Trevor_EX2,1,72,2020-10-23T14:58:44-07:00,4.3315720558167,2,Pure_Unrelated.csv,SF_VersionB.csv,"Sans F B","Sans F B",FLOAT,HARMONY,Study2,U,161,75,Test,User,-,,Recall,Recall1,3924,,0,-1,-1,0,0,,,1
5efe59519563aa3504e9966a,v8rw02xk2q,Trevor_EX2,1,73,2020-10-23T14:58:49-07:00,5.3083739280701,2,Pure_Unrelated.csv,SF_VersionB.csv,"Sans F B","Sans F B",SLIM,KNOW,Study2,U,164,80,Test,User,-,,Recall,Recall1,4897,,0,-1,-1,0,0,,,1
5efe59519563aa3504e9966a,v8rw02xk2q,Trevor_EX2,1,74,2020-10-23T14:58:59-07:00,9.1337790489197,2,Pure_Unrelated.csv,SF_VersionB.csv,"Sans F B","Sans F B",STOMACH,TOWN,Study2,U,159,74,Test,User,-,,Recall,Recall1,8739,flat,25,8076,8642,0,0,,,0.795
5efe59519563aa3504e9966a,v8rw02xk2q,Trevor_EX2,1,75,2020-10-23T14:59:03-07:00,4.2837438583374,2,Pure_Unrelated.csv,SF_VersionB.csv,"Sans F B","Sans F B",ROAD,SCENT,Study2,U,166,94,Test,User,-,,Recall,Recall1,3894,,0,-1,-1,0,0,,,1
5efe59519563aa3504e9966a,v8rw02xk2q,Trevor_EX2,1,76,2020-10-23T14:59:05-07:00,2.5306181907654,2,Pure_Unrelated.csv,SF_VersionB.csv,"Sans F B","Sans F B",JELLY,NAUGHTY,Study2,U,172,96,Test,User,-,,Recall,Recall1,2147,,0,-1,-1,0,0,,,1
5efe59519563aa3504e9966a,v8rw02xk2q,Trevor_EX2,1,77,2020-10-23T14:59:10-07:00,4.2322947978973,2,Pure_Unrelated.csv,SF_VersionB.csv,"Sans F B","Sans F B",ADD,VALLEY,Study2,U,112,59,Test,User,-,,Recall,Recall1,3855,subtract,14.285714285714,1848,3734,0,0,,,1
5efe59519563aa3504e9966a,v8rw02xk2q,Trevor_EX2,1,78,2020-10-23T14:59:11-07:00,1.3170540332794,2,Pure_Unrelated.csv,SF_VersionB.csv,"Sans F B","Sans F B",VASE,KING,Study2,U,115,71,Test,User,-,,Recall,Recall1,922,,0,-1,-1,0,0,,,1
5efe59519563aa3504e9966a,v8rw02xk2q,Trevor_EX2,1,79,2020-10-23T14:59:12-07:00,1.4603230953217,2,Pure_Unrelated.csv,SF_VersionB.csv,"Sans F B","Sans F B",PUFF,NUMBER,Study2,U,171,77,Test,User,-,,Recall,Recall1,1055,,0,-1,-1,0,0,,,1
5efe59519563aa3504e9966a,v8rw02xk2q,Trevor_EX2,1,80,2020-10-23T14:59:14-07:00,1.9604849815369,2,Pure_Unrelated.csv,SF_VersionB.csv,"Sans F B","Sans F B",SACKING,DIETARY,Study2,U,97,63,Test,User,-,,Recall,Recall1,1563,,0,-1,-1,0,0,,,1
5efe59519563aa3504e9966a,v8rw02xk2q,Trevor_EX2,1,81,2020-10-23T14:59:16-07:00,2.0194239616394,2,Pure_Unrelated.csv,SF_VersionB.csv,"Sans F B","Sans F B",SIGHT,DEBATE,Study2,U,103,57,Test,User,-,,Recall,Recall1,1643,,0,-1,-1,0,0,,,1
5efe59519563aa3504e9966a,v8rw02xk2q,Trevor_EX2,1,82,2020-10-23T14:59:18-07:00,1.9719550609589,2,Pure_Unrelated.csv,SF_VersionB.csv,"Sans F B","Sans F B",SICK,HIDE,Study2,U,114,85,Test,User,-,,Recall,Recall1,1591,,0,-1,-1,0,0,,,1
5efe59519563aa3504e9966a,v8rw02xk2q,Trevor_EX2,1,83,2020-10-23T14:59:20-07:00,2.0132648944855,2,Pure_Unrelated.csv,SF_VersionB.csv,"Sans F B","Sans F B",TUCK,ALLOW,Study2,U,108,91,Test,User,-,,Recall,Recall1,1633,,0,-1,-1,0,0,,,1
5efe59519563aa3504e9966a,v8rw02xk2q,Trevor_EX2,1,84,2020-10-23T14:59:22-07:00,1.9233500957489,2,Pure_Unrelated.csv,SF_VersionB.csv,"Sans F B","Sans F B",FLOOR,DISCOVER,Study2,U,101,87,Test,User,-,,Recall,Recall1,1536,,0,-1,-1,0,0,,,1
5efe59519563aa3504e9966a,v8rw02xk2q,Trevor_EX2,1,85,2020-10-23T14:59:24-07:00,1.6374108791351,2,Pure_Unrelated.csv,SF_VersionB.csv,"Sans F B","Sans F B",POSITION,MACHINE,Study2,U,106,64,Test,User,-,,Recall,Recall1,1235,,0,-1,-1,0,0,,,1
5efe59519563aa3504e9966a,v8rw02xk2q,Trevor_EX2,1,86,2020-10-23T14:59:25-07:00,1.292268037796,2,Pure_Unrelated.csv,SF_VersionB.csv,"Sans F B","Sans F B",Business,Death,Study2,U,102,88,Test,User,-,,Recall,Recall1,921,,0,-1,-1,0,0,,,1
5efe59519563aa3504e9966a,v8rw02xk2q,Trevor_EX2,1,87,2020-10-23T14:59:29-07:00,3.2594840526581,2,Pure_Unrelated.csv,SF_VersionB.csv,"Sans F B","Sans F B",ZOO,THUMB,Study2,U,168,66,Test,User,-,,Recall,Recall1,2875,animal,18.181818181818,1699,2706,0,0,,,1
5efe59519563aa3504e9966a,v8rw02xk2q,Trevor_EX2,1,88,2020-10-23T14:59:31-07:00,2.539647102356,2,Pure_Unrelated.csv,SF_VersionB.csv,"Sans F B","Sans F B",WOMAN,LIFT,Study2,U,99,95,Test,User,-,,Recall,Recall1,2152,,0,-1,-1,0,0,,,1
5efe59519563aa3504e9966a,v8rw02xk2q,Trevor_EX2,1,89,2020-10-23T14:59:35-07:00,3.6788690090179,2,Pure_Unrelated.csv,SF_VersionB.csv,"Sans F B","Sans F B",ADD,VALLEY,Study2,U,112,59,Test,User,-,,Recall,Recall1,3301,subtract,14.285714285714,885,3220,0,0,,,1
5efe59519563aa3504e9966a,v8rw02xk2q,Trevor_EX2,1,90,2020-10-23T14:59:37-07:00,2.0396709442139,2,Pure_Unrelated.csv,SF_VersionB.csv,"Sans F B","Sans F B",SPELL,BONE,Study2,U,174,82,Test,User,-,,Recall,Recall1,1619,,0,-1,-1,0,0,,,1
5efe59519563aa3504e9966a,v8rw02xk2q,Trevor_EX2,1,91,2020-10-23T14:59:41-07:00,4.3535969257355,2,Pure_Unrelated.csv,SF_VersionB.csv,"Sans F B","Sans F B",HAND,FIX,Study2,U,105,69,Test,User,-,,Recall,Recall1,3926,belt,0,2655,3837,0,0,,,1
5efe59519563aa3504e9966a,v8rw02xk2q,Trevor_EX2,1,92,2020-10-23T14:59:45-07:00,3.5198900699615,2,Pure_Unrelated.csv,SF_VersionB.csv,"Sans F B","Sans F B",RIDDLE,SUGAR,Study2,U,111,73,Test,User,-,,Recall,Recall1,3119,spell,20,1687,2981,0,0,,,1
5efe59519563aa3504e9966a,v8rw02xk2q,Trevor_EX2,1,93,2020-10-23T14:59:46-07:00,1.2738449573517,2,Pure_Unrelated.csv,SF_VersionB.csv,"Sans F B","Sans F B",ACCIDENT,STRONG,Study2,U,110,89,Test,User,-,,Recall,Recall1,847,,0,-1,-1,0,0,,,1
5efe59519563aa3504e9966a,v8rw02xk2q,Trevor_EX2,1,94,2020-10-23T14:59:47-07:00,0.84222388267517,2,Pure_Unrelated.csv,SF_VersionB.csv,"Sans F B","Sans F B",PUT,ROLL,Study2,U,163,92,Test,User,-,,Recall,Recall1,459,,0,-1,-1,0,0,,,1
5efe59519563aa3504e9966a,v8rw02xk2q,Trevor_EX2,1,95,2020-10-23T14:59:48-07:00,1.2537610530853,2,Pure_Unrelated.csv,SF_VersionB.csv,"Sans F B","Sans F B",SYSTEM,LICK,Study2,U,167,81,Test,User,-,,Recall,Recall1,867,,0,-1,-1,0,0,,,1
5efe59519563aa3504e9966a,v8rw02xk2q,Trevor_EX2,1,96,2020-10-23T14:59:49-07:00,1.1721761226654,2,Pure_Unrelated.csv,SF_VersionB.csv,"Sans F B","Sans F B",BRONZE,ARTERY,Study2,U,104,60,Test,User,-,,Recall,Recall1,787,,0,-1,-1,0,0,,,1
5efe59519563aa3504e9966a,v8rw02xk2q,Trevor_EX2,1,97,2020-10-23T14:59:52-07:00,2.3186769485474,2,Pure_Unrelated.csv,SF_VersionB.csv,"Sans F B","Sans F B",CAR,HAPPY,Study2,U,107,62,Test,User,-,,Recall,Recall1,1895,,0,-1,-1,0,0,,,1
5efe59519563aa3504e9966a,v8rw02xk2q,Trevor_EX2,1,98,2020-10-23T14:59:53-07:00,1.4077398777008,2,Pure_Unrelated.csv,SF_VersionB.csv,"Sans F B","Sans F B",GUARD,WHEEL,Study2,U,170,68,Test,User,-,,Recall,Recall1,1031,,0,-1,-1,0,0,,,1
5efe59519563aa3504e9966a,v8rw02xk2q,Trevor_EX2,1,99,2020-10-23T15:00:04-07:00,10.895155191422,2,Pure_Unrelated.csv,SF_VersionB.csv,"Sans F B","Sans F B",,,,,,0,Instruct,-,10,"You will now be presented with a new set of word pairs. Please study each pair. Remember that your memory will be tested! When finished, press Enter to move to the next pair.",Initial_Instruct,Instruct4,10533,,,-1,-1,,,,,0.774
5efe59519563aa3504e9966a,v8rw02xk2q,Trevor_EX2,1,100,2020-10-23T15:00:15-07:00,11.258337974548,2,Pure_Unrelated.csv,SF_VersionB.csv,"Sans F B","Sans F B",,,,,,0,Instruct,,10,"You will again be asked to rate your ability to remember these items using a 0 to 100 scale. Remember to use the full range of the scale!",,Instruct10,10844,,,-1,-1,,,,,1
5efe59519563aa3504e9966a,v8rw02xk2q,Trevor_EX2,1,101,2020-10-23T15:00:17-07:00,1.5620889663696,2,Pure_Unrelated.csv,SF_VersionB.csv,"Sans F B","Sans F B",,,,,,0,Instruct,User,-,"Press Enter when you are readty to begin",,Instruct11,1180,,,-1,-1,,,,,1
5efe59519563aa3504e9966a,v8rw02xk2q,Trevor_EX2,1,102,2020-10-23T15:00:22-07:00,5.3154439926147,2,Pure_Unrelated.csv,SF_VersionB.csv,"Sans F B","Sans F B",TREES,GREEN,BUFFER1,Buffer,1,6,JOL,User,-,"How likely are you to correctly recall the second item in the pair?|Type your response on a scale from 0-100 and then press Enter.",Study/JOL,BUFFER3,4922,,,4393,4472,,,,80,1
5efe59519563aa3504e9966a,v8rw02xk2q,Trevor_EX2,1,103,2020-10-23T15:00:24-07:00,2.475114107132,2,Pure_Unrelated.csv,SF_VersionB.csv,"Sans F B","Sans F B",PEANUT,BUTTER,BUFFER1,Buffer,3,4,JOL_SF,User,-,"How likely are you to correctly recall the second item in the pair?|Type your response on a scale from 0-100 and then press Enter.",Study/JOL,BUFFER3,2087,,,775,1926,,,,90,1
5efe59519563aa3504e9966a,v8rw02xk2q,Trevor_EX2,1,104,2020-10-23T15:00:27-07:00,2.6936919689178,2,Pure_Unrelated.csv,SF_VersionB.csv,"Sans F B","Sans F B",SCARE,HIDE,BUFFER1,Buffer,4,5,JOL_SF,User,-,"How likely are you to correctly recall the second item in the pair?|Type your response on a scale from 0-100 and then press Enter.",Study/JOL,BUFFER3,2311,,,1544,2150,,,,50,1
5efe59519563aa3504e9966a,v8rw02xk2q,Trevor_EX2,1,105,2020-10-23T15:00:31-07:00,3.7684178352356,2,Pure_Unrelated.csv,SF_VersionB.csv,"Sans F B","Sans F B",SPACE,JAM,BUFFER1,Buffer,5,3,JOL,User,-,"How likely are you to correctly recall the second item in the pair?|Type your response on a scale from 0-100 and then press Enter.",Study/JOL,BUFFER3,3383,,,1544,2502,,,,99,1
5efe59519563aa3504e9966a,v8rw02xk2q,Trevor_EX2,1,106,2020-10-23T15:00:35-07:00,3.8155341148376,2,Pure_Unrelated.csv,SF_VersionB.csv,"Sans F B","Sans F B",BASEBALL,CATCHER,BUFFER1,Buffer,2,2,JOL,User,-,"How likely are you to correctly recall the second item in the pair?|Type your response on a scale from 0-100 and then press Enter.",Study/JOL,BUFFER3,3411,,,3044,3314,,,,65,1
5efe59519563aa3504e9966a,v8rw02xk2q,Trevor_EX2,1,107,2020-10-23T15:00:38-07:00,3.4392518997192,2,Pure_Unrelated.csv,SF_VersionB.csv,"Sans F B","Sans F B",TAX,OWL,Study1,U,72,32,JOL_SF,User,-,"How likely are you to correctly recall the second item in the pair?|Type your response on a scale from 0-100 and then press Enter.",Study/JOL,"Study Phase2",3047,,,2480,2750,,,,30,1
5efe59519563aa3504e9966a,v8rw02xk2q,Trevor_EX2,1,108,2020-10-23T15:00:41-07:00,2.7685000896454,2,Pure_Unrelated.csv,SF_VersionB.csv,"Sans F B","Sans F B",GRIND,STAND,Study1,U,85,9,JOL,User,-,"How likely are you to correctly recall the second item in the pair?|Type your response on a scale from 0-100 and then press Enter.",Study/JOL,"Study Phase2",2368,,,1177,2151,,,,20,1
5efe59519563aa3504e9966a,v8rw02xk2q,Trevor_EX2,1,109,2020-10-23T15:00:45-07:00,3.8520929813385,2,Pure_Unrelated.csv,SF_VersionB.csv,"Sans F B","Sans F B",BAT,SHAKY,Study1,U,66,22,JOL,User,-,"How likely are you to correctly recall the second item in the pair?|Type your response on a scale from 0-100 and then press Enter.",Study/JOL,"Study Phase2",3466,,,586,3113,,,,30,1
5efe59519563aa3504e9966a,v8rw02xk2q,Trevor_EX2,1,110,2020-10-23T15:00:47-07:00,2.5982410907745,2,Pure_Unrelated.csv,SF_VersionB.csv,"Sans F B","Sans F B",RESIST,GLUE,Study1,U,69,27,JOL_SF,User,-,"How likely are you to correctly recall the second item in the pair?|Type your response on a scale from 0-100 and then press Enter.",Study/JOL,"Study Phase2",2149,,,1846,1932,,,,20,1
5efe59519563aa3504e9966a,v8rw02xk2q,Trevor_EX2,1,111,2020-10-23T15:00:49-07:00,1.8154029846191,2,Pure_Unrelated.csv,SF_VersionB.csv,"Sans F B","Sans F B",MAIN,SCAR,Study1,U,25,35,JOL_SF,User,-,"How likely are you to correctly recall the second item in the pair?|Type your response on a scale from 0-100 and then press Enter.",Study/JOL,"Study Phase2",1431,,,1040,1166,,,,30,1
5efe59519563aa3504e9966a,v8rw02xk2q,Trevor_EX2,1,112,2020-10-23T15:00:53-07:00,3.7508900165558,2,Pure_Unrelated.csv,SF_VersionB.csv,"Sans F B","Sans F B",GIVE,STEAK,Study1,U,8,10,JOL,User,-,"How likely are you to correctly recall the second item in the pair?|Type your response on a scale from 0-100 and then press Enter.",Study/JOL,"Study Phase2",3355,,,1635,2698,,,,15,1
5efe59519563aa3504e9966a,v8rw02xk2q,Trevor_EX2,1,113,2020-10-23T15:00:57-07:00,3.9297029972076,2,Pure_Unrelated.csv,SF_VersionB.csv,"Sans F B","Sans F B",MEAT,OBTAIN,Study1,U,11,15,JOL,User,-,"How likely are you to correctly recall the second item in the pair?|Type your response on a scale from 0-100 and then press Enter.",Study/JOL,"Study Phase2",3543,,,1878,3342,,,,29,1
5efe59519563aa3504e9966a,v8rw02xk2q,Trevor_EX2,1,114,2020-10-23T15:00:59-07:00,2.5037839412689,2,Pure_Unrelated.csv,SF_VersionB.csv,"Sans F B","Sans F B",JUSTICE,MAROON,Study1,U,6,31,JOL_SF,User,-,"How likely are you to correctly recall the second item in the pair?|Type your response on a scale from 0-100 and then press Enter.",Study/JOL,"Study Phase2",2091,,,1602,1746,,,,20,1
5efe59519563aa3504e9966a,v8rw02xk2q,Trevor_EX2,1,115,2020-10-23T15:01:01-07:00,1.7808589935303,2,Pure_Unrelated.csv,SF_VersionB.csv,"Sans F B","Sans F B",FUTURE,SINCERE,Study1,U,70,28,JOL_SF,User,-,"How likely are you to correctly recall the second item in the pair?|Type your response on a scale from 0-100 and then press Enter.",Study/JOL,"Study Phase2",1385,,,1129,1176,,,,20,1
5efe59519563aa3504e9966a,v8rw02xk2q,Trevor_EX2,1,116,2020-10-23T15:01:03-07:00,1.3905830383301,2,Pure_Unrelated.csv,SF_VersionB.csv,"Sans F B","Sans F B",RIPE,VERIFY,Study1,U,83,43,JOL_SF,User,-,"How likely are you to correctly recall the second item in the pair?|Type your response on a scale from 0-100 and then press Enter.",Study/JOL,"Study Phase2",1012,,,660,787,,,,30,1
5efe59519563aa3504e9966a,v8rw02xk2q,Trevor_EX2,1,117,2020-10-23T15:01:05-07:00,2.1626968383789,2,Pure_Unrelated.csv,SF_VersionB.csv,"Sans F B","Sans F B",FUZZY,BANG,Study1,U,18,42,JOL_SF,User,-,"How likely are you to correctly recall the second item in the pair?|Type your response on a scale from 0-100 and then press Enter.",Study/JOL,"Study Phase2",1761,,,1225,1576,,,,25,1
5efe59519563aa3504e9966a,v8rw02xk2q,Trevor_EX2,1,118,2020-10-23T15:01:07-07:00,1.9115400314331,2,Pure_Unrelated.csv,SF_VersionB.csv,"Sans F B","Sans F B",THICK,CONTEST,Study1,U,73,17,JOL,User,-,"How likely are you to correctly recall the second item in the pair?|Type your response on a scale from 0-100 and then press Enter.",Study/JOL,"Study Phase2",1530,,,1282,1361,,,,20,1
5efe59519563aa3504e9966a,v8rw02xk2q,Trevor_EX2,1,119,2020-10-23T15:01:10-07:00,2.8909680843353,2,Pure_Unrelated.csv,SF_VersionB.csv,"Sans F B","Sans F B",DONKEY,LUSH,Study1,U,84,30,JOL_SF,User,-,"How likely are you to correctly recall the second item in the pair?|Type your response on a scale from 0-100 and then press Enter.",Study/JOL,"Study Phase2",2498,,,1458,2249,,,,28,1
5efe59519563aa3504e9966a,v8rw02xk2q,Trevor_EX2,1,120,2020-10-23T15:01:13-07:00,3.5875580310822,2,Pure_Unrelated.csv,SF_VersionB.csv,"Sans F B","Sans F B",SHELL,SHAKE,Study1,U,13,24,JOL,User,-,"How likely are you to correctly recall the second item in the pair?|Type your response on a scale from 0-100 and then press Enter.",Study/JOL,"Study Phase2",2055,,,1295,1814,,,,50,1
5efe59519563aa3504e9966a,v8rw02xk2q,Trevor_EX2,1,121,2020-10-23T15:01:18-07:00,4.9456980228424,2,Pure_Unrelated.csv,SF_VersionB.csv,"Sans F B","Sans F B",LISTEN,FICTION,Study1,U,14,34,JOL_SF,User,-,"How likely are you to correctly recall the second item in the pair?|Type your response on a scale from 0-100 and then press Enter.",Study/JOL,"Study Phase2",4553,,,4321,4400,,,,30,1
5efe59519563aa3504e9966a,v8rw02xk2q,Trevor_EX2,1,122,2020-10-23T15:01:19-07:00,1.4132208824158,2,Pure_Unrelated.csv,SF_VersionB.csv,"Sans F B","Sans F B",MAZE,ELECTION,Study1,U,9,26,JOL,User,-,"How likely are you to correctly recall the second item in the pair?|Type your response on a scale from 0-100 and then press Enter.",Study/JOL,"Study Phase2",1008,,,497,640,,,,20,1
5efe59519563aa3504e9966a,v8rw02xk2q,Trevor_EX2,1,123,2020-10-23T15:01:21-07:00,1.2596819400787,2,Pure_Unrelated.csv,SF_VersionB.csv,"Sans F B","Sans F B",CRAYON,RATE,Study1,U,79,33,JOL_SF,User,-,"How likely are you to correctly recall the second item in the pair?|Type your response on a scale from 0-100 and then press Enter.",Study/JOL,"Study Phase2",857,,,577,672,,,,30,1
5efe59519563aa3504e9966a,v8rw02xk2q,Trevor_EX2,1,124,2020-10-23T15:01:22-07:00,1.4635100364685,2,Pure_Unrelated.csv,SF_VersionB.csv,"Sans F B","Sans F B",STRETCH,CLOTH,Study1,U,7,14,JOL,User,-,"How likely are you to correctly recall the second item in the pair?|Type your response on a scale from 0-100 and then press Enter.",Study/JOL,"Study Phase2",1069,,,797,860,,,,20,1
5efe59519563aa3504e9966a,v8rw02xk2q,Trevor_EX2,1,125,2020-10-23T15:01:26-07:00,3.5594320297241,2,Pure_Unrelated.csv,SF_VersionB.csv,"Sans F B","Sans F B",WARN,SEA,Study1,U,80,39,JOL_SF,User,-,"How likely are you to correctly recall the second item in the pair?|Type your response on a scale from 0-100 and then press Enter.",Study/JOL,"Study Phase2",3160,,,2264,3094,,,,35,1
5efe59519563aa3504e9966a,v8rw02xk2q,Trevor_EX2,1,126,2020-10-23T15:01:28-07:00,1.9627051353455,2,Pure_Unrelated.csv,SF_VersionB.csv,"Sans F B","Sans F B",INFLATE,DISGUST,Study1,U,76,20,JOL,User,-,"How likely are you to correctly recall the second item in the pair?|Type your response on a scale from 0-100 and then press Enter.",Study/JOL,"Study Phase2",1555,,,1379,1417,,,,40,1
5efe59519563aa3504e9966a,v8rw02xk2q,Trevor_EX2,1,127,2020-10-23T15:01:30-07:00,1.9975938796997,2,Pure_Unrelated.csv,SF_VersionB.csv,"Sans F B","Sans F B",NUMBER,HARD,Study1,U,78,45,JOL_SF,User,-,"How likely are you to correctly recall the second item in the pair?|Type your response on a scale from 0-100 and then press Enter.",Study/JOL,"Study Phase2",1610,,,1076,1418,,,,40,1
5efe59519563aa3504e9966a,v8rw02xk2q,Trevor_EX2,1,128,2020-10-23T15:01:33-07:00,3.055655002594,2,Pure_Unrelated.csv,SF_VersionB.csv,"Sans F B","Sans F B",PARCEL,THROAT,Study1,U,67,37,JOL_SF,User,-,"How likely are you to correctly recall the second item in the pair?|Type your response on a scale from 0-100 and then press Enter.",Study/JOL,"Study Phase2",2665,,,2441,2479,,,,70,1
5efe59519563aa3504e9966a,v8rw02xk2q,Trevor_EX2,1,129,2020-10-23T15:01:37-07:00,3.8320620059967,2,Pure_Unrelated.csv,SF_VersionB.csv,"Sans F B","Sans F B",KEYS,JOKE,Study1,U,15,11,JOL,User,-,"How likely are you to correctly recall the second item in the pair?|Type your response on a scale from 0-100 and then press Enter.",Study/JOL,"Study Phase2",3438,,,2247,3277,,,,30,1
5efe59519563aa3504e9966a,v8rw02xk2q,Trevor_EX2,1,130,2020-10-23T15:01:39-07:00,2.0409169197083,2,Pure_Unrelated.csv,SF_VersionB.csv,"Sans F B","Sans F B",ROSE,NEGLECT,Study1,U,82,40,JOL_SF,User,-,"How likely are you to correctly recall the second item in the pair?|Type your response on a scale from 0-100 and then press Enter.",Study/JOL,"Study Phase2",1597,,,1262,1364,,,,30,1
5efe59519563aa3504e9966a,v8rw02xk2q,Trevor_EX2,1,131,2020-10-23T15:01:41-07:00,2.2371520996094,2,Pure_Unrelated.csv,SF_VersionB.csv,"Sans F B","Sans F B",DIZZY,SWEATER,Study1,U,77,12,JOL,User,-,"How likely are you to correctly recall the second item in the pair?|Type your response on a scale from 0-100 and then press Enter.",Study/JOL,"Study Phase2",1798,,,1535,1613,,,,30,1
5efe59519563aa3504e9966a,v8rw02xk2q,Trevor_EX2,1,132,2020-10-23T15:01:43-07:00,1.8716640472412,2,Pure_Unrelated.csv,SF_VersionB.csv,"Sans F B","Sans F B",DEGREE,CHAIR,Study1,U,71,21,JOL,User,-,"How likely are you to correctly recall the second item in the pair?|Type your response on a scale from 0-100 and then press Enter.",Study/JOL,"Study Phase2",1421,,,1142,1236,,,,30,1
5efe59519563aa3504e9966a,v8rw02xk2q,Trevor_EX2,1,133,2020-10-23T15:01:45-07:00,1.8097620010376,2,Pure_Unrelated.csv,SF_VersionB.csv,"Sans F B","Sans F B",DIFFICULT,POOR,Study1,U,81,25,JOL,User,-,"How likely are you to correctly recall the second item in the pair?|Type your response on a scale from 0-100 and then press Enter.",Study/JOL,"Study Phase2",1371,,,1012,1258,,,,35,1
5efe59519563aa3504e9966a,v8rw02xk2q,Trevor_EX2,1,134,2020-10-23T15:01:46-07:00,1.9426679611206,2,Pure_Unrelated.csv,SF_VersionB.csv,"Sans F B","Sans F B",CRACKLE,ABLE,Study1,U,12,46,JOL_SF,User,-,"How likely are you to correctly recall the second item in the pair?|Type your response on a scale from 0-100 and then press Enter.",Study/JOL,"Study Phase2",1526,,,830,1420,,,,35,1
5efe59519563aa3504e9966a,v8rw02xk2q,Trevor_EX2,1,135,2020-10-23T15:01:49-07:00,2.4678828716278,2,Pure_Unrelated.csv,SF_VersionB.csv,"Sans F B","Sans F B",LEASE,TOIL,Study1,U,20,29,JOL_SF,User,-,"How likely are you to correctly recall the second item in the pair?|Type your response on a scale from 0-100 and then press Enter.",Study/JOL,"Study Phase2",2034,,,1171,1459,,,,35,1
5efe59519563aa3504e9966a,v8rw02xk2q,Trevor_EX2,1,136,2020-10-23T15:01:51-07:00,1.6279201507568,2,Pure_Unrelated.csv,SF_VersionB.csv,"Sans F B","Sans F B",MIRROR,CHILDREN,Study1,U,24,23,JOL,User,-,"How likely are you to correctly recall the second item in the pair?|Type your response on a scale from 0-100 and then press Enter.",Study/JOL,"Study Phase2",1230,,,991,1189,,,,35,1
5efe59519563aa3504e9966a,v8rw02xk2q,Trevor_EX2,1,137,2020-10-23T15:01:53-07:00,2.8027889728546,2,Pure_Unrelated.csv,SF_VersionB.csv,"Sans F B","Sans F B",LOAN,SIGN,Study1,U,21,19,JOL,User,-,"How likely are you to correctly recall the second item in the pair?|Type your response on a scale from 0-100 and then press Enter.",Study/JOL,"Study Phase2",2422,,,2087,2293,,,,35,1
5efe59519563aa3504e9966a,v8rw02xk2q,Trevor_EX2,1,138,2020-10-23T15:01:58-07:00,4.1281008720398,2,Pure_Unrelated.csv,SF_VersionB.csv,"Sans F B","Sans F B",MOAT,CLEAR,Study1,U,19,41,JOL_SF,User,-,"How likely are you to correctly recall the second item in the pair?|Type your response on a scale from 0-100 and then press Enter.",Study/JOL,"Study Phase2",3735,,,1304,3646,,,,55,1
5efe59519563aa3504e9966a,v8rw02xk2q,Trevor_EX2,1,139,2020-10-23T15:01:59-07:00,1.7126960754395,2,Pure_Unrelated.csv,SF_VersionB.csv,"Sans F B","Sans F B",STRESS,YAM,Study1,U,68,18,JOL,User,-,"How likely are you to correctly recall the second item in the pair?|Type your response on a scale from 0-100 and then press Enter.",Study/JOL,"Study Phase2",1320,,,1080,1134,,,,20,1
5efe59519563aa3504e9966a,v8rw02xk2q,Trevor_EX2,1,140,2020-10-23T15:02:03-07:00,3.6763551235199,2,Pure_Unrelated.csv,SF_VersionB.csv,"Sans F B","Sans F B",TEMPERATURE,MORNING,Study1,U,23,16,JOL,User,-,"How likely are you to correctly recall the second item in the pair?|Type your response on a scale from 0-100 and then press Enter.",Study/JOL,"Study Phase2",3270,,,862,3069,,,,40,1
5efe59519563aa3504e9966a,v8rw02xk2q,Trevor_EX2,1,141,2020-10-23T15:02:06-07:00,3.4402940273285,2,Pure_Unrelated.csv,SF_VersionB.csv,"Sans F B","Sans F B",PET,MOON,Study1,U,74,44,JOL_SF,User,-,"How likely are you to correctly recall the second item in the pair?|Type your response on a scale from 0-100 and then press Enter.",Study/JOL,"Study Phase2",2039,,,1751,1838,,,,30,1
5efe59519563aa3504e9966a,v8rw02xk2q,Trevor_EX2,1,142,2020-10-23T15:02:09-07:00,2.530387878418,2,Pure_Unrelated.csv,SF_VersionB.csv,"Sans F B","Sans F B",VEHICLE,CHARM,Study1,U,10,8,JOL,User,-,"How likely are you to correctly recall the second item in the pair?|Type your response on a scale from 0-100 and then press Enter.",Study/JOL,"Study Phase2",2116,,,1340,1923,,,,10,1
5efe59519563aa3504e9966a,v8rw02xk2q,Trevor_EX2,1,143,2020-10-23T15:02:12-07:00,2.9202239513397,2,Pure_Unrelated.csv,SF_VersionB.csv,"Sans F B","Sans F B",BOTH,OUNCE,Study1,U,22,13,JOL,User,-,"How likely are you to correctly recall the second item in the pair?|Type your response on a scale from 0-100 and then press Enter.",Study/JOL,"Study Phase2",2490,,,1227,2361,,,,15,1
5efe59519563aa3504e9966a,v8rw02xk2q,Trevor_EX2,1,144,2020-10-23T15:02:14-07:00,2.1398711204529,2,Pure_Unrelated.csv,SF_VersionB.csv,"Sans F B","Sans F B",NAME,HATE,Study1,U,17,38,JOL_SF,User,-,"How likely are you to correctly recall the second item in the pair?|Type your response on a scale from 0-100 and then press Enter.",Study/JOL,"Study Phase2",1750,,,895,1358,,,,15,1
5efe59519563aa3504e9966a,v8rw02xk2q,Trevor_EX2,1,145,2020-10-23T15:02:16-07:00,2.2678089141846,2,Pure_Unrelated.csv,SF_VersionB.csv,"Sans F B","Sans F B",BROAD,INFECT,Study1,U,75,36,JOL_SF,User,-,"How likely are you to correctly recall the second item in the pair?|Type your response on a scale from 0-100 and then press Enter.",Study/JOL,"Study Phase2",1848,,,976,1471,,,,15,1
5efe59519563aa3504e9966a,v8rw02xk2q,Trevor_EX2,1,146,2020-10-23T15:02:18-07:00,1.914186000824,2,Pure_Unrelated.csv,SF_VersionB.csv,"Sans F B","Sans F B",CAKE,CLOTHES,Study1,U,16,7,JOL,User,-,"How likely are you to correctly recall the second item in the pair?|Type your response on a scale from 0-100 and then press Enter.",Study/JOL,"Study Phase2",1521,,,897,1311,,,,15,1
5efe59519563aa3504e9966a,v8rw02xk2q,Trevor_EX2,1,147,2020-10-23T15:02:22-07:00,4.3787429332733,2,Pure_Unrelated.csv,SF_VersionB.csv,"Sans F B","Sans F B",MOON,SPACE,BUFFER2,Buffer,89,48,JOL,User,-,"How likely are you to correctly recall the second item in the pair?|Type your response on a scale from 0-100 and then press Enter.",Study/JOL,BUFFER4,2048,,,1641,1872,,,,90,1
5efe59519563aa3504e9966a,v8rw02xk2q,Trevor_EX2,1,148,2020-10-23T15:02:26-07:00,3.997052192688,2,Pure_Unrelated.csv,SF_VersionB.csv,"Sans F B","Sans F B",MALT,CHOCOLATE,BUFFER2,Buffer,88,50,JOL_SF,User,-,"How likely are you to correctly recall the second item in the pair?|Type your response on a scale from 0-100 and then press Enter.",Study/JOL,BUFFER4,3598,,,2687,3524,,,,53,1
5efe59519563aa3504e9966a,v8rw02xk2q,Trevor_EX2,1,149,2020-10-23T15:02:30-07:00,3.1642317771912,2,Pure_Unrelated.csv,SF_VersionB.csv,"Sans F B","Sans F B",THING,STUFF,BUFFER2,Buffer,90,49,JOL_SF,User,-,"How likely are you to correctly recall the second item in the pair?|Type your response on a scale from 0-100 and then press Enter.",Study/JOL,BUFFER4,2765,,,2446,2580,,,,80,1
5efe59519563aa3504e9966a,v8rw02xk2q,Trevor_EX2,1,150,2020-10-23T15:02:32-07:00,2.1173670291901,2,Pure_Unrelated.csv,SF_VersionB.csv,"Sans F B","Sans F B",SHERRIF,POLICE,BUFFER2,Buffer,87,51,JOL_SF,User,-,"How likely are you to correctly recall the second item in the pair?|Type your response on a scale from 0-100 and then press Enter.",Study/JOL,BUFFER4,1720,,,1185,1519,,,,95,1
5efe59519563aa3504e9966a,v8rw02xk2q,Trevor_EX2,1,151,2020-10-23T15:02:34-07:00,2.3062851428986,2,Pure_Unrelated.csv,SF_VersionB.csv,"Sans F B","Sans F B",GEESE,GOOSE,BUFFER2,Buffer,86,47,JOL,User,-,"How likely are you to correctly recall the second item in the pair?|Type your response on a scale from 0-100 and then press Enter.",Study/JOL,BUFFER4,1883,,,876,1026,,,,95,1
5efe59519563aa3504e9966a,v8rw02xk2q,Trevor_EX2,1,152,2020-10-23T15:02:36-07:00,2.039039850235,2,Pure_Unrelated.csv,SF_VersionB.csv,"Sans F B","Sans F B",,,,,,0,Instruct,User,-,"You have completed this section. Please press Enter.",Filler_Instruction,Instruct5,1656,,,-1,-1,,,,,1
5efe59519563aa3504e9966a,v8rw02xk2q,Trevor_EX2,1,153,2020-10-23T15:04:37-07:00,120.49130821228,2,Pure_Unrelated.csv,SF_VersionB.csv,"Sans F B","Sans F B",,,,,,0,FreeRecall,120,120,"Please list the 50 US states in reverse alphabetical order (z - a). The task will automatically advance to the next screen after two minutes.",,Filler2,120002,"Washington Seattle Montana ",0,5543,95695,0,0,,,0.928
5efe59519563aa3504e9966a,v8rw02xk2q,Trevor_EX2,1,154,2020-10-23T15:04:48-07:00,11.857971906662,2,Pure_Unrelated.csv,SF_VersionB.csv,"Sans F B","Sans F B",,,,,,0,Instruct,-,10,"You will now be presented with the first word from each of the previously studied item pairs. Please type the missing word. If you do not know the word, you may guess or press Enter to skip forward to the next pair.",,Instruct6,11229,,,-1,-1,,,,,0.86
5efe59519563aa3504e9966a,v8rw02xk2q,Trevor_EX2,1,155,2020-10-23T15:04:52-07:00,3.5480899810791,2,Pure_Unrelated.csv,SF_VersionB.csv,"Sans F B","Sans F B",THICK,CONTEST,Study1,U,73,17,Test,User,-,,Recall,Recall2,2939,,0,-1,-1,0,0,,,1
5efe59519563aa3504e9966a,v8rw02xk2q,Trevor_EX2,1,156,2020-10-23T15:04:56-07:00,3.631777048111,2,Pure_Unrelated.csv,SF_VersionB.csv,"Sans F B","Sans F B",BAT,SHAKY,Study1,U,66,22,Test,User,-,,Recall,Recall2,3223,Clutter,0,1366,3142,0,0,,,1
5efe59519563aa3504e9966a,v8rw02xk2q,Trevor_EX2,1,157,2020-10-23T15:04:58-07:00,2.599879026413,2,Pure_Unrelated.csv,SF_VersionB.csv,"Sans F B","Sans F B",MAZE,ELECTION,Study1,U,9,26,Test,User,-,,Recall,Recall2,2200,Runner,14.285714285714,1295,2135,0,0,,,1
5efe59519563aa3504e9966a,v8rw02xk2q,Trevor_EX2,1,158,2020-10-23T15:05:00-07:00,1.2780690193176,2,Pure_Unrelated.csv,SF_VersionB.csv,"Sans F B","Sans F B",LEASE,TOIL,Study1,U,20,29,Test,User,-,,Recall,Recall2,869,,0,-1,-1,0,0,,,1
5efe59519563aa3504e9966a,v8rw02xk2q,Trevor_EX2,1,159,2020-10-23T15:05:01-07:00,1.1899988651276,2,Pure_Unrelated.csv,SF_VersionB.csv,"Sans F B","Sans F B",ROSE,NEGLECT,Study1,U,82,40,Test,User,-,,Recall,Recall2,826,,0,-1,-1,0,0,,,1
5efe59519563aa3504e9966a,v8rw02xk2q,Trevor_EX2,1,160,2020-10-23T15:05:04-07:00,3.068078994751,2,Pure_Unrelated.csv,SF_VersionB.csv,"Sans F B","Sans F B",DIZZY,SWEATER,Study1,U,77,12,Test,User,-,,Recall,Recall2,1666,,0,-1,-1,0,0,,,1
5efe59519563aa3504e9966a,v8rw02xk2q,Trevor_EX2,1,161,2020-10-23T15:05:05-07:00,1.5748150348663,2,Pure_Unrelated.csv,SF_VersionB.csv,"Sans F B","Sans F B",TAX,OWL,Study1,U,72,32,Test,User,-,,Recall,Recall2,1163,,0,-1,-1,0,0,,,1
5efe59519563aa3504e9966a,v8rw02xk2q,Trevor_EX2,1,162,2020-10-23T15:05:07-07:00,1.4271740913391,2,Pure_Unrelated.csv,SF_VersionB.csv,"Sans F B","Sans F B",FUZZY,BANG,Study1,U,18,42,Test,User,-,,Recall,Recall2,1040,,0,-1,-1,0,0,,,1
5efe59519563aa3504e9966a,v8rw02xk2q,Trevor_EX2,1,163,2020-10-23T15:05:08-07:00,1.6579649448395,2,Pure_Unrelated.csv,SF_VersionB.csv,"Sans F B","Sans F B",INFLATE,DISGUST,Study1,U,76,20,Test,User,-,,Recall,Recall2,1290,,0,-1,-1,0,0,,,1
5efe59519563aa3504e9966a,v8rw02xk2q,Trevor_EX2,1,164,2020-10-23T15:05:13-07:00,4.1773149967194,2,Pure_Unrelated.csv,SF_VersionB.csv,"Sans F B","Sans F B",MOAT,CLEAR,Study1,U,19,41,Test,User,-,,Recall,Recall2,1434,,0,-1,-1,0,0,,,1
5efe59519563aa3504e9966a,v8rw02xk2q,Trevor_EX2,1,165,2020-10-23T15:05:14-07:00,1.6491918563843,2,Pure_Unrelated.csv,SF_VersionB.csv,"Sans F B","Sans F B",NAME,HATE,Study1,U,17,38,Test,User,-,,Recall,Recall2,1248,,0,-1,-1,0,0,,,1
5efe59519563aa3504e9966a,v8rw02xk2q,Trevor_EX2,1,166,2020-10-23T15:05:18-07:00,3.6795980930328,2,Pure_Unrelated.csv,SF_VersionB.csv,"Sans F B","Sans F B",DIFFICULT,POOR,Study1,U,81,25,Test,User,-,,Recall,Recall2,3275,,0,-1,-1,0,0,,,1
5efe59519563aa3504e9966a,v8rw02xk2q,Trevor_EX2,1,167,2020-10-23T15:05:24-07:00,6.3480219841003,2,Pure_Unrelated.csv,SF_VersionB.csv,"Sans F B","Sans F B",MEAT,OBTAIN,Study1,U,11,15,Test,User,-,,Recall,Recall2,5961,poultry,30.769230769231,3904,5863,0,0,,,1
5efe59519563aa3504e9966a,v8rw02xk2q,Trevor_EX2,1,168,2020-10-23T15:05:27-07:00,2.8239800930023,2,Pure_Unrelated.csv,SF_VersionB.csv,"Sans F B","Sans F B",GRIND,STAND,Study1,U,85,9,Test,User,-,,Recall,Recall2,1402,,0,-1,-1,0,0,,,1
5efe59519563aa3504e9966a,v8rw02xk2q,Trevor_EX2,1,169,2020-10-23T15:05:32-07:00,4.6220638751984,2,Pure_Unrelated.csv,SF_VersionB.csv,"Sans F B","Sans F B",NUMBER,HARD,Study1,U,78,45,Test,User,-,,Recall,Recall2,3233,lette,0,2329,3008,0,0,,,1
5efe59519563aa3504e9966a,v8rw02xk2q,Trevor_EX2,1,170,2020-10-23T15:05:33-07:00,1.6125471591949,2,Pure_Unrelated.csv,SF_VersionB.csv,"Sans F B","Sans F B",SHELL,SHAKE,Study1,U,13,24,Test,User,-,,Recall,Recall2,1202,,0,-1,-1,0,0,,,1
5efe59519563aa3504e9966a,v8rw02xk2q,Trevor_EX2,1,171,2020-10-23T15:05:37-07:00,3.9921679496765,2,Pure_Unrelated.csv,SF_VersionB.csv,"Sans F B","Sans F B",FUTURE,SINCERE,Study1,U,70,28,Test,User,-,,Recall,Recall2,2420,PAST,18.181818181818,1499,2259,0,0,,,1
5efe59519563aa3504e9966a,v8rw02xk2q,Trevor_EX2,1,172,2020-10-23T15:05:42-07:00,4.8255920410156,2,Pure_Unrelated.csv,SF_VersionB.csv,"Sans F B","Sans F B",LISTEN,FICTION,Study1,U,14,34,Test,User,-,,Recall,Recall2,4086,hear,0,2534,4020,0,0,,,1
5efe59519563aa3504e9966a,v8rw02xk2q,Trevor_EX2,1,173,2020-10-23T15:05:50-07:00,7.7230958938599,2,Pure_Unrelated.csv,SF_VersionB.csv,"Sans F B","Sans F B",TEMPERATURE,MORNING,Study1,U,23,16,Test,User,-,,Recall,Recall2,5856,MORNING,100,2271,5679,1,1,,,1
5efe59519563aa3504e9966a,v8rw02xk2q,Trevor_EX2,1,174,2020-10-23T15:05:52-07:00,1.6471660137177,2,Pure_Unrelated.csv,SF_VersionB.csv,"Sans F B","Sans F B",CRACKLE,ABLE,Study1,U,12,46,Test,User,-,,Recall,Recall2,1241,,0,-1,-1,0,0,,,1
5efe59519563aa3504e9966a,v8rw02xk2q,Trevor_EX2,1,175,2020-10-23T15:05:55-07:00,3.1036179065704,2,Pure_Unrelated.csv,SF_VersionB.csv,"Sans F B","Sans F B",VEHICLE,CHARM,Study1,U,10,8,Test,User,-,,Recall,Recall2,2723,Drive,20,1618,2675,0,0,,,1
5efe59519563aa3504e9966a,v8rw02xk2q,Trevor_EX2,1,176,2020-10-23T15:05:56-07:00,1.2072880268097,2,Pure_Unrelated.csv,SF_VersionB.csv,"Sans F B","Sans F B",JUSTICE,MAROON,Study1,U,6,31,Test,User,-,,Recall,Recall2,733,,0,-1,-1,0,0,,,1
5efe59519563aa3504e9966a,v8rw02xk2q,Trevor_EX2,1,177,2020-10-23T15:05:57-07:00,1.5325720310211,2,Pure_Unrelated.csv,SF_VersionB.csv,"Sans F B","Sans F B",MIRROR,CHILDREN,Study1,U,24,23,Test,User,-,,Recall,Recall2,722,,0,-1,-1,0,0,,,1
5efe59519563aa3504e9966a,v8rw02xk2q,Trevor_EX2,1,178,2020-10-23T15:06:10-07:00,12.280894041061,2,Pure_Unrelated.csv,SF_VersionB.csv,"Sans F B","Sans F B",PARCEL,THROAT,Study1,U,67,37,Test,User,-,,Recall,Recall2,11566,"SORE THROAT",70.588235294118,4603,11091,0,0,,,1
5efe59519563aa3504e9966a,v8rw02xk2q,Trevor_EX2,1,179,2020-10-23T15:06:14-07:00,4.0063269138336,2,Pure_Unrelated.csv,SF_VersionB.csv,"Sans F B","Sans F B",LOAN,SIGN,Study1,U,21,19,Test,User,-,,Recall,Recall2,3374,PAY,0,2772,3076,0,0,,,1
5efe59519563aa3504e9966a,v8rw02xk2q,Trevor_EX2,1,180,2020-10-23T15:06:15-07:00,1.7654411792755,2,Pure_Unrelated.csv,SF_VersionB.csv,"Sans F B","Sans F B",DONKEY,LUSH,Study1,U,84,30,Test,User,-,,Recall,Recall2,1343,,0,-1,-1,0,0,,,1
5efe59519563aa3504e9966a,v8rw02xk2q,Trevor_EX2,1,181,2020-10-23T15:06:17-07:00,1.3034448623657,2,Pure_Unrelated.csv,SF_VersionB.csv,"Sans F B","Sans F B",MAIN,SCAR,Study1,U,25,35,Test,User,-,,Recall,Recall2,910,,0,-1,-1,0,0,,,1
5efe59519563aa3504e9966a,v8rw02xk2q,Trevor_EX2,1,182,2020-10-23T15:06:27-07:00,9.9669940471649,2,Pure_Unrelated.csv,SF_VersionB.csv,"Sans F B","Sans F B",DEGREE,CHAIR,Study1,U,71,21,Test,User,-,,Recall,Recall2,9583,,0,-1,-1,0,0,,,1
5efe59519563aa3504e9966a,v8rw02xk2q,Trevor_EX2,1,183,2020-10-23T15:06:28-07:00,1.1602640151978,2,Pure_Unrelated.csv,SF_VersionB.csv,"Sans F B","Sans F B",WARN,SEA,Study1,U,80,39,Test,User,-,,Recall,Recall2,730,,0,-1,-1,0,0,,,1
5efe59519563aa3504e9966a,v8rw02xk2q,Trevor_EX2,1,184,2020-10-23T15:06:30-07:00,1.9191429615021,2,Pure_Unrelated.csv,SF_VersionB.csv,"Sans F B","Sans F B",BOTH,OUNCE,Study1,U,22,13,Test,User,-,,Recall,Recall2,1519,,0,-1,-1,0,0,,,1
5efe59519563aa3504e9966a,v8rw02xk2q,Trevor_EX2,1,185,2020-10-23T15:06:31-07:00,1.6199579238892,2,Pure_Unrelated.csv,SF_VersionB.csv,"Sans F B","Sans F B",STRETCH,CLOTH,Study1,U,7,14,Test,User,-,,Recall,Recall2,1221,,0,-1,-1,0,0,,,1
5efe59519563aa3504e9966a,v8rw02xk2q,Trevor_EX2,1,186,2020-10-23T15:06:34-07:00,2.1168570518494,2,Pure_Unrelated.csv,SF_VersionB.csv,"Sans F B","Sans F B",CAKE,CLOTHES,Study1,U,16,7,Test,User,-,,Recall,Recall2,1692,,0,-1,-1,0,0,,,1
5efe59519563aa3504e9966a,v8rw02xk2q,Trevor_EX2,1,187,2020-10-23T15:06:38-07:00,4.6565990447998,2,Pure_Unrelated.csv,SF_VersionB.csv,"Sans F B","Sans F B",KEYS,JOKE,Study1,U,15,11,Test,User,-,,Recall,Recall2,4229,,0,-1,-1,0,0,,,1
5efe59519563aa3504e9966a,v8rw02xk2q,Trevor_EX2,1,188,2020-10-23T15:06:40-07:00,2.2522850036621,2,Pure_Unrelated.csv,SF_VersionB.csv,"Sans F B","Sans F B",BROAD,INFECT,Study1,U,75,36,Test,User,-,,Recall,Recall2,1812,,0,-1,-1,0,0,,,1
5efe59519563aa3504e9966a,v8rw02xk2q,Trevor_EX2,1,189,2020-10-23T15:06:50-07:00,9.122062921524,2,Pure_Unrelated.csv,SF_VersionB.csv,"Sans F B","Sans F B",GIVE,STEAK,Study1,U,8,10,Test,User,-,,Recall,Recall2,8716,TAKE,66.666666666667,8165,8635,0,0,,,1
5efe59519563aa3504e9966a,v8rw02xk2q,Trevor_EX2,1,190,2020-10-23T15:06:56-07:00,6.1109941005707,2,Pure_Unrelated.csv,SF_VersionB.csv,"Sans F B","Sans F B",RESIST,GLUE,Study1,U,69,27,Test,User,-,,Recall,Recall2,5710,,0,-1,-1,0,0,,,1
5efe59519563aa3504e9966a,v8rw02xk2q,Trevor_EX2,1,191,2020-10-23T15:06:58-07:00,2.4315428733826,2,Pure_Unrelated.csv,SF_VersionB.csv,"Sans F B","Sans F B",STRESS,YAM,Study1,U,68,18,Test,User,-,,Recall,Recall2,1915,,0,-1,-1,0,0,,,1
5efe59519563aa3504e9966a,v8rw02xk2q,Trevor_EX2,1,192,2020-10-23T15:07:00-07:00,1.6917052268982,2,Pure_Unrelated.csv,SF_VersionB.csv,"Sans F B","Sans F B",RIPE,VERIFY,Study1,U,83,43,Test,User,-,,Recall,Recall2,1297,,0,-1,-1,0,0,,,1
5efe59519563aa3504e9966a,v8rw02xk2q,Trevor_EX2,1,193,2020-10-23T15:07:03-07:00,2.797534942627,2,Pure_Unrelated.csv,SF_VersionB.csv,"Sans F B","Sans F B",CRAYON,RATE,Study1,U,79,33,Test,User,-,,Recall,Recall2,2389,,0,-1,-1,0,0,,,1
5efe59519563aa3504e9966a,v8rw02xk2q,Trevor_EX2,1,194,2020-10-23T15:07:11-07:00,8.0471358299255,2,Pure_Unrelated.csv,SF_VersionB.csv,"Sans F B","Sans F B",PET,MOON,Study1,U,74,44,Test,User,-,,Recall,Recall2,7651,,0,-1,-1,0,0,,,1
5efe59519563aa3504e9966a,v8rw02xk2q,Trevor_EX2,1,195,2020-10-23T15:07:12-07:00,1.2391791343689,2,Pure_Unrelated.csv,SF_VersionB.csv,"Sans F B","Sans F B",,,,,,0,Instruct,User,-,"You have completed this section. Please press Enter.",,Instruct7,846,,,-1,-1,,,,,1
5efe59519563aa3504e9966a,v8rw02xk2q,Trevor_EX2,1,196,2020-10-23T15:07:14-07:00,1.8501350879669,2,Pure_Unrelated.csv,SF_VersionB.csv,"Sans F B","Sans F B",,,,,,0,Instruct,User,-,"The following screen will ask you a few questions abour your experience today. You must complete these questions to receive credit.",,Instruct8,1462,,,-1,-1,,,,,1
