Username,ID,ExperimentName,Session,Trial,Date,TimeDif,"Condition Number","Stimuli File","Order File","Condition Description","Condition Notes",Stimuli*Cue,Stimuli*Answer,Stimuli*Shuffle,"Stimuli*Stimuli Notes",Stimuli*Value,Procedure*Item,"Procedure*Trial Type","Procedure*Max Time","Procedure*Min Time",Procedure*Text,"Procedure*Procedure Notes",Procedure*Shuffle,Response*RT,Response*Response,Response*Accuracy,Response*RTfirst,Response*RTlast,Response*strictAcc,Response*lenientAcc,Response*focus,Response*JOL,Response*Focus
5f2b3d6952f67f5672d25a10,rie7vvwzqp,Trevor_EX2,1,1,2020-10-23T14:51:45-07:00,52.461888074875,4,Pure_Unrelated.csv,Control_VersionB.csv,"Control B","Control B",,,,,,0,Instruct,-,5,"In this section, you will be presented with a series of word pairs.",Initial_Instruct,Instruct1,51223,,,-1,-1,,,,,0.292
5f2b3d6952f67f5672d25a10,rie7vvwzqp,Trevor_EX2,1,2,2020-10-23T14:53:34-07:00,108.43265581131,4,Pure_Unrelated.csv,Control_VersionB.csv,"Control B","Control B",,,,,,0,Instruct,-,5,"As you study, you will be asked to rate your ability to remember the second item in the pair if you were only shown the first at test. You will make these ratings using a 0 to 100 Scale.",,Instruct13,107802,,,-1,-1,,,,,1
5f2b3d6952f67f5672d25a10,rie7vvwzqp,Trevor_EX2,1,3,2020-10-23T14:54:17-07:00,43.831087112427,4,Pure_Unrelated.csv,Control_VersionB.csv,"Control B","Control B",,,,,,0,Instruct,-,10,"For example, if you are given the pair CAT - DOG, a rating of 0 indicates that you would not remember DOG at test, while a rating of 100 indicates full certainty that you would remember the word DOG at test.",,Instruct14,43462,,,-1,-1,,,,,1
5f2b3d6952f67f5672d25a10,rie7vvwzqp,Trevor_EX2,1,4,2020-10-23T14:54:28-07:00,10.980309963226,4,Pure_Unrelated.csv,Control_VersionB.csv,"Control B","Control B",,,,,,0,Instruct,-,10,"When making your ratings, it is criticial that you use the full range of the scale. You will be disqualified for only giving ratings of 0 or 100! After making your rating, press Enter to advance to the next pair.",,Instruct15,10639,,,-1,-1,,,,,1
5f2b3d6952f67f5672d25a10,rie7vvwzqp,Trevor_EX2,1,5,2020-10-23T14:54:31-07:00,2.6063179969788,4,Pure_Unrelated.csv,Control_VersionB.csv,"Control B","Control B",,,,,,0,Instruct,User,-,"You will now begin the study. Press Enter when you are ready to begin.",,Instruct16,2282,,,-1,-1,,,,,1
5f2b3d6952f67f5672d25a10,rie7vvwzqp,Trevor_EX2,1,6,2020-10-23T14:54:47-07:00,16.488900899887,4,Pure_Unrelated.csv,Control_VersionB.csv,"Control B","Control B",CARROT,POTATO,BUFFER3,Buffer,91,55,JOL,User,-,"How likely are you to correctly recall the second item in the pair?|Type your response on a scale from 0-100 and then press Enter.",Study/JOL,BUFFER,16196,,,14915,15022,,,,40,0.481
5f2b3d6952f67f5672d25a10,rie7vvwzqp,Trevor_EX2,1,7,2020-10-23T14:54:57-07:00,9.567253112793,4,Pure_Unrelated.csv,Control_VersionB.csv,"Control B","Control B",SHRIMP,FISH,BUFFER3,Buffer,93,53,JOL,User,-,"How likely are you to correctly recall the second item in the pair?|Type your response on a scale from 0-100 and then press Enter.",Study/JOL,BUFFER,9215,,,7962,8096,,,,60,0.574
5f2b3d6952f67f5672d25a10,rie7vvwzqp,Trevor_EX2,1,8,2020-10-23T14:55:06-07:00,9.2794499397278,4,Pure_Unrelated.csv,Control_VersionB.csv,"Control B","Control B",NOODLE,STRING,BUFFER3,Buffer,92,56,JOL,User,-,"How likely are you to correctly recall the second item in the pair?|Type your response on a scale from 0-100 and then press Enter.",Study/JOL,BUFFER,7947,,,6035,6313,,,,80,0.575
5f2b3d6952f67f5672d25a10,rie7vvwzqp,Trevor_EX2,1,9,2020-10-23T14:55:15-07:00,8.7284240722656,4,Pure_Unrelated.csv,Control_VersionB.csv,"Control B","Control B",ICE,FROZEN,BUFFER3,Buffer,94,52,JOL,User,-,"How likely are you to correctly recall the second item in the pair?|Type your response on a scale from 0-100 and then press Enter.",Study/JOL,BUFFER,8174,,,6026,6993,,,,85,0.537
5f2b3d6952f67f5672d25a10,rie7vvwzqp,Trevor_EX2,1,10,2020-10-23T14:55:24-07:00,8.756903886795,4,Pure_Unrelated.csv,Control_VersionB.csv,"Control B","Control B",CAMP,ADVENTURE,BUFFER3,Buffer,95,54,JOL,User,-,"How likely are you to correctly recall the second item in the pair?|Type your response on a scale from 0-100 and then press Enter.",Study/JOL,BUFFER,8464,,,6976,7287,,,,70,0.512
5f2b3d6952f67f5672d25a10,rie7vvwzqp,Trevor_EX2,1,11,2020-10-23T14:55:32-07:00,8.7159759998322,4,Pure_Unrelated.csv,Control_VersionB.csv,"Control B","Control B",SMOOTH,OMIT,Study2,U,157,74,JOL,User,-,"How likely are you to correctly recall the second item in the pair?|Type your response on a scale from 0-100 and then press Enter.",Study/JOL,"Study Phase",8410,,,6279,6742,,,,25,0.535
5f2b3d6952f67f5672d25a10,rie7vvwzqp,Trevor_EX2,1,12,2020-10-23T14:55:39-07:00,6.696456193924,4,Pure_Unrelated.csv,Control_VersionB.csv,"Control B","Control B",SYSTEM,LICK,Study2,U,167,75,JOL,User,-,"How likely are you to correctly recall the second item in the pair?|Type your response on a scale from 0-100 and then press Enter.",Study/JOL,"Study Phase",6389,,,5231,5374,,,,10,0.469
5f2b3d6952f67f5672d25a10,rie7vvwzqp,Trevor_EX2,1,13,2020-10-23T14:55:47-07:00,8.1769499778748,4,Pure_Unrelated.csv,Control_VersionB.csv,"Control B","Control B",ROAD,SCENT,Study2,U,166,66,JOL,User,-,"How likely are you to correctly recall the second item in the pair?|Type your response on a scale from 0-100 and then press Enter.",Study/JOL,"Study Phase",7881,,,6658,7001,,,,15,0.525
5f2b3d6952f67f5672d25a10,rie7vvwzqp,Trevor_EX2,1,14,2020-10-23T14:55:56-07:00,9.0124869346619,4,Pure_Unrelated.csv,Control_VersionB.csv,"Control B","Control B",WOULD,CASH,Study2,U,113,65,JOL,User,-,"How likely are you to correctly recall the second item in the pair?|Type your response on a scale from 0-100 and then press Enter.",Study/JOL,"Study Phase",8688,,,7725,7725,,,,5,0.545
5f2b3d6952f67f5672d25a10,rie7vvwzqp,Trevor_EX2,1,15,2020-10-23T14:56:05-07:00,8.3673529624939,4,Pure_Unrelated.csv,Control_VersionB.csv,"Control B","Control B",WASTE,SEDATE,Study2,U,165,77,JOL,User,-,"How likely are you to correctly recall the second item in the pair?|Type your response on a scale from 0-100 and then press Enter.",Study/JOL,"Study Phase",8057,,,6966,7101,,,,10,0.488
5f2b3d6952f67f5672d25a10,rie7vvwzqp,Trevor_EX2,1,16,2020-10-23T14:56:12-07:00,7.6884050369263,4,Pure_Unrelated.csv,Control_VersionB.csv,"Control B","Control B",WOMAN,LIFT,Study2,U,99,90,JOL,User,-,"How likely are you to correctly recall the second item in the pair?|Type your response on a scale from 0-100 and then press Enter.",Study/JOL,"Study Phase",7386,,,6359,6445,,,,10,0.541
5f2b3d6952f67f5672d25a10,rie7vvwzqp,Trevor_EX2,1,17,2020-10-23T14:56:19-07:00,6.8814570903778,4,Pure_Unrelated.csv,Control_VersionB.csv,"Control B","Control B",LION,ART,Study2,U,109,94,JOL,User,-,"How likely are you to correctly recall the second item in the pair?|Type your response on a scale from 0-100 and then press Enter.",Study/JOL,"Study Phase",6577,,,4124,5435,,,,15,0.545
5f2b3d6952f67f5672d25a10,rie7vvwzqp,Trevor_EX2,1,18,2020-10-23T14:56:28-07:00,8.2988958358765,4,Pure_Unrelated.csv,Control_VersionB.csv,"Control B","Control B",RIDDLE,SUGAR,Study2,U,111,68,JOL,User,-,"How likely are you to correctly recall the second item in the pair?|Type your response on a scale from 0-100 and then press Enter.",Study/JOL,"Study Phase",8008,,,6465,6648,,,,20,0.61
5f2b3d6952f67f5672d25a10,rie7vvwzqp,Trevor_EX2,1,19,2020-10-23T14:56:35-07:00,7.7510981559753,4,Pure_Unrelated.csv,Control_VersionB.csv,"Control B","Control B",GUARD,WHEEL,Study2,U,170,76,JOL,User,-,"How likely are you to correctly recall the second item in the pair?|Type your response on a scale from 0-100 and then press Enter.",Study/JOL,"Study Phase",7454,,,6189,6356,,,,17,0.526
5f2b3d6952f67f5672d25a10,rie7vvwzqp,Trevor_EX2,1,20,2020-10-23T14:56:43-07:00,7.6748898029327,4,Pure_Unrelated.csv,Control_VersionB.csv,"Control B","Control B",BRONZE,ARTERY,Study2,U,104,91,JOL,User,-,"How likely are you to correctly recall the second item in the pair?|Type your response on a scale from 0-100 and then press Enter.",Study/JOL,"Study Phase",7344,,,6103,6358,,,,20,0.405
5f2b3d6952f67f5672d25a10,rie7vvwzqp,Trevor_EX2,1,21,2020-10-23T14:56:53-07:00,10.018345117569,4,Pure_Unrelated.csv,Control_VersionB.csv,"Control B","Control B",CLUTTER,PUSHER,Study2,U,96,92,JOL,User,-,"How likely are you to correctly recall the second item in the pair?|Type your response on a scale from 0-100 and then press Enter.",Study/JOL,"Study Phase",9716,,,7559,8421,,,,10,0.49
5f2b3d6952f67f5672d25a10,rie7vvwzqp,Trevor_EX2,1,22,2020-10-23T14:57:02-07:00,9.215390920639,4,Pure_Unrelated.csv,Control_VersionB.csv,"Control B","Control B",HAND,FIX,Study2,U,105,73,JOL,User,-,"How likely are you to correctly recall the second item in the pair?|Type your response on a scale from 0-100 and then press Enter.",Study/JOL,"Study Phase",7844,,,6548,6665,,,,40,0.55
5f2b3d6952f67f5672d25a10,rie7vvwzqp,Trevor_EX2,1,23,2020-10-23T14:57:13-07:00,11.032991170883,4,Pure_Unrelated.csv,Control_VersionB.csv,"Control B","Control B",SICK,HIDE,Study2,U,114,84,JOL,User,-,"How likely are you to correctly recall the second item in the pair?|Type your response on a scale from 0-100 and then press Enter.",Study/JOL,"Study Phase",9735,,,8384,8726,,,,35,0.592
5f2b3d6952f67f5672d25a10,rie7vvwzqp,Trevor_EX2,1,24,2020-10-23T14:57:22-07:00,8.6208310127258,4,Pure_Unrelated.csv,Control_VersionB.csv,"Control B","Control B",Business,Death,Study2,U,102,57,JOL,User,-,"How likely are you to correctly recall the second item in the pair?|Type your response on a scale from 0-100 and then press Enter.",Study/JOL,"Study Phase",8307,,,6840,7143,,,,30,0.524
5f2b3d6952f67f5672d25a10,rie7vvwzqp,Trevor_EX2,1,25,2020-10-23T14:57:33-07:00,10.777000904083,4,Pure_Unrelated.csv,Control_VersionB.csv,"Control B","Control B",DETECT,FREE,Study2,U,162,95,JOL,User,-,"How likely are you to correctly recall the second item in the pair?|Type your response on a scale from 0-100 and then press Enter.",Study/JOL,"Study Phase",10477,,,8697,8833,,,,30,0.547
5f2b3d6952f67f5672d25a10,rie7vvwzqp,Trevor_EX2,1,26,2020-10-23T14:57:42-07:00,8.894779920578,4,Pure_Unrelated.csv,Control_VersionB.csv,"Control B","Control B",ADD,VALLEY,Study2,U,112,87,JOL,User,-,"How likely are you to correctly recall the second item in the pair?|Type your response on a scale from 0-100 and then press Enter.",Study/JOL,"Study Phase",7601,,,6309,6620,,,,20,0.447
5f2b3d6952f67f5672d25a10,rie7vvwzqp,Trevor_EX2,1,27,2020-10-23T14:57:49-07:00,7.0298471450806,4,Pure_Unrelated.csv,Control_VersionB.csv,"Control B","Control B",DESIRE,NOISE,Study2,U,169,62,JOL,User,-,"How likely are you to correctly recall the second item in the pair?|Type your response on a scale from 0-100 and then press Enter.",Study/JOL,"Study Phase",6713,,,5316,5652,,,,35,0.324
5f2b3d6952f67f5672d25a10,rie7vvwzqp,Trevor_EX2,1,28,2020-10-23T14:58:06-07:00,17.288158893585,4,Pure_Unrelated.csv,Control_VersionB.csv,"Control B","Control B",VASE,KING,Study2,U,115,88,JOL,User,-,"How likely are you to correctly recall the second item in the pair?|Type your response on a scale from 0-100 and then press Enter.",Study/JOL,"Study Phase",16993,,,15255,15877,,,,23,0.176
5f2b3d6952f67f5672d25a10,rie7vvwzqp,Trevor_EX2,1,29,2020-10-23T14:58:13-07:00,7.4411630630493,4,Pure_Unrelated.csv,Control_VersionB.csv,"Control B","Control B",PUT,ROLL,Study2,U,163,61,JOL,User,-,"How likely are you to correctly recall the second item in the pair?|Type your response on a scale from 0-100 and then press Enter.",Study/JOL,"Study Phase",7064,,,6011,6369,,,,21,0.444
5f2b3d6952f67f5672d25a10,rie7vvwzqp,Trevor_EX2,1,30,2020-10-23T14:58:22-07:00,9.0562870502472,4,Pure_Unrelated.csv,Control_VersionB.csv,"Control B","Control B",MUTE,WAVE,Study2,U,173,60,JOL,User,-,"How likely are you to correctly recall the second item in the pair?|Type your response on a scale from 0-100 and then press Enter.",Study/JOL,"Study Phase",8756,,,7727,7829,,,,30,0.568
5f2b3d6952f67f5672d25a10,rie7vvwzqp,Trevor_EX2,1,31,2020-10-23T14:58:33-07:00,10.941260814667,4,Pure_Unrelated.csv,Control_VersionB.csv,"Control B","Control B",SLIM,KNOW,Study2,U,164,86,JOL,User,-,"How likely are you to correctly recall the second item in the pair?|Type your response on a scale from 0-100 and then press Enter.",Study/JOL,"Study Phase",10639,,,6404,6891,,,,23,0.648
5f2b3d6952f67f5672d25a10,rie7vvwzqp,Trevor_EX2,1,32,2020-10-23T14:58:46-07:00,12.961532115936,4,Pure_Unrelated.csv,Control_VersionB.csv,"Control B","Control B",ZOO,THUMB,Study2,U,168,79,JOL,User,-,"How likely are you to correctly recall the second item in the pair?|Type your response on a scale from 0-100 and then press Enter.",Study/JOL,"Study Phase",12653,,,11256,11383,,,,30,0.688
5f2b3d6952f67f5672d25a10,rie7vvwzqp,Trevor_EX2,1,33,2020-10-23T14:58:57-07:00,11.149389982224,4,Pure_Unrelated.csv,Control_VersionB.csv,"Control B","Control B",SACKING,DIETARY,Study2,U,97,67,JOL,User,-,"How likely are you to correctly recall the second item in the pair?|Type your response on a scale from 0-100 and then press Enter.",Study/JOL,"Study Phase",10769,,,8879,8991,,,,20,0.574
5f2b3d6952f67f5672d25a10,rie7vvwzqp,Trevor_EX2,1,34,2020-10-23T14:59:09-07:00,11.874438047409,4,Pure_Unrelated.csv,Control_VersionB.csv,"Control B","Control B",JELLY,NAUGHTY,Study2,U,172,93,JOL,User,-,"How likely are you to correctly recall the second item in the pair?|Type your response on a scale from 0-100 and then press Enter.",Study/JOL,"Study Phase",11546,,,8861,10324,,,,23,0.552
5f2b3d6952f67f5672d25a10,rie7vvwzqp,Trevor_EX2,1,35,2020-10-23T14:59:17-07:00,7.7383959293365,4,Pure_Unrelated.csv,Control_VersionB.csv,"Control B","Control B",ACCIDENT,STRONG,Study2,U,110,85,JOL,User,-,"How likely are you to correctly recall the second item in the pair?|Type your response on a scale from 0-100 and then press Enter.",Study/JOL,"Study Phase",7379,,,6181,6299,,,,20,0.351
5f2b3d6952f67f5672d25a10,rie7vvwzqp,Trevor_EX2,1,36,2020-10-23T14:59:25-07:00,7.673947095871,4,Pure_Unrelated.csv,Control_VersionB.csv,"Control B","Control B",PUFF,NUMBER,Study2,U,171,80,JOL,User,-,"How likely are you to correctly recall the second item in the pair?|Type your response on a scale from 0-100 and then press Enter.",Study/JOL,"Study Phase",7373,,,6322,6618,,,,24,0.486
5f2b3d6952f67f5672d25a10,rie7vvwzqp,Trevor_EX2,1,37,2020-10-23T14:59:33-07:00,8.3583688735962,4,Pure_Unrelated.csv,Control_VersionB.csv,"Control B","Control B",FLOOR,DISCOVER,Study2,U,101,83,JOL,User,-,"How likely are you to correctly recall the second item in the pair?|Type your response on a scale from 0-100 and then press Enter.",Study/JOL,"Study Phase",8019,,,6965,7052,,,,30,0.537
5f2b3d6952f67f5672d25a10,rie7vvwzqp,Trevor_EX2,1,38,2020-10-23T14:59:47-07:00,13.83790397644,4,Pure_Unrelated.csv,Control_VersionB.csv,"Control B","Control B",LAKE,OPINION,Study2,U,160,72,JOL,User,-,"How likely are you to correctly recall the second item in the pair?|Type your response on a scale from 0-100 and then press Enter.",Study/JOL,"Study Phase",13534,,,11696,12438,,,,24,0.397
5f2b3d6952f67f5672d25a10,rie7vvwzqp,Trevor_EX2,1,39,2020-10-23T14:59:57-07:00,10.127147197723,4,Pure_Unrelated.csv,Control_VersionB.csv,"Control B","Control B",CAR,HAPPY,Study2,U,107,70,JOL,User,-,"How likely are you to correctly recall the second item in the pair?|Type your response on a scale from 0-100 and then press Enter.",Study/JOL,"Study Phase",9827,,,8444,8635,,,,50,0.64
5f2b3d6952f67f5672d25a10,rie7vvwzqp,Trevor_EX2,1,40,2020-10-23T15:00:06-07:00,8.4979569911957,4,Pure_Unrelated.csv,Control_VersionB.csv,"Control B","Control B",HUNGRY,PARK,Study2,U,98,82,JOL,User,-,"How likely are you to correctly recall the second item in the pair?|Type your response on a scale from 0-100 and then press Enter.",Study/JOL,"Study Phase",8150,,,7164,7386,,,,24,0.341
5f2b3d6952f67f5672d25a10,rie7vvwzqp,Trevor_EX2,1,41,2020-10-23T15:00:15-07:00,9.8424208164215,4,Pure_Unrelated.csv,Control_VersionB.csv,"Control B","Control B",FLOAT,HARMONY,Study2,U,161,63,JOL,User,-,"How likely are you to correctly recall the second item in the pair?|Type your response on a scale from 0-100 and then press Enter.",Study/JOL,"Study Phase",9534,,,7603,8634,,,,21,0.479
5f2b3d6952f67f5672d25a10,rie7vvwzqp,Trevor_EX2,1,42,2020-10-23T15:00:24-07:00,9.0448579788208,4,Pure_Unrelated.csv,Control_VersionB.csv,"Control B","Control B",BELT,SOON,Study2,U,100,69,JOL,User,-,"How likely are you to correctly recall the second item in the pair?|Type your response on a scale from 0-100 and then press Enter.",Study/JOL,"Study Phase",8729,,,6760,7135,,,,32,0.614
5f2b3d6952f67f5672d25a10,rie7vvwzqp,Trevor_EX2,1,43,2020-10-23T15:00:33-07:00,8.3010380268097,4,Pure_Unrelated.csv,Control_VersionB.csv,"Control B","Control B",TUCK,ALLOW,Study2,U,108,89,JOL,User,-,"How likely are you to correctly recall the second item in the pair?|Type your response on a scale from 0-100 and then press Enter.",Study/JOL,"Study Phase",7996,,,6884,7333,,,,23,0.575
5f2b3d6952f67f5672d25a10,rie7vvwzqp,Trevor_EX2,1,44,2020-10-23T15:00:39-07:00,6.712767124176,4,Pure_Unrelated.csv,Control_VersionB.csv,"Control B","Control B",NULL,COUGH,Study2,U,156,64,JOL,User,-,"How likely are you to correctly recall the second item in the pair?|Type your response on a scale from 0-100 and then press Enter.",Study/JOL,"Study Phase",6418,,,5394,5561,,,,32,1
5f2b3d6952f67f5672d25a10,rie7vvwzqp,Trevor_EX2,1,45,2020-10-23T15:00:41-07:00,1.6850738525391,4,Pure_Unrelated.csv,Control_VersionB.csv,"Control B","Control B",STOMACH,TOWN,Study2,U,159,71,JOL,User,-,"How likely are you to correctly recall the second item in the pair?|Type your response on a scale from 0-100 and then press Enter.",Study/JOL,"Study Phase",1390,,,592,720,,,,23,1
5f2b3d6952f67f5672d25a10,rie7vvwzqp,Trevor_EX2,1,46,2020-10-23T15:00:44-07:00,2.5044231414795,4,Pure_Unrelated.csv,Control_VersionB.csv,"Control B","Control B",SWING,FOG,Study2,U,175,59,JOL,User,-,"How likely are you to correctly recall the second item in the pair?|Type your response on a scale from 0-100 and then press Enter.",Study/JOL,"Study Phase",2204,,,411,698,,,,43,1
5f2b3d6952f67f5672d25a10,rie7vvwzqp,Trevor_EX2,1,47,2020-10-23T15:00:46-07:00,2.425714969635,4,Pure_Unrelated.csv,Control_VersionB.csv,"Control B","Control B",SPELL,BONE,Study2,U,174,78,JOL,User,-,"How likely are you to correctly recall the second item in the pair?|Type your response on a scale from 0-100 and then press Enter.",Study/JOL,"Study Phase",2122,,,851,1170,,,,43,1
5f2b3d6952f67f5672d25a10,rie7vvwzqp,Trevor_EX2,1,48,2020-10-23T15:00:52-07:00,5.8639950752258,4,Pure_Unrelated.csv,Control_VersionB.csv,"Control B","Control B",POSITION,MACHINE,Study2,U,106,96,JOL,User,-,"How likely are you to correctly recall the second item in the pair?|Type your response on a scale from 0-100 and then press Enter.",Study/JOL,"Study Phase",5361,,,2119,4333,,,,67,1
5f2b3d6952f67f5672d25a10,rie7vvwzqp,Trevor_EX2,1,49,2020-10-23T15:00:55-07:00,3.1837339401245,4,Pure_Unrelated.csv,Control_VersionB.csv,"Control B","Control B",SWING,FOG,Study2,U,175,59,JOL,User,-,"How likely are you to correctly recall the second item in the pair?|Type your response on a scale from 0-100 and then press Enter.",Study/JOL,"Study Phase",2675,,,1776,2023,,,,34,1
5f2b3d6952f67f5672d25a10,rie7vvwzqp,Trevor_EX2,1,50,2020-10-23T15:00:58-07:00,2.5843958854675,4,Pure_Unrelated.csv,Control_VersionB.csv,"Control B","Control B",READY,CORN,Study2,U,158,81,JOL,User,-,"How likely are you to correctly recall the second item in the pair?|Type your response on a scale from 0-100 and then press Enter.",Study/JOL,"Study Phase",2074,,,819,1419,,,,32,1
5f2b3d6952f67f5672d25a10,rie7vvwzqp,Trevor_EX2,1,51,2020-10-23T15:01:02-07:00,4.728621006012,4,Pure_Unrelated.csv,Control_VersionB.csv,"Control B","Control B",SPRING,MARCH,BUFFER4,Buffer,179,100,JOL,User,-,"How likely are you to correctly recall the second item in the pair?|Type your response on a scale from 0-100 and then press Enter.",Study/JOL,BUFFER2,4335,,,400,2902,,,,80,1
5f2b3d6952f67f5672d25a10,rie7vvwzqp,Trevor_EX2,1,52,2020-10-23T15:01:06-07:00,3.1580421924591,4,Pure_Unrelated.csv,Control_VersionB.csv,"Control B","Control B",OCTOBER,SPOOKY,BUFFER4,Buffer,180,99,JOL,User,-,"How likely are you to correctly recall the second item in the pair?|Type your response on a scale from 0-100 and then press Enter.",Study/JOL,BUFFER2,2792,,,1627,1866,,,,90,1
5f2b3d6952f67f5672d25a10,rie7vvwzqp,Trevor_EX2,1,53,2020-10-23T15:01:11-07:00,5.6108009815216,4,Pure_Unrelated.csv,Control_VersionB.csv,"Control B","Control B",MONTH,YEAR,BUFFER4,Buffer,177,98,JOL,User,-,"How likely are you to correctly recall the second item in the pair?|Type your response on a scale from 0-100 and then press Enter.",Study/JOL,BUFFER2,5254,,,1520,4104,,,,99,1
5f2b3d6952f67f5672d25a10,rie7vvwzqp,Trevor_EX2,1,54,2020-10-23T15:01:16-07:00,4.3495659828186,4,Pure_Unrelated.csv,Control_VersionB.csv,"Control B","Control B",TOOL,SHED,BUFFER4,Buffer,178,97,JOL,User,-,"How likely are you to correctly recall the second item in the pair?|Type your response on a scale from 0-100 and then press Enter.",Study/JOL,BUFFER2,2746,,,1579,1746,,,,99,1
5f2b3d6952f67f5672d25a10,rie7vvwzqp,Trevor_EX2,1,55,2020-10-23T15:01:19-07:00,3.0408849716187,4,Pure_Unrelated.csv,Control_VersionB.csv,"Control B","Control B",DAYS,WEEKS,BUFFER4,Buffer,176,101,JOL,User,-,"How likely are you to correctly recall the second item in the pair?|Type your response on a scale from 0-100 and then press Enter.",Study/JOL,BUFFER2,2714,,,1301,1452,,,,99,1
5f2b3d6952f67f5672d25a10,rie7vvwzqp,Trevor_EX2,1,56,2020-10-23T15:01:20-07:00,1.8022918701172,4,Pure_Unrelated.csv,Control_VersionB.csv,"Control B","Control B",,,,,,0,Instruct,User,-,"You have completed this section. Please press Enter.",Filler_Instruction,Instruct2,1511,,,-1,-1,,,,,1
5f2b3d6952f67f5672d25a10,rie7vvwzqp,Trevor_EX2,1,57,2020-10-23T15:03:21-07:00,120.45044207573,4,Pure_Unrelated.csv,Control_VersionB.csv,"Control B","Control B",,,,,,0,FreeRecall,120,120,"Please list the 50 US states in alphabetical order. The task will automatically advance to the next screen after two minutes.",,Filler1,120002," Alabama Alaska Arizona Arkansas California Colorado Connecticut Delaware Florida Georgia Hawaii Idaho Illinois Indiana Iowa Kansas Kentucky Louisiana Maine Maryland Massachusetts Michigan Minnesota Mississippi Missouri Montana Nebraska Nevada New Hampshire New Jersey New Mexico New York North Carolina North Dakota Ohio Oklahoma Oregon Pennsylvania Rhode Island South Carolina South Dakota Tennessee Texas Utah Vermont Virginia Washington West Virginia Wisconsin Wyoming",0,-1,-1,0,0,,,0.273
5f2b3d6952f67f5672d25a10,rie7vvwzqp,Trevor_EX2,1,58,2020-10-23T15:03:36-07:00,15.534228086472,4,Pure_Unrelated.csv,Control_VersionB.csv,"Control B","Control B",,,,,,0,Instruct,-,10,"You will now be presented with the first word from each of the previously studied item pairs. Please type the missing word. If you do not know the word, you may guess or press Enter to skip forward to the next pair.",,Instruct3,15093,,,-1,-1,,,,,0.263
5f2b3d6952f67f5672d25a10,rie7vvwzqp,Trevor_EX2,1,59,2020-10-23T15:03:46-07:00,9.3873908519745,4,Pure_Unrelated.csv,Control_VersionB.csv,"Control B","Control B",PUFF,NUMBER,Study2,U,171,80,Test,User,-,,Recall,Recall1,9048,number,100,6997,7979,1,1,,,0.63
5f2b3d6952f67f5672d25a10,rie7vvwzqp,Trevor_EX2,1,60,2020-10-23T15:03:57-07:00,11.326862096786,4,Pure_Unrelated.csv,Control_VersionB.csv,"Control B","Control B",DESIRE,NOISE,Study2,U,169,62,Test,User,-,,Recall,Recall1,10996,n/a,25,9522,10009,0,0,,,0.745
5f2b3d6952f67f5672d25a10,rie7vvwzqp,Trevor_EX2,1,61,2020-10-23T15:04:05-07:00,7.5486109256744,4,Pure_Unrelated.csv,Control_VersionB.csv,"Control B","Control B",WASTE,SEDATE,Study2,U,165,77,Test,User,-,,Recall,Recall1,7208,sedate,100,5152,6231,1,1,,,0.541
5f2b3d6952f67f5672d25a10,rie7vvwzqp,Trevor_EX2,1,62,2020-10-23T15:04:14-07:00,9.5216829776764,4,Pure_Unrelated.csv,Control_VersionB.csv,"Control B","Control B",RIDDLE,SUGAR,Study2,U,111,68,Test,User,-,,Recall,Recall1,9222,chiddle,0,5556,6628,0,0,,,0.723
5f2b3d6952f67f5672d25a10,rie7vvwzqp,Trevor_EX2,1,63,2020-10-23T15:04:21-07:00,6.584536075592,4,Pure_Unrelated.csv,Control_VersionB.csv,"Control B","Control B",HAND,FIX,Study2,U,105,73,Test,User,-,,Recall,Recall1,6243,face,28.571428571429,4936,5430,0,0,,,0.531
5f2b3d6952f67f5672d25a10,rie7vvwzqp,Trevor_EX2,1,64,2020-10-23T15:04:31-07:00,10.401649951935,4,Pure_Unrelated.csv,Control_VersionB.csv,"Control B","Control B",JELLY,NAUGHTY,Study2,U,172,93,Test,User,-,,Recall,Recall1,10094,naughty,100,8058,9113,1,1,,,0.667
5f2b3d6952f67f5672d25a10,rie7vvwzqp,Trevor_EX2,1,65,2020-10-23T15:04:36-07:00,5.0244569778442,4,Pure_Unrelated.csv,Control_VersionB.csv,"Control B","Control B",ZOO,THUMB,Study2,U,168,79,Test,User,-,,Recall,Recall1,4680,toe,25,3203,3530,0,0,,,1
5f2b3d6952f67f5672d25a10,rie7vvwzqp,Trevor_EX2,1,66,2020-10-23T15:04:46-07:00,10.138332128525,4,Pure_Unrelated.csv,Control_VersionB.csv,"Control B","Control B",BRONZE,ARTERY,Study2,U,104,91,Test,User,-,,Recall,Recall1,9847,artistic,42.857142857143,5832,8886,0,0,,,0.64
5f2b3d6952f67f5672d25a10,rie7vvwzqp,Trevor_EX2,1,67,2020-10-23T15:04:55-07:00,8.5870888233185,4,Pure_Unrelated.csv,Control_VersionB.csv,"Control B","Control B",DETECT,FREE,Study2,U,162,95,Test,User,-,,Recall,Recall1,8248,protect,36.363636363636,6205,7316,0,0,,,0.667
5f2b3d6952f67f5672d25a10,rie7vvwzqp,Trevor_EX2,1,68,2020-10-23T15:05:04-07:00,8.9502031803131,4,Pure_Unrelated.csv,Control_VersionB.csv,"Control B","Control B",LAKE,OPINION,Study2,U,160,72,Test,User,-,,Recall,Recall1,8647,option,76.923076923077,6805,7581,0,1,,,0.636
5f2b3d6952f67f5672d25a10,rie7vvwzqp,Trevor_EX2,1,69,2020-10-23T15:05:13-07:00,8.8796038627625,4,Pure_Unrelated.csv,Control_VersionB.csv,"Control B","Control B",ACCIDENT,STRONG,Study2,U,110,85,Test,User,-,,Recall,Recall1,8567,wrong,72.727272727273,6058,6664,0,0,,,0.674
5f2b3d6952f67f5672d25a10,rie7vvwzqp,Trevor_EX2,1,70,2020-10-23T15:05:20-07:00,7.1563560962677,4,Pure_Unrelated.csv,Control_VersionB.csv,"Control B","Control B",SWING,FOG,Study2,U,175,59,Test,User,-,,Recall,Recall1,6862,bin,0,5632,5911,0,0,,,0.543
5f2b3d6952f67f5672d25a10,rie7vvwzqp,Trevor_EX2,1,71,2020-10-23T15:05:28-07:00,8.4499230384827,4,Pure_Unrelated.csv,Control_VersionB.csv,"Control B","Control B",WOULD,CASH,Study2,U,113,65,Test,User,-,,Recall,Recall1,8149,cash,100,6509,6988,1,1,,,0.415
5f2b3d6952f67f5672d25a10,rie7vvwzqp,Trevor_EX2,1,72,2020-10-23T15:05:41-07:00,13.048352956772,4,Pure_Unrelated.csv,Control_VersionB.csv,"Control B","Control B",SICK,HIDE,Study2,U,114,84,Test,User,-,,Recall,Recall1,12734,n/a,0,8700,11883,0,0,,,0.797
5f2b3d6952f67f5672d25a10,rie7vvwzqp,Trevor_EX2,1,73,2020-10-23T15:05:45-07:00,3.5565760135651,4,Pure_Unrelated.csv,Control_VersionB.csv,"Control B","Control B",SMOOTH,OMIT,Study2,U,157,74,Test,User,-,,Recall,Recall1,3254,butter,20,1681,2367,0,0,,,1
5f2b3d6952f67f5672d25a10,rie7vvwzqp,Trevor_EX2,1,74,2020-10-23T15:05:56-07:00,11.521528959274,4,Pure_Unrelated.csv,Control_VersionB.csv,"Control B","Control B",SYSTEM,LICK,Study2,U,167,75,Test,User,-,,Recall,Recall1,11230,click,88.888888888889,8909,9493,0,1,,,0.544
5f2b3d6952f67f5672d25a10,rie7vvwzqp,Trevor_EX2,1,75,2020-10-23T15:06:10-07:00,13.41325211525,4,Pure_Unrelated.csv,Control_VersionB.csv,"Control B","Control B",POSITION,MACHINE,Study2,U,106,96,Test,User,-,,Recall,Recall1,13069,adventure,25,10754,12102,0,0,,,0.47
5f2b3d6952f67f5672d25a10,rie7vvwzqp,Trevor_EX2,1,76,2020-10-23T15:06:15-07:00,4.662321805954,4,Pure_Unrelated.csv,Control_VersionB.csv,"Control B","Control B",GUARD,WHEEL,Study2,U,170,76,Test,User,-,,Recall,Recall1,4317,rail,22.222222222222,2082,3408,0,0,,,1
5f2b3d6952f67f5672d25a10,rie7vvwzqp,Trevor_EX2,1,77,2020-10-23T15:06:23-07:00,8.8659629821777,4,Pure_Unrelated.csv,Control_VersionB.csv,"Control B","Control B",SPELL,BONE,Study2,U,174,78,Test,User,-,,Recall,Recall1,8570,bound,66.666666666667,5563,8058,0,0,,,0.651
5f2b3d6952f67f5672d25a10,rie7vvwzqp,Trevor_EX2,1,78,2020-10-23T15:06:30-07:00,6.918927192688,4,Pure_Unrelated.csv,Control_VersionB.csv,"Control B","Control B",READY,CORN,Study2,U,158,81,Test,User,-,,Recall,Recall1,6620,set,0,5254,5822,0,0,,,0.529
5f2b3d6952f67f5672d25a10,rie7vvwzqp,Trevor_EX2,1,79,2020-10-23T15:06:39-07:00,8.3281178474426,4,Pure_Unrelated.csv,Control_VersionB.csv,"Control B","Control B",CAR,HAPPY,Study2,U,107,70,Test,User,-,,Recall,Recall1,7989,happy,100,5647,6654,1,1,,,0.575
5f2b3d6952f67f5672d25a10,rie7vvwzqp,Trevor_EX2,1,80,2020-10-23T15:06:45-07:00,6.1272311210632,4,Pure_Unrelated.csv,Control_VersionB.csv,"Control B","Control B",Business,Death,Study2,U,102,57,Test,User,-,,Recall,Recall1,5832,meeting,33.333333333333,4179,4986,0,0,,,1
5f2b3d6952f67f5672d25a10,rie7vvwzqp,Trevor_EX2,1,81,2020-10-23T15:06:50-07:00,5.0756108760834,4,Pure_Unrelated.csv,Control_VersionB.csv,"Control B","Control B",SLIM,KNOW,Study2,U,164,86,Test,User,-,,Recall,Recall1,4774,jim,0,3381,3708,0,0,,,1
5f2b3d6952f67f5672d25a10,rie7vvwzqp,Trevor_EX2,1,82,2020-10-23T15:07:01-07:00,10.665939092636,4,Pure_Unrelated.csv,Control_VersionB.csv,"Control B","Control B",STOMACH,TOWN,Study2,U,159,71,Test,User,-,,Recall,Recall1,10365,n/a,28.571428571429,8858,9473,0,0,,,1
5f2b3d6952f67f5672d25a10,rie7vvwzqp,Trevor_EX2,1,83,2020-10-23T15:07:09-07:00,8.263897895813,4,Pure_Unrelated.csv,Control_VersionB.csv,"Control B","Control B",BELT,SOON,Study2,U,100,69,Test,User,-,,Recall,Recall1,7929,track,0,6254,7020,0,0,,,1
5f2b3d6952f67f5672d25a10,rie7vvwzqp,Trevor_EX2,1,84,2020-10-23T15:07:16-07:00,7.1959199905396,4,Pure_Unrelated.csv,Control_VersionB.csv,"Control B","Control B",MUTE,WAVE,Study2,U,173,60,Test,User,-,,Recall,Recall1,6899,wave,100,5372,5987,1,1,,,1
5f2b3d6952f67f5672d25a10,rie7vvwzqp,Trevor_EX2,1,85,2020-10-23T15:07:27-07:00,10.691450119019,4,Pure_Unrelated.csv,Control_VersionB.csv,"Control B","Control B",CLUTTER,PUSHER,Study2,U,96,92,Test,User,-,,Recall,Recall1,10391,mess,20,8972,9459,0,0,,,1
5f2b3d6952f67f5672d25a10,rie7vvwzqp,Trevor_EX2,1,86,2020-10-23T15:07:35-07:00,7.8321089744568,4,Pure_Unrelated.csv,Control_VersionB.csv,"Control B","Control B",HUNGRY,PARK,Study2,U,98,82,Test,User,-,,Recall,Recall1,7499,hippo,22.222222222222,5567,6342,0,0,,,1
5f2b3d6952f67f5672d25a10,rie7vvwzqp,Trevor_EX2,1,87,2020-10-23T15:07:40-07:00,5.7804300785065,4,Pure_Unrelated.csv,Control_VersionB.csv,"Control B","Control B",ADD,VALLEY,Study2,U,112,87,Test,User,-,,Recall,Recall1,5467,subtrack,14.285714285714,1490,3233,0,0,,,1
5f2b3d6952f67f5672d25a10,rie7vvwzqp,Trevor_EX2,1,88,2020-10-23T15:07:52-07:00,11.581135988235,4,Pure_Unrelated.csv,Control_VersionB.csv,"Control B","Control B",FLOAT,HARMONY,Study2,U,161,63,Test,User,-,,Recall,Recall1,11247,harm,72.727272727273,5459,8481,0,0,,,1
5f2b3d6952f67f5672d25a10,rie7vvwzqp,Trevor_EX2,1,89,2020-10-23T15:07:58-07:00,6.3603558540344,4,Pure_Unrelated.csv,Control_VersionB.csv,"Control B","Control B",TUCK,ALLOW,Study2,U,108,89,Test,User,-,,Recall,Recall1,6025,nip,0,1980,4787,0,0,,,1
5f2b3d6952f67f5672d25a10,rie7vvwzqp,Trevor_EX2,1,90,2020-10-23T15:08:01-07:00,3.269926071167,4,Pure_Unrelated.csv,Control_VersionB.csv,"Control B","Control B",SACKING,DIETARY,Study2,U,97,67,Test,User,-,,Recall,Recall1,2966,bag,20,1720,2103,0,0,,,1
5f2b3d6952f67f5672d25a10,rie7vvwzqp,Trevor_EX2,1,91,2020-10-23T15:08:12-07:00,10.066232919693,4,Pure_Unrelated.csv,Control_VersionB.csv,"Control B","Control B",WOMAN,LIFT,Study2,U,99,90,Test,User,-,,Recall,Recall1,9767,shoe,0,7768,8223,0,0,,,1
5f2b3d6952f67f5672d25a10,rie7vvwzqp,Trevor_EX2,1,92,2020-10-23T15:08:26-07:00,14.773377180099,4,Pure_Unrelated.csv,Control_VersionB.csv,"Control B","Control B",ROAD,SCENT,Study2,U,166,66,Test,User,-,,Recall,Recall1,14436,scene,80,9945,13374,0,1,,,1
5f2b3d6952f67f5672d25a10,rie7vvwzqp,Trevor_EX2,1,93,2020-10-23T15:08:34-07:00,7.7730629444122,4,Pure_Unrelated.csv,Control_VersionB.csv,"Control B","Control B",LION,ART,Study2,U,109,94,Test,User,-,,Recall,Recall1,7435,tiger,25,2864,6366,0,0,,,1
5f2b3d6952f67f5672d25a10,rie7vvwzqp,Trevor_EX2,1,94,2020-10-23T15:08:37-07:00,3.1443400382996,4,Pure_Unrelated.csv,Control_VersionB.csv,"Control B","Control B",NULL,COUGH,Study2,U,156,64,Test,User,-,,Recall,Recall1,2820,void,22.222222222222,1147,2010,0,0,,,1
5f2b3d6952f67f5672d25a10,rie7vvwzqp,Trevor_EX2,1,95,2020-10-23T15:08:48-07:00,10.304035902023,4,Pure_Unrelated.csv,Control_VersionB.csv,"Control B","Control B",PUT,ROLL,Study2,U,163,61,Test,User,-,,Recall,Recall1,9947,out,28.571428571429,8241,9327,0,0,,,1
5f2b3d6952f67f5672d25a10,rie7vvwzqp,Trevor_EX2,1,96,2020-10-23T15:08:56-07:00,8.0565268993378,4,Pure_Unrelated.csv,Control_VersionB.csv,"Control B","Control B",VASE,KING,Study2,U,115,88,Test,User,-,,Recall,Recall1,7721,case,0,6350,7037,0,0,,,1
5f2b3d6952f67f5672d25a10,rie7vvwzqp,Trevor_EX2,1,97,2020-10-23T15:09:02-07:00,6.3413209915161,4,Pure_Unrelated.csv,Control_VersionB.csv,"Control B","Control B",FLOOR,DISCOVER,Study2,U,101,83,Test,User,-,,Recall,Recall1,6032,door,50,4695,5286,0,0,,,1
5f2b3d6952f67f5672d25a10,rie7vvwzqp,Trevor_EX2,1,98,2020-10-23T15:09:09-07:00,6.6453762054443,4,Pure_Unrelated.csv,Control_VersionB.csv,"Control B","Control B",SWING,FOG,Study2,U,175,59,Test,User,-,,Recall,Recall1,6325,ring,28.571428571429,4376,4983,0,0,,,1
5f2b3d6952f67f5672d25a10,rie7vvwzqp,Trevor_EX2,1,99,2020-10-23T15:09:24-07:00,15.376976013184,4,Pure_Unrelated.csv,Control_VersionB.csv,"Control B","Control B",,,,,,0,Instruct,-,10,"You will now be presented with a new set of word pairs. Please study each pair. Remember that your memory will be tested! When finished, press Enter to move to the next pair.",Initial_Instruct,Instruct4,15073,,,-1,-1,,,,,0.763
5f2b3d6952f67f5672d25a10,rie7vvwzqp,Trevor_EX2,1,100,2020-10-23T15:09:37-07:00,12.742915868759,4,Pure_Unrelated.csv,Control_VersionB.csv,"Control B","Control B",,,,,,0,Instruct,,10,"You will again be asked to rate your ability to remember these items using a 0 to 100 scale. Remember to use the full range of the scale!",,Instruct10,12407,,,-1,-1,,,,,1
5f2b3d6952f67f5672d25a10,rie7vvwzqp,Trevor_EX2,1,101,2020-10-23T15:09:39-07:00,1.9081671237946,4,Pure_Unrelated.csv,Control_VersionB.csv,"Control B","Control B",,,,,,0,Instruct,User,-,"Press Enter when you are readty to begin",,Instruct11,1575,,,-1,-1,,,,,1
5f2b3d6952f67f5672d25a10,rie7vvwzqp,Trevor_EX2,1,102,2020-10-23T15:09:47-07:00,8.2744479179382,4,Pure_Unrelated.csv,Control_VersionB.csv,"Control B","Control B",BASEBALL,CATCHER,BUFFER1,Buffer,2,5,JOL,User,-,"How likely are you to correctly recall the second item in the pair?|Type your response on a scale from 0-100 and then press Enter.",Study/JOL,BUFFER3,7967,,,6656,6815,,,,60,0.475
5f2b3d6952f67f5672d25a10,rie7vvwzqp,Trevor_EX2,1,103,2020-10-23T15:09:53-07:00,5.8263590335846,4,Pure_Unrelated.csv,Control_VersionB.csv,"Control B","Control B",SCARE,HIDE,BUFFER1,Buffer,4,3,JOL,User,-,"How likely are you to correctly recall the second item in the pair?|Type your response on a scale from 0-100 and then press Enter.",Study/JOL,BUFFER3,5524,,,4636,5146,,,,65,0.429
5f2b3d6952f67f5672d25a10,rie7vvwzqp,Trevor_EX2,1,104,2020-10-23T15:10:00-07:00,7.2297868728638,4,Pure_Unrelated.csv,Control_VersionB.csv,"Control B","Control B",PEANUT,BUTTER,BUFFER1,Buffer,3,6,JOL,User,-,"How likely are you to correctly recall the second item in the pair?|Type your response on a scale from 0-100 and then press Enter.",Study/JOL,BUFFER3,6899,,,5491,5761,,,,80,0.514
5f2b3d6952f67f5672d25a10,rie7vvwzqp,Trevor_EX2,1,105,2020-10-23T15:10:07-07:00,6.7748630046844,4,Pure_Unrelated.csv,Control_VersionB.csv,"Control B","Control B",TREES,GREEN,BUFFER1,Buffer,1,4,JOL,User,-,"How likely are you to correctly recall the second item in the pair?|Type your response on a scale from 0-100 and then press Enter.",Study/JOL,BUFFER3,6478,,,5182,5437,,,,80,0.485
5f2b3d6952f67f5672d25a10,rie7vvwzqp,Trevor_EX2,1,106,2020-10-23T15:10:14-07:00,7.1279489994049,4,Pure_Unrelated.csv,Control_VersionB.csv,"Control B","Control B",SPACE,JAM,BUFFER1,Buffer,5,2,JOL,User,-,"How likely are you to correctly recall the second item in the pair?|Type your response on a scale from 0-100 and then press Enter.",Study/JOL,BUFFER3,6787,,,4909,5906,,,,95,0.588
5f2b3d6952f67f5672d25a10,rie7vvwzqp,Trevor_EX2,1,107,2020-10-23T15:10:23-07:00,8.7804131507874,4,Pure_Unrelated.csv,Control_VersionB.csv,"Control B","Control B",PARCEL,THROAT,Study1,U,67,27,JOL,User,-,"How likely are you to correctly recall the second item in the pair?|Type your response on a scale from 0-100 and then press Enter.",Study/JOL,"Study Phase2",8486,,,7578,7857,,,,23,0.326
5f2b3d6952f67f5672d25a10,rie7vvwzqp,Trevor_EX2,1,108,2020-10-23T15:10:29-07:00,5.9076788425446,4,Pure_Unrelated.csv,Control_VersionB.csv,"Control B","Control B",ROSE,NEGLECT,Study1,U,82,45,JOL,User,-,"How likely are you to correctly recall the second item in the pair?|Type your response on a scale from 0-100 and then press Enter.",Study/JOL,"Study Phase2",5616,,,4769,5008,,,,23,0.345
5f2b3d6952f67f5672d25a10,rie7vvwzqp,Trevor_EX2,1,109,2020-10-23T15:10:36-07:00,7.3864979743958,4,Pure_Unrelated.csv,Control_VersionB.csv,"Control B","Control B",INFLATE,DISGUST,Study1,U,76,38,JOL,User,-,"How likely are you to correctly recall the second item in the pair?|Type your response on a scale from 0-100 and then press Enter.",Study/JOL,"Study Phase2",7057,,,6102,6452,,,,22,0.278
5f2b3d6952f67f5672d25a10,rie7vvwzqp,Trevor_EX2,1,110,2020-10-23T15:10:48-07:00,11.788377046585,4,Pure_Unrelated.csv,Control_VersionB.csv,"Control B","Control B",FUZZY,BANG,Study1,U,18,10,JOL,User,-,"How likely are you to correctly recall the second item in the pair?|Type your response on a scale from 0-100 and then press Enter.",Study/JOL,"Study Phase2",11482,,,6314,6689,,,,2,0.672
5f2b3d6952f67f5672d25a10,rie7vvwzqp,Trevor_EX2,1,111,2020-10-23T15:10:57-07:00,9.2970039844513,4,Pure_Unrelated.csv,Control_VersionB.csv,"Control B","Control B",NUMBER,HARD,Study1,U,78,8,JOL,User,-,"How likely are you to correctly recall the second item in the pair?|Type your response on a scale from 0-100 and then press Enter.",Study/JOL,"Study Phase2",8941,,,7938,8178,,,,23,0.422
5f2b3d6952f67f5672d25a10,rie7vvwzqp,Trevor_EX2,1,112,2020-10-23T15:11:04-07:00,7.0782670974731,4,Pure_Unrelated.csv,Control_VersionB.csv,"Control B","Control B",DONKEY,LUSH,Study1,U,84,11,JOL,User,-,"How likely are you to correctly recall the second item in the pair?|Type your response on a scale from 0-100 and then press Enter.",Study/JOL,"Study Phase2",6743,,,5492,5809,,,,22,0.382
5f2b3d6952f67f5672d25a10,rie7vvwzqp,Trevor_EX2,1,113,2020-10-23T15:11:10-07:00,5.5434999465942,4,Pure_Unrelated.csv,Control_VersionB.csv,"Control B","Control B",NAME,HATE,Study1,U,17,46,JOL,User,-,"How likely are you to correctly recall the second item in the pair?|Type your response on a scale from 0-100 and then press Enter.",Study/JOL,"Study Phase2",5251,,,3981,4539,,,,43,0.519
5f2b3d6952f67f5672d25a10,rie7vvwzqp,Trevor_EX2,1,114,2020-10-23T15:11:17-07:00,7.8353040218353,4,Pure_Unrelated.csv,Control_VersionB.csv,"Control B","Control B",CAKE,CLOTHES,Study1,U,16,7,JOL,User,-,"How likely are you to correctly recall the second item in the pair?|Type your response on a scale from 0-100 and then press Enter.",Study/JOL,"Study Phase2",7538,,,5839,6077,,,,23,0.421
5f2b3d6952f67f5672d25a10,rie7vvwzqp,Trevor_EX2,1,115,2020-10-23T15:11:24-07:00,6.7921500205994,4,Pure_Unrelated.csv,Control_VersionB.csv,"Control B","Control B",DIZZY,SWEATER,Study1,U,77,25,JOL,User,-,"How likely are you to correctly recall the second item in the pair?|Type your response on a scale from 0-100 and then press Enter.",Study/JOL,"Study Phase2",6441,,,5525,5747,,,,12,0.303
5f2b3d6952f67f5672d25a10,rie7vvwzqp,Trevor_EX2,1,116,2020-10-23T15:11:32-07:00,8.1498610973358,4,Pure_Unrelated.csv,Control_VersionB.csv,"Control B","Control B",BROAD,INFECT,Study1,U,75,19,JOL,User,-,"How likely are you to correctly recall the second item in the pair?|Type your response on a scale from 0-100 and then press Enter.",Study/JOL,"Study Phase2",7806,,,6867,7018,,,,23,0.425
5f2b3d6952f67f5672d25a10,rie7vvwzqp,Trevor_EX2,1,117,2020-10-23T15:11:41-07:00,8.6873848438263,4,Pure_Unrelated.csv,Control_VersionB.csv,"Control B","Control B",JUSTICE,MAROON,Study1,U,6,43,JOL,User,-,"How likely are you to correctly recall the second item in the pair?|Type your response on a scale from 0-100 and then press Enter.",Study/JOL,"Study Phase2",7186,,,6195,6745,,,,21,0.333
5f2b3d6952f67f5672d25a10,rie7vvwzqp,Trevor_EX2,1,118,2020-10-23T15:11:50-07:00,9.1454610824585,4,Pure_Unrelated.csv,Control_VersionB.csv,"Control B","Control B",RIPE,VERIFY,Study1,U,83,41,JOL,User,-,"How likely are you to correctly recall the second item in the pair?|Type your response on a scale from 0-100 and then press Enter.",Study/JOL,"Study Phase2",8698,,,7231,7966,,,,31,0.477
5f2b3d6952f67f5672d25a10,rie7vvwzqp,Trevor_EX2,1,119,2020-10-23T15:11:58-07:00,7.4477078914642,4,Pure_Unrelated.csv,Control_VersionB.csv,"Control B","Control B",TEMPERATURE,MORNING,Study1,U,23,24,JOL,User,-,"How likely are you to correctly recall the second item in the pair?|Type your response on a scale from 0-100 and then press Enter.",Study/JOL,"Study Phase2",7116,,,6192,6423,,,,12,0.306
5f2b3d6952f67f5672d25a10,rie7vvwzqp,Trevor_EX2,1,120,2020-10-23T15:12:05-07:00,7.5664939880371,4,Pure_Unrelated.csv,Control_VersionB.csv,"Control B","Control B",WARN,SEA,Study1,U,80,36,JOL,User,-,"How likely are you to correctly recall the second item in the pair?|Type your response on a scale from 0-100 and then press Enter.",Study/JOL,"Study Phase2",7270,,,6557,6557,,,,4,0.486
5f2b3d6952f67f5672d25a10,rie7vvwzqp,Trevor_EX2,1,121,2020-10-23T15:12:10-07:00,4.77987408638,4,Pure_Unrelated.csv,Control_VersionB.csv,"Control B","Control B",MEAT,OBTAIN,Study1,U,11,31,JOL,User,-,"How likely are you to correctly recall the second item in the pair?|Type your response on a scale from 0-100 and then press Enter.",Study/JOL,"Study Phase2",4482,,,4116,4116,,,,2,0.391
5f2b3d6952f67f5672d25a10,rie7vvwzqp,Trevor_EX2,1,122,2020-10-23T15:12:24-07:00,13.767008066177,4,Pure_Unrelated.csv,Control_VersionB.csv,"Control B","Control B",MOAT,CLEAR,Study1,U,19,15,JOL,User,-,"How likely are you to correctly recall the second item in the pair?|Type your response on a scale from 0-100 and then press Enter.",Study/JOL,"Study Phase2",13425,,,12254,12254,,,,5,0.588
5f2b3d6952f67f5672d25a10,rie7vvwzqp,Trevor_EX2,1,123,2020-10-23T15:12:32-07:00,8.6065199375153,4,Pure_Unrelated.csv,Control_VersionB.csv,"Control B","Control B",DIFFICULT,POOR,Study1,U,81,22,JOL,User,-,"How likely are you to correctly recall the second item in the pair?|Type your response on a scale from 0-100 and then press Enter.",Study/JOL,"Study Phase2",8257,,,7326,7501,,,,32,0.548
5f2b3d6952f67f5672d25a10,rie7vvwzqp,Trevor_EX2,1,124,2020-10-23T15:12:39-07:00,6.2240860462189,4,Pure_Unrelated.csv,Control_VersionB.csv,"Control B","Control B",SHELL,SHAKE,Study1,U,13,17,JOL,User,-,"How likely are you to correctly recall the second item in the pair?|Type your response on a scale from 0-100 and then press Enter.",Study/JOL,"Study Phase2",5921,,,4611,5204,,,,23,0.367
5f2b3d6952f67f5672d25a10,rie7vvwzqp,Trevor_EX2,1,125,2020-10-23T15:12:45-07:00,6.5633819103241,4,Pure_Unrelated.csv,Control_VersionB.csv,"Control B","Control B",LISTEN,FICTION,Study1,U,14,12,JOL,User,-,"How likely are you to correctly recall the second item in the pair?|Type your response on a scale from 0-100 and then press Enter.",Study/JOL,"Study Phase2",6259,,,4363,5259,,,,23,0.438
5f2b3d6952f67f5672d25a10,rie7vvwzqp,Trevor_EX2,1,126,2020-10-23T15:12:56-07:00,10.50635099411,4,Pure_Unrelated.csv,Control_VersionB.csv,"Control B","Control B",GRIND,STAND,Study1,U,85,16,JOL,User,-,"How likely are you to correctly recall the second item in the pair?|Type your response on a scale from 0-100 and then press Enter.",Study/JOL,"Study Phase2",10203,,,7261,9100,,,,52,0.577
5f2b3d6952f67f5672d25a10,rie7vvwzqp,Trevor_EX2,1,127,2020-10-23T15:13:05-07:00,9.2194130420685,4,Pure_Unrelated.csv,Control_VersionB.csv,"Control B","Control B",DEGREE,CHAIR,Study1,U,71,26,JOL,User,-,"How likely are you to correctly recall the second item in the pair?|Type your response on a scale from 0-100 and then press Enter.",Study/JOL,"Study Phase2",8850,,,5782,7683,,,,43,0.511
5f2b3d6952f67f5672d25a10,rie7vvwzqp,Trevor_EX2,1,128,2020-10-23T15:13:16-07:00,10.70100402832,4,Pure_Unrelated.csv,Control_VersionB.csv,"Control B","Control B",MIRROR,CHILDREN,Study1,U,24,40,JOL,User,-,"How likely are you to correctly recall the second item in the pair?|Type your response on a scale from 0-100 and then press Enter.",Study/JOL,"Study Phase2",10403,,,2079,9421,,,,25,0.5
5f2b3d6952f67f5672d25a10,rie7vvwzqp,Trevor_EX2,1,129,2020-10-23T15:13:23-07:00,7.3345930576324,4,Pure_Unrelated.csv,Control_VersionB.csv,"Control B","Control B",BAT,SHAKY,Study1,U,66,37,JOL,User,-,"How likely are you to correctly recall the second item in the pair?|Type your response on a scale from 0-100 and then press Enter.",Study/JOL,"Study Phase2",7036,,,5881,6528,,,,42,0.528
5f2b3d6952f67f5672d25a10,rie7vvwzqp,Trevor_EX2,1,130,2020-10-23T15:13:32-07:00,9.3000209331512,4,Pure_Unrelated.csv,Control_VersionB.csv,"Control B","Control B",KEYS,JOKE,Study1,U,15,39,JOL,User,-,"How likely are you to correctly recall the second item in the pair?|Type your response on a scale from 0-100 and then press Enter.",Study/JOL,"Study Phase2",9005,,,6648,8055,,,,32,0.609
5f2b3d6952f67f5672d25a10,rie7vvwzqp,Trevor_EX2,1,131,2020-10-23T15:13:49-07:00,16.327302932739,4,Pure_Unrelated.csv,Control_VersionB.csv,"Control B","Control B",RESIST,GLUE,Study1,U,69,18,JOL,User,-,"How likely are you to correctly recall the second item in the pair?|Type your response on a scale from 0-100 and then press Enter.",Study/JOL,"Study Phase2",15996,,,13744,14820,,,,31,0.238
5f2b3d6952f67f5672d25a10,rie7vvwzqp,Trevor_EX2,1,132,2020-10-23T15:13:55-07:00,6.0621299743652,4,Pure_Unrelated.csv,Control_VersionB.csv,"Control B","Control B",PET,MOON,Study1,U,74,34,JOL,User,-,"How likely are you to correctly recall the second item in the pair?|Type your response on a scale from 0-100 and then press Enter.",Study/JOL,"Study Phase2",5758,,,5089,5089,,,,2,0.379
5f2b3d6952f67f5672d25a10,rie7vvwzqp,Trevor_EX2,1,133,2020-10-23T15:14:01-07:00,6.3562610149384,4,Pure_Unrelated.csv,Control_VersionB.csv,"Control B","Control B",LOAN,SIGN,Study1,U,21,35,JOL,User,-,"How likely are you to correctly recall the second item in the pair?|Type your response on a scale from 0-100 and then press Enter.",Study/JOL,"Study Phase2",6053,,,4772,4931,,,,23,0.452
5f2b3d6952f67f5672d25a10,rie7vvwzqp,Trevor_EX2,1,134,2020-10-23T15:14:07-07:00,5.8377859592438,4,Pure_Unrelated.csv,Control_VersionB.csv,"Control B","Control B",THICK,CONTEST,Study1,U,73,21,JOL,User,-,"How likely are you to correctly recall the second item in the pair?|Type your response on a scale from 0-100 and then press Enter.",Study/JOL,"Study Phase2",5518,,,4647,4838,,,,23,0.429
5f2b3d6952f67f5672d25a10,rie7vvwzqp,Trevor_EX2,1,135,2020-10-23T15:14:10-07:00,3.3190891742706,4,Pure_Unrelated.csv,Control_VersionB.csv,"Control B","Control B",STRETCH,CLOTH,Study1,U,7,33,JOL,User,-,"How likely are you to correctly recall the second item in the pair?|Type your response on a scale from 0-100 and then press Enter.",Study/JOL,"Study Phase2",2980,,,861,1124,,,,43,1
5f2b3d6952f67f5672d25a10,rie7vvwzqp,Trevor_EX2,1,136,2020-10-23T15:14:19-07:00,9.17360496521,4,Pure_Unrelated.csv,Control_VersionB.csv,"Control B","Control B",TAX,OWL,Study1,U,72,14,JOL,User,-,"How likely are you to correctly recall the second item in the pair?|Type your response on a scale from 0-100 and then press Enter.",Study/JOL,"Study Phase2",8881,,,8018,8320,,,,32,0.2
5f2b3d6952f67f5672d25a10,rie7vvwzqp,Trevor_EX2,1,137,2020-10-23T15:14:30-07:00,11.100578069687,4,Pure_Unrelated.csv,Control_VersionB.csv,"Control B","Control B",MAZE,ELECTION,Study1,U,9,42,JOL,User,-,"How likely are you to correctly recall the second item in the pair?|Type your response on a scale from 0-100 and then press Enter.",Study/JOL,"Study Phase2",10798,,,9140,9748,,,,14,1
5f2b3d6952f67f5672d25a10,rie7vvwzqp,Trevor_EX2,1,138,2020-10-23T15:14:38-07:00,7.9870069026947,4,Pure_Unrelated.csv,Control_VersionB.csv,"Control B","Control B",LEASE,TOIL,Study1,U,20,13,JOL,User,-,"How likely are you to correctly recall the second item in the pair?|Type your response on a scale from 0-100 and then press Enter.",Study/JOL,"Study Phase2",7682,,,6269,7196,,,,34,0.282
5f2b3d6952f67f5672d25a10,rie7vvwzqp,Trevor_EX2,1,139,2020-10-23T15:14:59-07:00,20.879890918732,4,Pure_Unrelated.csv,Control_VersionB.csv,"Control B","Control B",GIVE,STEAK,Study1,U,8,28,JOL,User,-,"How likely are you to correctly recall the second item in the pair?|Type your response on a scale from 0-100 and then press Enter.",Study/JOL,"Study Phase2",20577,,,19820,20171,,,,23,0.845
5f2b3d6952f67f5672d25a10,rie7vvwzqp,Trevor_EX2,1,140,2020-10-23T15:15:12-07:00,12.716011047363,4,Pure_Unrelated.csv,Control_VersionB.csv,"Control B","Control B",MAIN,SCAR,Study1,U,25,44,JOL,User,-,"How likely are you to correctly recall the second item in the pair?|Type your response on a scale from 0-100 and then press Enter.",Study/JOL,"Study Phase2",12404,,,11316,11841,,,,42,0.548
5f2b3d6952f67f5672d25a10,rie7vvwzqp,Trevor_EX2,1,141,2020-10-23T15:15:33-07:00,20.84575009346,4,Pure_Unrelated.csv,Control_VersionB.csv,"Control B","Control B",CRACKLE,ABLE,Study1,U,12,30,JOL,User,-,"How likely are you to correctly recall the second item in the pair?|Type your response on a scale from 0-100 and then press Enter.",Study/JOL,"Study Phase2",20487,,,19128,19613,,,,21,0.806
5f2b3d6952f67f5672d25a10,rie7vvwzqp,Trevor_EX2,1,142,2020-10-23T15:15:41-07:00,8.365975856781,4,Pure_Unrelated.csv,Control_VersionB.csv,"Control B","Control B",VEHICLE,CHARM,Study1,U,10,23,JOL,User,-,"How likely are you to correctly recall the second item in the pair?|Type your response on a scale from 0-100 and then press Enter.",Study/JOL,"Study Phase2",8027,,,6965,7618,,,,31,0.39
5f2b3d6952f67f5672d25a10,rie7vvwzqp,Trevor_EX2,1,143,2020-10-23T15:15:49-07:00,7.3523631095886,4,Pure_Unrelated.csv,Control_VersionB.csv,"Control B","Control B",BOTH,OUNCE,Study1,U,22,29,JOL,User,-,"How likely are you to correctly recall the second item in the pair?|Type your response on a scale from 0-100 and then press Enter.",Study/JOL,"Study Phase2",7049,,,6201,6376,,,,12,0.333
5f2b3d6952f67f5672d25a10,rie7vvwzqp,Trevor_EX2,1,144,2020-10-23T15:15:56-07:00,7.2602200508118,4,Pure_Unrelated.csv,Control_VersionB.csv,"Control B","Control B",FUTURE,SINCERE,Study1,U,70,32,JOL,User,-,"How likely are you to correctly recall the second item in the pair?|Type your response on a scale from 0-100 and then press Enter.",Study/JOL,"Study Phase2",6949,,,6185,6369,,,,23,0.371
5f2b3d6952f67f5672d25a10,rie7vvwzqp,Trevor_EX2,1,145,2020-10-23T15:15:59-07:00,2.995059967041,4,Pure_Unrelated.csv,Control_VersionB.csv,"Control B","Control B",STRESS,YAM,Study1,U,68,20,JOL,User,-,"How likely are you to correctly recall the second item in the pair?|Type your response on a scale from 0-100 and then press Enter.",Study/JOL,"Study Phase2",2694,,,1455,1694,,,,34,1
5f2b3d6952f67f5672d25a10,rie7vvwzqp,Trevor_EX2,1,146,2020-10-23T15:16:01-07:00,2.0515968799591,4,Pure_Unrelated.csv,Control_VersionB.csv,"Control B","Control B",CRAYON,RATE,Study1,U,79,9,JOL,User,-,"How likely are you to correctly recall the second item in the pair?|Type your response on a scale from 0-100 and then press Enter.",Study/JOL,"Study Phase2",1754,,,895,1077,,,,23,1
5f2b3d6952f67f5672d25a10,rie7vvwzqp,Trevor_EX2,1,147,2020-10-23T15:16:03-07:00,1.9287259578705,4,Pure_Unrelated.csv,Control_VersionB.csv,"Control B","Control B",SHERRIF,POLICE,BUFFER2,Buffer,87,51,JOL,User,-,"How likely are you to correctly recall the second item in the pair?|Type your response on a scale from 0-100 and then press Enter.",Study/JOL,BUFFER4,1631,,,692,1027,,,,42,1
5f2b3d6952f67f5672d25a10,rie7vvwzqp,Trevor_EX2,1,148,2020-10-23T15:16:05-07:00,1.6792020797729,4,Pure_Unrelated.csv,Control_VersionB.csv,"Control B","Control B",GEESE,GOOSE,BUFFER2,Buffer,86,47,JOL,User,-,"How likely are you to correctly recall the second item in the pair?|Type your response on a scale from 0-100 and then press Enter.",Study/JOL,BUFFER4,1371,,,586,817,,,,43,1
5f2b3d6952f67f5672d25a10,rie7vvwzqp,Trevor_EX2,1,149,2020-10-23T15:16:13-07:00,8.4709830284119,4,Pure_Unrelated.csv,Control_VersionB.csv,"Control B","Control B",MALT,CHOCOLATE,BUFFER2,Buffer,88,50,JOL,User,-,"How likely are you to correctly recall the second item in the pair?|Type your response on a scale from 0-100 and then press Enter.",Study/JOL,BUFFER4,8173,,,597,7179,,,,60,0.561
5f2b3d6952f67f5672d25a10,rie7vvwzqp,Trevor_EX2,1,150,2020-10-23T15:16:22-07:00,9.4606950283051,4,Pure_Unrelated.csv,Control_VersionB.csv,"Control B","Control B",THING,STUFF,BUFFER2,Buffer,90,49,JOL,User,-,"How likely are you to correctly recall the second item in the pair?|Type your response on a scale from 0-100 and then press Enter.",Study/JOL,BUFFER4,9100,,,7976,8126,,,,60,0.348
5f2b3d6952f67f5672d25a10,rie7vvwzqp,Trevor_EX2,1,151,2020-10-23T15:16:30-07:00,7.6151359081268,4,Pure_Unrelated.csv,Control_VersionB.csv,"Control B","Control B",MOON,SPACE,BUFFER2,Buffer,89,48,JOL,User,-,"How likely are you to correctly recall the second item in the pair?|Type your response on a scale from 0-100 and then press Enter.",Study/JOL,BUFFER4,7279,,,5329,5719,,,,70,0.595
5f2b3d6952f67f5672d25a10,rie7vvwzqp,Trevor_EX2,1,152,2020-10-23T15:16:32-07:00,1.6599340438843,4,Pure_Unrelated.csv,Control_VersionB.csv,"Control B","Control B",,,,,,0,Instruct,User,-,"You have completed this section. Please press Enter.",Filler_Instruction,Instruct5,1372,,,-1,-1,,,,,1
5f2b3d6952f67f5672d25a10,rie7vvwzqp,Trevor_EX2,1,153,2020-10-23T15:18:32-07:00,120.44322896004,4,Pure_Unrelated.csv,Control_VersionB.csv,"Control B","Control B",,,,,,0,FreeRecall,120,120,"Please list the 50 US states in reverse alphabetical order (z - a). The task will automatically advance to the next screen after two minutes.",,Filler2,120001," Wisconsin, West Virginia, West Virginia, Washington, Virginia, Vermont ut",0,86226,119483,0,0,,,0.292
5f2b3d6952f67f5672d25a10,rie7vvwzqp,Trevor_EX2,1,154,2020-10-23T15:18:47-07:00,14.564776182175,4,Pure_Unrelated.csv,Control_VersionB.csv,"Control B","Control B",,,,,,0,Instruct,-,10,"You will now be presented with the first word from each of the previously studied item pairs. Please type the missing word. If you do not know the word, you may guess or press Enter to skip forward to the next pair.",,Instruct6,14206,,,-1,-1,,,,,0.417
5f2b3d6952f67f5672d25a10,rie7vvwzqp,Trevor_EX2,1,155,2020-10-23T15:19:03-07:00,16.062336921692,4,Pure_Unrelated.csv,Control_VersionB.csv,"Control B","Control B",DONKEY,LUSH,Study1,U,84,11,Test,User,-,,Recall,Recall2,15754,punch,44.444444444444,14876,15450,0,0,,,1
5f2b3d6952f67f5672d25a10,rie7vvwzqp,Trevor_EX2,1,156,2020-10-23T15:19:09-07:00,6.1377999782562,4,Pure_Unrelated.csv,Control_VersionB.csv,"Control B","Control B",PARCEL,THROAT,Study1,U,67,27,Test,User,-,,Recall,Recall2,5792,n/a,22.222222222222,4481,5455,0,0,,,1
5f2b3d6952f67f5672d25a10,rie7vvwzqp,Trevor_EX2,1,157,2020-10-23T15:19:14-07:00,4.8791449069977,4,Pure_Unrelated.csv,Control_VersionB.csv,"Control B","Control B",GRIND,STAND,Study1,U,85,16,Test,User,-,,Recall,Recall2,4569,stand,100,3554,4233,1,1,,,1
5f2b3d6952f67f5672d25a10,rie7vvwzqp,Trevor_EX2,1,158,2020-10-23T15:19:24-07:00,10.01898598671,4,Pure_Unrelated.csv,Control_VersionB.csv,"Control B","Control B",VEHICLE,CHARM,Study1,U,10,23,Test,User,-,,Recall,Recall2,9718,car,75,6583,9510,0,1,,,1
5f2b3d6952f67f5672d25a10,rie7vvwzqp,Trevor_EX2,1,159,2020-10-23T15:19:35-07:00,11.39741897583,4,Pure_Unrelated.csv,Control_VersionB.csv,"Control B","Control B",CRAYON,RATE,Study1,U,79,9,Test,User,-,,Recall,Recall2,11058,pencil,20,8387,9914,0,0,,,1
5f2b3d6952f67f5672d25a10,rie7vvwzqp,Trevor_EX2,1,160,2020-10-23T15:19:41-07:00,5.7042441368103,4,Pure_Unrelated.csv,Control_VersionB.csv,"Control B","Control B",LOAN,SIGN,Study1,U,21,35,Test,User,-,,Recall,Recall2,5347,sign,100,3740,4994,1,1,,,1
5f2b3d6952f67f5672d25a10,rie7vvwzqp,Trevor_EX2,1,161,2020-10-23T15:19:46-07:00,5.3664848804474,4,Pure_Unrelated.csv,Control_VersionB.csv,"Control B","Control B",LEASE,TOIL,Study1,U,20,13,Test,User,-,,Recall,Recall2,5070,hold,50,2623,4862,0,0,,,1
5f2b3d6952f67f5672d25a10,rie7vvwzqp,Trevor_EX2,1,162,2020-10-23T15:19:57-07:00,11.191374063492,4,Pure_Unrelated.csv,Control_VersionB.csv,"Control B","Control B",SHELL,SHAKE,Study1,U,13,17,Test,User,-,,Recall,Recall2,10882,smell,40,3331,10353,0,0,,,1
5f2b3d6952f67f5672d25a10,rie7vvwzqp,Trevor_EX2,1,163,2020-10-23T15:20:07-07:00,9.1685709953308,4,Pure_Unrelated.csv,Control_VersionB.csv,"Control B","Control B",INFLATE,DISGUST,Study1,U,76,38,Test,User,-,,Recall,Recall2,8824,n/a,0,7665,8431,0,0,,,1
5f2b3d6952f67f5672d25a10,rie7vvwzqp,Trevor_EX2,1,164,2020-10-23T15:20:13-07:00,6.1633660793304,4,Pure_Unrelated.csv,Control_VersionB.csv,"Control B","Control B",FUTURE,SINCERE,Study1,U,70,32,Test,User,-,,Recall,Recall2,5864,silence,71.428571428571,2511,5615,0,0,,,1
5f2b3d6952f67f5672d25a10,rie7vvwzqp,Trevor_EX2,1,165,2020-10-23T15:20:24-07:00,11.02642583847,4,Pure_Unrelated.csv,Control_VersionB.csv,"Control B","Control B",MAZE,ELECTION,Study1,U,9,42,Test,User,-,,Recall,Recall2,10729,hide,16.666666666667,10155,10497,0,0,,,1
5f2b3d6952f67f5672d25a10,rie7vvwzqp,Trevor_EX2,1,166,2020-10-23T15:20:31-07:00,7.4487431049347,4,Pure_Unrelated.csv,Control_VersionB.csv,"Control B","Control B",MIRROR,CHILDREN,Study1,U,24,40,Test,User,-,,Recall,Recall2,7113,child,76.923076923077,5650,6496,0,1,,,1
5f2b3d6952f67f5672d25a10,rie7vvwzqp,Trevor_EX2,1,167,2020-10-23T15:20:49-07:00,17.716733932495,4,Pure_Unrelated.csv,Control_VersionB.csv,"Control B","Control B",STRESS,YAM,Study1,U,68,20,Test,User,-,,Recall,Recall2,17408,scare,25,15622,16499,0,0,,,1
5f2b3d6952f67f5672d25a10,rie7vvwzqp,Trevor_EX2,1,168,2020-10-23T15:21:00-07:00,11.07457613945,4,Pure_Unrelated.csv,Control_VersionB.csv,"Control B","Control B",ROSE,NEGLECT,Study1,U,82,45,Test,User,-,,Recall,Recall2,10713,never,50,9858,10448,0,0,,,1
5f2b3d6952f67f5672d25a10,rie7vvwzqp,Trevor_EX2,1,169,2020-10-23T15:21:17-07:00,17.19948887825,4,Pure_Unrelated.csv,Control_VersionB.csv,"Control B","Control B",BAT,SHAKY,Study1,U,66,37,Test,User,-,,Recall,Recall2,16602,owl,0,14365,15012,0,0,,,1
5f2b3d6952f67f5672d25a10,rie7vvwzqp,Trevor_EX2,1,170,2020-10-23T15:21:25-07:00,7.5372061729431,4,Pure_Unrelated.csv,Control_VersionB.csv,"Control B","Control B",LISTEN,FICTION,Study1,U,14,12,Test,User,-,,Recall,Recall2,7194,friction,93.333333333333,2210,6057,0,1,,,1
5f2b3d6952f67f5672d25a10,rie7vvwzqp,Trevor_EX2,1,171,2020-10-23T15:21:44-07:00,18.809551000595,4,Pure_Unrelated.csv,Control_VersionB.csv,"Control B","Control B",GIVE,STEAK,Study1,U,8,28,Test,User,-,,Recall,Recall2,18507,stack,80,6033,16287,0,1,,,1
5f2b3d6952f67f5672d25a10,rie7vvwzqp,Trevor_EX2,1,172,2020-10-23T15:21:53-07:00,9.4568099975586,4,Pure_Unrelated.csv,Control_VersionB.csv,"Control B","Control B",DIZZY,SWEATER,Study1,U,77,25,Test,User,-,,Recall,Recall2,9118,fuzzy,0,4837,7258,0,0,,,1
5f2b3d6952f67f5672d25a10,rie7vvwzqp,Trevor_EX2,1,173,2020-10-23T15:22:04-07:00,11.161474943161,4,Pure_Unrelated.csv,Control_VersionB.csv,"Control B","Control B",WARN,SEA,Study1,U,80,36,Test,User,-,,Recall,Recall2,10790,seen,57.142857142857,7025,9014,0,0,,,1
5f2b3d6952f67f5672d25a10,rie7vvwzqp,Trevor_EX2,1,174,2020-10-23T15:22:16-07:00,12.053014039993,4,Pure_Unrelated.csv,Control_VersionB.csv,"Control B","Control B",CRACKLE,ABLE,Study1,U,12,30,Test,User,-,,Recall,Recall2,11711,push,0,7212,10011,0,0,,,1
5f2b3d6952f67f5672d25a10,rie7vvwzqp,Trevor_EX2,1,175,2020-10-23T15:22:22-07:00,5.8483889102936,4,Pure_Unrelated.csv,Control_VersionB.csv,"Control B","Control B",FUZZY,BANG,Study1,U,18,10,Test,User,-,,Recall,Recall2,5491,bench,44.444444444444,3100,4386,0,0,,,1
5f2b3d6952f67f5672d25a10,rie7vvwzqp,Trevor_EX2,1,176,2020-10-23T15:22:26-07:00,3.5374569892883,4,Pure_Unrelated.csv,Control_VersionB.csv,"Control B","Control B",PET,MOON,Study1,U,74,34,Test,User,-,,Recall,Recall2,3238,hate,0,2171,2786,0,0,,,1
5f2b3d6952f67f5672d25a10,rie7vvwzqp,Trevor_EX2,1,177,2020-10-23T15:22:39-07:00,13.558581113815,4,Pure_Unrelated.csv,Control_VersionB.csv,"Control B","Control B",NUMBER,HARD,Study1,U,78,8,Test,User,-,,Recall,Recall2,13249,wang,25,11071,11797,0,0,,,1
5f2b3d6952f67f5672d25a10,rie7vvwzqp,Trevor_EX2,1,178,2020-10-23T15:22:48-07:00,8.6820058822632,4,Pure_Unrelated.csv,Control_VersionB.csv,"Control B","Control B",JUSTICE,MAROON,Study1,U,6,43,Test,User,-,,Recall,Recall2,8344,n/a,22.222222222222,7521,8048,0,0,,,1
5f2b3d6952f67f5672d25a10,rie7vvwzqp,Trevor_EX2,1,179,2020-10-23T15:22:55-07:00,6.6822700500488,4,Pure_Unrelated.csv,Control_VersionB.csv,"Control B","Control B",BOTH,OUNCE,Study1,U,22,29,Test,User,-,,Recall,Recall2,6375,ounc,88.888888888889,3959,5054,0,1,,,1
5f2b3d6952f67f5672d25a10,rie7vvwzqp,Trevor_EX2,1,180,2020-10-23T15:23:07-07:00,11.958885908127,4,Pure_Unrelated.csv,Control_VersionB.csv,"Control B","Control B",DEGREE,CHAIR,Study1,U,71,26,Test,User,-,,Recall,Recall2,11623,chair,100,10753,11415,1,1,,,1
5f2b3d6952f67f5672d25a10,rie7vvwzqp,Trevor_EX2,1,181,2020-10-23T15:23:20-07:00,13.69929599762,4,Pure_Unrelated.csv,Control_VersionB.csv,"Control B","Control B",RIPE,VERIFY,Study1,U,83,41,Test,User,-,,Recall,Recall2,13386,gripe,36.363636363636,11120,11821,0,0,,,1
5f2b3d6952f67f5672d25a10,rie7vvwzqp,Trevor_EX2,1,182,2020-10-23T15:23:26-07:00,6.0584690570831,4,Pure_Unrelated.csv,Control_VersionB.csv,"Control B","Control B",THICK,CONTEST,Study1,U,73,21,Test,User,-,,Recall,Recall2,5755,shake,16.666666666667,4963,5530,0,0,,,1
5f2b3d6952f67f5672d25a10,rie7vvwzqp,Trevor_EX2,1,183,2020-10-23T15:23:34-07:00,7.5195209980011,4,Pure_Unrelated.csv,Control_VersionB.csv,"Control B","Control B",KEYS,JOKE,Study1,U,15,39,Test,User,-,,Recall,Recall2,7210,ring,0,5963,6394,0,0,,,1
5f2b3d6952f67f5672d25a10,rie7vvwzqp,Trevor_EX2,1,184,2020-10-23T15:23:46-07:00,12.094748020172,4,Pure_Unrelated.csv,Control_VersionB.csv,"Control B","Control B",CAKE,CLOTHES,Study1,U,16,7,Test,User,-,,Recall,Recall2,11786,cloth,83.333333333333,8021,11370,0,1,,,1
5f2b3d6952f67f5672d25a10,rie7vvwzqp,Trevor_EX2,1,185,2020-10-23T15:23:56-07:00,10.49115395546,4,Pure_Unrelated.csv,Control_VersionB.csv,"Control B","Control B",MEAT,OBTAIN,Study1,U,11,31,Test,User,-,,Recall,Recall2,10054,heat,20,8470,9347,0,0,,,1
5f2b3d6952f67f5672d25a10,rie7vvwzqp,Trevor_EX2,1,186,2020-10-23T15:24:04-07:00,7.3061740398407,4,Pure_Unrelated.csv,Control_VersionB.csv,"Control B","Control B",RESIST,GLUE,Study1,U,69,18,Test,User,-,,Recall,Recall2,6786,n/a,0,5930,6537,0,0,,,1
5f2b3d6952f67f5672d25a10,rie7vvwzqp,Trevor_EX2,1,187,2020-10-23T15:24:15-07:00,11.378304958344,4,Pure_Unrelated.csv,Control_VersionB.csv,"Control B","Control B",MOAT,CLEAR,Study1,U,19,15,Test,User,-,,Recall,Recall2,11076,moon,0,6771,7859,0,0,,,1
5f2b3d6952f67f5672d25a10,rie7vvwzqp,Trevor_EX2,1,188,2020-10-23T15:24:18-07:00,2.659117937088,4,Pure_Unrelated.csv,Control_VersionB.csv,"Control B","Control B",STRETCH,CLOTH,Study1,U,7,33,Test,User,-,,Recall,Recall2,2322,clear,40,1163,1865,0,0,,,1
5f2b3d6952f67f5672d25a10,rie7vvwzqp,Trevor_EX2,1,189,2020-10-23T15:24:21-07:00,3.0287680625916,4,Pure_Unrelated.csv,Control_VersionB.csv,"Control B","Control B",TAX,OWL,Study1,U,72,14,Test,User,-,,Recall,Recall2,2729,owl,100,2089,2392,1,1,,,1
5f2b3d6952f67f5672d25a10,rie7vvwzqp,Trevor_EX2,1,190,2020-10-23T15:24:29-07:00,8.0254230499268,4,Pure_Unrelated.csv,Control_VersionB.csv,"Control B","Control B",MAIN,SCAR,Study1,U,25,44,Test,User,-,,Recall,Recall2,7725,throat,20,6478,7533,0,0,,,1
5f2b3d6952f67f5672d25a10,rie7vvwzqp,Trevor_EX2,1,191,2020-10-23T15:24:37-07:00,7.8899428844452,4,Pure_Unrelated.csv,Control_VersionB.csv,"Control B","Control B",TEMPERATURE,MORNING,Study1,U,23,24,Test,User,-,,Recall,Recall2,7546,hate,0,2330,7328,0,0,,,1
5f2b3d6952f67f5672d25a10,rie7vvwzqp,Trevor_EX2,1,192,2020-10-23T15:24:41-07:00,4.2849500179291,4,Pure_Unrelated.csv,Control_VersionB.csv,"Control B","Control B",NAME,HATE,Study1,U,17,46,Test,User,-,,Recall,Recall2,3986,hate,100,3130,3745,1,1,,,1
5f2b3d6952f67f5672d25a10,rie7vvwzqp,Trevor_EX2,1,193,2020-10-23T15:24:51-07:00,10.043877124786,4,Pure_Unrelated.csv,Control_VersionB.csv,"Control B","Control B",BROAD,INFECT,Study1,U,75,19,Test,User,-,,Recall,Recall2,9704,chocolate,26.666666666667,7907,9561,0,0,,,1
5f2b3d6952f67f5672d25a10,rie7vvwzqp,Trevor_EX2,1,194,2020-10-23T15:25:02-07:00,10.516660928726,4,Pure_Unrelated.csv,Control_VersionB.csv,"Control B","Control B",DIFFICULT,POOR,Study1,U,81,22,Test,User,-,,Recall,Recall2,10181,sincere,18.181818181818,4814,9580,0,0,,,1
5f2b3d6952f67f5672d25a10,rie7vvwzqp,Trevor_EX2,1,195,2020-10-23T15:25:04-07:00,2.8406660556793,4,Pure_Unrelated.csv,Control_VersionB.csv,"Control B","Control B",,,,,,0,Instruct,User,-,"You have completed this section. Please press Enter.",,Instruct7,2476,,,-1,-1,,,,,1
5f2b3d6952f67f5672d25a10,rie7vvwzqp,Trevor_EX2,1,196,2020-10-23T15:25:07-07:00,2.4730970859528,4,Pure_Unrelated.csv,Control_VersionB.csv,"Control B","Control B",,,,,,0,Instruct,User,-,"The following screen will ask you a few questions abour your experience today. You must complete these questions to receive credit.",,Instruct8,2178,,,-1,-1,,,,,1
