Username,ID,ExperimentName,Session,Trial,Date,TimeDif,"Condition Number","Stimuli File","Order File","Condition Description","Condition Notes",Stimuli*Cue,Stimuli*Answer,Stimuli*Shuffle,"Stimuli*Stimuli Notes",Stimuli*Value,Procedure*Item,"Procedure*Trial Type","Procedure*Max Time","Procedure*Min Time",Procedure*Text,"Procedure*Procedure Notes",Procedure*Shuffle,Response*RT,Response*Response,Response*Accuracy,Response*RTfirst,Response*RTlast,Response*strictAcc,Response*lenientAcc,Response*focus,Response*JOL,Response*Focus
5ee8e96f94cc2222aadb99af,elko7g4htr,Trevor_EX2,1,1,2020-10-23T15:04:06-07:00,5.8462080955505,2,Pure_Unrelated.csv,SF_VersionB.csv,"Sans F B","Sans F B",,,,,,0,Instruct,-,5,"In this section, you will be presented with a series of word pairs.",Initial_Instruct,Instruct1,5633,,,-1,-1,,,,,1
5ee8e96f94cc2222aadb99af,elko7g4htr,Trevor_EX2,1,2,2020-10-23T15:04:18-07:00,11.859891891479,2,Pure_Unrelated.csv,SF_VersionB.csv,"Sans F B","Sans F B",,,,,,0,Instruct,-,5,"As you study, you will be asked to rate your ability to remember the second item in the pair if you were only shown the first at test. You will make these ratings using a 0 to 100 Scale.",,Instruct13,11535,,,-1,-1,,,,,1
5ee8e96f94cc2222aadb99af,elko7g4htr,Trevor_EX2,1,3,2020-10-23T15:04:29-07:00,10.898313045502,2,Pure_Unrelated.csv,SF_VersionB.csv,"Sans F B","Sans F B",,,,,,0,Instruct,-,10,"For example, if you are given the pair CAT - DOG, a rating of 0 indicates that you would not remember DOG at test, while a rating of 100 indicates full certainty that you would remember the word DOG at test.",,Instruct14,10535,,,-1,-1,,,,,1
5ee8e96f94cc2222aadb99af,elko7g4htr,Trevor_EX2,1,4,2020-10-23T15:04:48-07:00,19.143728017807,2,Pure_Unrelated.csv,SF_VersionB.csv,"Sans F B","Sans F B",,,,,,0,Instruct,-,10,"When making your ratings, it is criticial that you use the full range of the scale. You will be disqualified for only giving ratings of 0 or 100! After making your rating, press Enter to advance to the next pair.",,Instruct15,18842,,,-1,-1,,,,,0.442
5ee8e96f94cc2222aadb99af,elko7g4htr,Trevor_EX2,1,5,2020-10-23T15:04:50-07:00,1.9902830123901,2,Pure_Unrelated.csv,SF_VersionB.csv,"Sans F B","Sans F B",,,,,,0,Instruct,User,-,"You will now begin the study. Press Enter when you are ready to begin.",,Instruct16,1674,,,-1,-1,,,,,1
5ee8e96f94cc2222aadb99af,elko7g4htr,Trevor_EX2,1,6,2020-10-23T15:04:59-07:00,8.7989161014557,2,Pure_Unrelated.csv,SF_VersionB.csv,"Sans F B","Sans F B",ICE,FROZEN,BUFFER3,Buffer,94,56,JOL_SF,User,-,"How likely are you to correctly recall the second item in the pair?|Type your response on a scale from 0-100 and then press Enter.",Study/JOL,BUFFER,8117,,,7575,7858,,,,75,1
5ee8e96f94cc2222aadb99af,elko7g4htr,Trevor_EX2,1,7,2020-10-23T15:05:04-07:00,4.6667268276215,2,Pure_Unrelated.csv,SF_VersionB.csv,"Sans F B","Sans F B",SHRIMP,FISH,BUFFER3,Buffer,93,54,JOL,User,-,"How likely are you to correctly recall the second item in the pair?|Type your response on a scale from 0-100 and then press Enter.",Study/JOL,BUFFER,4304,,,4031,4111,,,,50,1
5ee8e96f94cc2222aadb99af,elko7g4htr,Trevor_EX2,1,8,2020-10-23T15:05:09-07:00,5.2485020160675,2,Pure_Unrelated.csv,SF_VersionB.csv,"Sans F B","Sans F B",CAMP,ADVENTURE,BUFFER3,Buffer,95,55,JOL_SF,User,-,"How likely are you to correctly recall the second item in the pair?|Type your response on a scale from 0-100 and then press Enter.",Study/JOL,BUFFER,4853,,,3244,4716,,,,45,1
5ee8e96f94cc2222aadb99af,elko7g4htr,Trevor_EX2,1,9,2020-10-23T15:05:12-07:00,3.0358681678772,2,Pure_Unrelated.csv,SF_VersionB.csv,"Sans F B","Sans F B",NOODLE,STRING,BUFFER3,Buffer,92,52,JOL,User,-,"How likely are you to correctly recall the second item in the pair?|Type your response on a scale from 0-100 and then press Enter.",Study/JOL,BUFFER,2724,,,2225,2514,,,,30,1
5ee8e96f94cc2222aadb99af,elko7g4htr,Trevor_EX2,1,10,2020-10-23T15:05:15-07:00,2.8126788139343,2,Pure_Unrelated.csv,SF_VersionB.csv,"Sans F B","Sans F B",CARROT,POTATO,BUFFER3,Buffer,91,53,JOL,User,-,"How likely are you to correctly recall the second item in the pair?|Type your response on a scale from 0-100 and then press Enter.",Study/JOL,BUFFER,2514,,,2052,2309,,,,20,1
5ee8e96f94cc2222aadb99af,elko7g4htr,Trevor_EX2,1,11,2020-10-23T15:05:18-07:00,2.8091421127319,2,Pure_Unrelated.csv,SF_VersionB.csv,"Sans F B","Sans F B",VASE,KING,Study2,U,115,76,JOL,User,-,"How likely are you to correctly recall the second item in the pair?|Type your response on a scale from 0-100 and then press Enter.",Study/JOL,"Study Phase",2483,,,2108,2108,,,,1,1
5ee8e96f94cc2222aadb99af,elko7g4htr,Trevor_EX2,1,12,2020-10-23T15:05:24-07:00,6.6523308753967,2,Pure_Unrelated.csv,SF_VersionB.csv,"Sans F B","Sans F B",SLIM,KNOW,Study2,U,164,90,JOL_SF,User,-,"How likely are you to correctly recall the second item in the pair?|Type your response on a scale from 0-100 and then press Enter.",Study/JOL,"Study Phase",6327,,,5689,5689,,,,3,1
5ee8e96f94cc2222aadb99af,elko7g4htr,Trevor_EX2,1,13,2020-10-23T15:05:28-07:00,3.1400651931763,2,Pure_Unrelated.csv,SF_VersionB.csv,"Sans F B","Sans F B",BRONZE,ARTERY,Study2,U,104,78,JOL_SF,User,-,"How likely are you to correctly recall the second item in the pair?|Type your response on a scale from 0-100 and then press Enter.",Study/JOL,"Study Phase",2812,,,2619,2619,,,,1,1
5ee8e96f94cc2222aadb99af,elko7g4htr,Trevor_EX2,1,14,2020-10-23T15:05:31-07:00,3.0598509311676,2,Pure_Unrelated.csv,SF_VersionB.csv,"Sans F B","Sans F B",WOMAN,LIFT,Study2,U,99,70,JOL,User,-,"How likely are you to correctly recall the second item in the pair?|Type your response on a scale from 0-100 and then press Enter.",Study/JOL,"Study Phase",2745,,,2549,2549,,,,1,1
5ee8e96f94cc2222aadb99af,elko7g4htr,Trevor_EX2,1,15,2020-10-23T15:05:36-07:00,5.7214720249176,2,Pure_Unrelated.csv,SF_VersionB.csv,"Sans F B","Sans F B",WOULD,CASH,Study2,U,113,91,JOL_SF,User,-,"How likely are you to correctly recall the second item in the pair?|Type your response on a scale from 0-100 and then press Enter.",Study/JOL,"Study Phase",4686,,,4309,4309,,,,3,1
5ee8e96f94cc2222aadb99af,elko7g4htr,Trevor_EX2,1,16,2020-10-23T15:05:40-07:00,3.5644340515137,2,Pure_Unrelated.csv,SF_VersionB.csv,"Sans F B","Sans F B",JELLY,NAUGHTY,Study2,U,172,87,JOL_SF,User,-,"How likely are you to correctly recall the second item in the pair?|Type your response on a scale from 0-100 and then press Enter.",Study/JOL,"Study Phase",3242,,,3057,3057,,,,5,1
5ee8e96f94cc2222aadb99af,elko7g4htr,Trevor_EX2,1,17,2020-10-23T15:05:44-07:00,4.1046669483185,2,Pure_Unrelated.csv,SF_VersionB.csv,"Sans F B","Sans F B",RIDDLE,SUGAR,Study2,U,111,60,JOL,User,-,"How likely are you to correctly recall the second item in the pair?|Type your response on a scale from 0-100 and then press Enter.",Study/JOL,"Study Phase",3786,,,3663,3663,,,,1,1
5ee8e96f94cc2222aadb99af,elko7g4htr,Trevor_EX2,1,18,2020-10-23T15:05:46-07:00,2.3481018543243,2,Pure_Unrelated.csv,SF_VersionB.csv,"Sans F B","Sans F B",ACCIDENT,STRONG,Study2,U,110,86,JOL_SF,User,-,"How likely are you to correctly recall the second item in the pair?|Type your response on a scale from 0-100 and then press Enter.",Study/JOL,"Study Phase",2034,,,1907,1907,,,,1,1
5ee8e96f94cc2222aadb99af,elko7g4htr,Trevor_EX2,1,19,2020-10-23T15:05:49-07:00,2.2612431049347,2,Pure_Unrelated.csv,SF_VersionB.csv,"Sans F B","Sans F B",SPELL,BONE,Study2,U,174,73,JOL,User,-,"How likely are you to correctly recall the second item in the pair?|Type your response on a scale from 0-100 and then press Enter.",Study/JOL,"Study Phase",1944,,,1839,1839,,,,3,1
5ee8e96f94cc2222aadb99af,elko7g4htr,Trevor_EX2,1,20,2020-10-23T15:05:54-07:00,5.2747750282288,2,Pure_Unrelated.csv,SF_VersionB.csv,"Sans F B","Sans F B",LAKE,OPINION,Study2,U,160,80,JOL_SF,User,-,"How likely are you to correctly recall the second item in the pair?|Type your response on a scale from 0-100 and then press Enter.",Study/JOL,"Study Phase",4943,,,4820,4820,,,,4,1
5ee8e96f94cc2222aadb99af,elko7g4htr,Trevor_EX2,1,21,2020-10-23T15:05:56-07:00,2.1728789806366,2,Pure_Unrelated.csv,SF_VersionB.csv,"Sans F B","Sans F B",FLOAT,HARMONY,Study2,U,161,66,JOL,User,-,"How likely are you to correctly recall the second item in the pair?|Type your response on a scale from 0-100 and then press Enter.",Study/JOL,"Study Phase",1864,,,-1,-1,,,,,1
5ee8e96f94cc2222aadb99af,elko7g4htr,Trevor_EX2,1,22,2020-10-23T15:05:59-07:00,3.2421419620514,2,Pure_Unrelated.csv,SF_VersionB.csv,"Sans F B","Sans F B",SICK,HIDE,Study2,U,114,81,JOL_SF,User,-,"How likely are you to correctly recall the second item in the pair?|Type your response on a scale from 0-100 and then press Enter.",Study/JOL,"Study Phase",2930,,,2763,2763,,,,2,1
5ee8e96f94cc2222aadb99af,elko7g4htr,Trevor_EX2,1,23,2020-10-23T15:06:02-07:00,2.3077170848846,2,Pure_Unrelated.csv,SF_VersionB.csv,"Sans F B","Sans F B",SYSTEM,LICK,Study2,U,167,75,JOL,User,-,"How likely are you to correctly recall the second item in the pair?|Type your response on a scale from 0-100 and then press Enter.",Study/JOL,"Study Phase",1994,,,1832,1832,,,,1,1
5ee8e96f94cc2222aadb99af,elko7g4htr,Trevor_EX2,1,24,2020-10-23T15:06:04-07:00,2.8134038448334,2,Pure_Unrelated.csv,SF_VersionB.csv,"Sans F B","Sans F B",SACKING,DIETARY,Study2,U,97,59,JOL,User,-,"How likely are you to correctly recall the second item in the pair?|Type your response on a scale from 0-100 and then press Enter.",Study/JOL,"Study Phase",2497,,,2331,2331,,,,2,1
5ee8e96f94cc2222aadb99af,elko7g4htr,Trevor_EX2,1,25,2020-10-23T15:06:07-07:00,2.8427171707153,2,Pure_Unrelated.csv,SF_VersionB.csv,"Sans F B","Sans F B",LION,ART,Study2,U,109,92,JOL_SF,User,-,"How likely are you to correctly recall the second item in the pair?|Type your response on a scale from 0-100 and then press Enter.",Study/JOL,"Study Phase",2508,,,2308,2308,,,,6,1
5ee8e96f94cc2222aadb99af,elko7g4htr,Trevor_EX2,1,26,2020-10-23T15:06:10-07:00,2.4674139022827,2,Pure_Unrelated.csv,SF_VersionB.csv,"Sans F B","Sans F B",CLUTTER,PUSHER,Study2,U,96,72,JOL,User,-,"How likely are you to correctly recall the second item in the pair?|Type your response on a scale from 0-100 and then press Enter.",Study/JOL,"Study Phase",2158,,,1779,1779,,,,7,1
5ee8e96f94cc2222aadb99af,elko7g4htr,Trevor_EX2,1,27,2020-10-23T15:06:13-07:00,2.9738750457764,2,Pure_Unrelated.csv,SF_VersionB.csv,"Sans F B","Sans F B",MUTE,WAVE,Study2,U,173,84,JOL_SF,User,-,"How likely are you to correctly recall the second item in the pair?|Type your response on a scale from 0-100 and then press Enter.",Study/JOL,"Study Phase",2660,,,2401,2401,,,,8,1
5ee8e96f94cc2222aadb99af,elko7g4htr,Trevor_EX2,1,28,2020-10-23T15:06:18-07:00,4.8571429252625,2,Pure_Unrelated.csv,SF_VersionB.csv,"Sans F B","Sans F B",SWING,FOG,Study2,U,175,82,JOL_SF,User,-,"How likely are you to correctly recall the second item in the pair?|Type your response on a scale from 0-100 and then press Enter.",Study/JOL,"Study Phase",4537,,,3025,3025,,,,3,1
5ee8e96f94cc2222aadb99af,elko7g4htr,Trevor_EX2,1,29,2020-10-23T15:06:21-07:00,3.0179641246796,2,Pure_Unrelated.csv,SF_VersionB.csv,"Sans F B","Sans F B",WASTE,SEDATE,Study2,U,165,94,JOL_SF,User,-,"How likely are you to correctly recall the second item in the pair?|Type your response on a scale from 0-100 and then press Enter.",Study/JOL,"Study Phase",2682,,,2094,2094,,,,1,1
5ee8e96f94cc2222aadb99af,elko7g4htr,Trevor_EX2,1,30,2020-10-23T15:06:27-07:00,6.1922059059143,2,Pure_Unrelated.csv,SF_VersionB.csv,"Sans F B","Sans F B",TUCK,ALLOW,Study2,U,108,88,JOL_SF,User,-,"How likely are you to correctly recall the second item in the pair?|Type your response on a scale from 0-100 and then press Enter.",Study/JOL,"Study Phase",5877,,,5664,5664,,,,2,1
5ee8e96f94cc2222aadb99af,elko7g4htr,Trevor_EX2,1,31,2020-10-23T15:06:31-07:00,4.4224140644073,2,Pure_Unrelated.csv,SF_VersionB.csv,"Sans F B","Sans F B",SACKING,DIETARY,Study2,U,97,59,JOL,User,-,"How likely are you to correctly recall the second item in the pair?|Type your response on a scale from 0-100 and then press Enter.",Study/JOL,"Study Phase",4093,,,3895,3895,,,,3,1
5ee8e96f94cc2222aadb99af,elko7g4htr,Trevor_EX2,1,32,2020-10-23T15:06:33-07:00,2.2630388736725,2,Pure_Unrelated.csv,SF_VersionB.csv,"Sans F B","Sans F B",DETECT,FREE,Study2,U,162,65,JOL,User,-,"How likely are you to correctly recall the second item in the pair?|Type your response on a scale from 0-100 and then press Enter.",Study/JOL,"Study Phase",1934,,,1659,1659,,,,2,1
5ee8e96f94cc2222aadb99af,elko7g4htr,Trevor_EX2,1,33,2020-10-23T15:06:39-07:00,5.7444911003113,2,Pure_Unrelated.csv,SF_VersionB.csv,"Sans F B","Sans F B",GUARD,WHEEL,Study2,U,170,96,JOL_SF,User,-,"How likely are you to correctly recall the second item in the pair?|Type your response on a scale from 0-100 and then press Enter.",Study/JOL,"Study Phase",5438,,,3332,3332,,,,6,1
5ee8e96f94cc2222aadb99af,elko7g4htr,Trevor_EX2,1,34,2020-10-23T15:06:41-07:00,1.9504950046539,2,Pure_Unrelated.csv,SF_VersionB.csv,"Sans F B","Sans F B",READY,CORN,Study2,U,158,68,JOL,User,-,"How likely are you to correctly recall the second item in the pair?|Type your response on a scale from 0-100 and then press Enter.",Study/JOL,"Study Phase",1618,,,1433,1433,,,,8,1
5ee8e96f94cc2222aadb99af,elko7g4htr,Trevor_EX2,1,35,2020-10-23T15:06:44-07:00,2.9530038833618,2,Pure_Unrelated.csv,SF_VersionB.csv,"Sans F B","Sans F B",DESIRE,NOISE,Study2,U,169,63,JOL,User,-,"How likely are you to correctly recall the second item in the pair?|Type your response on a scale from 0-100 and then press Enter.",Study/JOL,"Study Phase",2649,,,2344,2472,,,,10,1
5ee8e96f94cc2222aadb99af,elko7g4htr,Trevor_EX2,1,36,2020-10-23T15:06:47-07:00,2.8336360454559,2,Pure_Unrelated.csv,SF_VersionB.csv,"Sans F B","Sans F B",HAND,FIX,Study2,U,105,64,JOL,User,-,"How likely are you to correctly recall the second item in the pair?|Type your response on a scale from 0-100 and then press Enter.",Study/JOL,"Study Phase",2521,,,2270,2270,,,,9,1
5ee8e96f94cc2222aadb99af,elko7g4htr,Trevor_EX2,1,37,2020-10-23T15:06:51-07:00,3.8442370891571,2,Pure_Unrelated.csv,SF_VersionB.csv,"Sans F B","Sans F B",Business,Death,Study2,U,102,69,JOL,User,-,"How likely are you to correctly recall the second item in the pair?|Type your response on a scale from 0-100 and then press Enter.",Study/JOL,"Study Phase",3535,,,3115,3345,,,,20,1
5ee8e96f94cc2222aadb99af,elko7g4htr,Trevor_EX2,1,38,2020-10-23T15:06:55-07:00,4.1710050106049,2,Pure_Unrelated.csv,SF_VersionB.csv,"Sans F B","Sans F B",NULL,COUGH,Study2,U,156,61,JOL,User,-,"How likely are you to correctly recall the second item in the pair?|Type your response on a scale from 0-100 and then press Enter.",Study/JOL,"Study Phase",3861,,,3704,3704,,,,1,1
5ee8e96f94cc2222aadb99af,elko7g4htr,Trevor_EX2,1,39,2020-10-23T15:06:57-07:00,2.2103810310364,2,Pure_Unrelated.csv,SF_VersionB.csv,"Sans F B","Sans F B",HUNGRY,PARK,Study2,U,98,62,JOL,User,-,"How likely are you to correctly recall the second item in the pair?|Type your response on a scale from 0-100 and then press Enter.",Study/JOL,"Study Phase",1868,,,1682,1682,,,,2,1
5ee8e96f94cc2222aadb99af,elko7g4htr,Trevor_EX2,1,40,2020-10-23T15:07:02-07:00,4.3960709571838,2,Pure_Unrelated.csv,SF_VersionB.csv,"Sans F B","Sans F B",SMOOTH,OMIT,Study2,U,157,71,JOL,User,-,"How likely are you to correctly recall the second item in the pair?|Type your response on a scale from 0-100 and then press Enter.",Study/JOL,"Study Phase",3992,,,3457,3457,,,,2,1
5ee8e96f94cc2222aadb99af,elko7g4htr,Trevor_EX2,1,41,2020-10-23T15:07:08-07:00,6.1195759773254,2,Pure_Unrelated.csv,SF_VersionB.csv,"Sans F B","Sans F B",FLOOR,DISCOVER,Study2,U,101,57,JOL,User,-,"How likely are you to correctly recall the second item in the pair?|Type your response on a scale from 0-100 and then press Enter.",Study/JOL,"Study Phase",5792,,,4736,4737,,,,1,1
5ee8e96f94cc2222aadb99af,elko7g4htr,Trevor_EX2,1,42,2020-10-23T15:07:14-07:00,6.6840689182281,2,Pure_Unrelated.csv,SF_VersionB.csv,"Sans F B","Sans F B",CAR,HAPPY,Study2,U,107,95,JOL_SF,User,-,"How likely are you to correctly recall the second item in the pair?|Type your response on a scale from 0-100 and then press Enter.",Study/JOL,"Study Phase",6261,,,5781,5781,,,,4,1
5ee8e96f94cc2222aadb99af,elko7g4htr,Trevor_EX2,1,43,2020-10-23T15:07:22-07:00,7.7205851078033,2,Pure_Unrelated.csv,SF_VersionB.csv,"Sans F B","Sans F B",SIGHT,DEBATE,Study2,U,103,77,JOL_SF,User,-,"How likely are you to correctly recall the second item in the pair?|Type your response on a scale from 0-100 and then press Enter.",Study/JOL,"Study Phase",7411,,,5521,7182,,,,1,1
5ee8e96f94cc2222aadb99af,elko7g4htr,Trevor_EX2,1,44,2020-10-23T15:07:33-07:00,11.364609956741,2,Pure_Unrelated.csv,SF_VersionB.csv,"Sans F B","Sans F B",ROAD,SCENT,Study2,U,166,93,JOL_SF,User,-,"How likely are you to correctly recall the second item in the pair?|Type your response on a scale from 0-100 and then press Enter.",Study/JOL,"Study Phase",11039,,,7894,7894,,,,4,1
5ee8e96f94cc2222aadb99af,elko7g4htr,Trevor_EX2,1,45,2020-10-23T15:07:36-07:00,2.6019430160522,2,Pure_Unrelated.csv,SF_VersionB.csv,"Sans F B","Sans F B",STOMACH,TOWN,Study2,U,159,83,JOL_SF,User,-,"How likely are you to correctly recall the second item in the pair?|Type your response on a scale from 0-100 and then press Enter.",Study/JOL,"Study Phase",2299,,,2148,2148,,,,2,1
5ee8e96f94cc2222aadb99af,elko7g4htr,Trevor_EX2,1,46,2020-10-23T15:07:40-07:00,3.8531739711761,2,Pure_Unrelated.csv,SF_VersionB.csv,"Sans F B","Sans F B",PUFF,NUMBER,Study2,U,171,89,JOL_SF,User,-,"How likely are you to correctly recall the second item in the pair?|Type your response on a scale from 0-100 and then press Enter.",Study/JOL,"Study Phase",2474,,,2288,2288,,,,6,1
5ee8e96f94cc2222aadb99af,elko7g4htr,Trevor_EX2,1,47,2020-10-23T15:07:43-07:00,3.3865311145782,2,Pure_Unrelated.csv,SF_VersionB.csv,"Sans F B","Sans F B",ZOO,THUMB,Study2,U,168,67,JOL,User,-,"How likely are you to correctly recall the second item in the pair?|Type your response on a scale from 0-100 and then press Enter.",Study/JOL,"Study Phase",3076,,,1584,1584,,,,2,1
5ee8e96f94cc2222aadb99af,elko7g4htr,Trevor_EX2,1,48,2020-10-23T15:07:45-07:00,1.9778549671173,2,Pure_Unrelated.csv,SF_VersionB.csv,"Sans F B","Sans F B",BELT,SOON,Study2,U,100,85,JOL_SF,User,-,"How likely are you to correctly recall the second item in the pair?|Type your response on a scale from 0-100 and then press Enter.",Study/JOL,"Study Phase",1684,,,1490,1490,,,,1,1
5ee8e96f94cc2222aadb99af,elko7g4htr,Trevor_EX2,1,49,2020-10-23T15:07:47-07:00,1.8304328918457,2,Pure_Unrelated.csv,SF_VersionB.csv,"Sans F B","Sans F B",ADD,VALLEY,Study2,U,112,74,JOL,User,-,"How likely are you to correctly recall the second item in the pair?|Type your response on a scale from 0-100 and then press Enter.",Study/JOL,"Study Phase",1529,,,1376,1376,,,,1,1
5ee8e96f94cc2222aadb99af,elko7g4htr,Trevor_EX2,1,50,2020-10-23T15:07:50-07:00,3.0170481204987,2,Pure_Unrelated.csv,SF_VersionB.csv,"Sans F B","Sans F B",POSITION,MACHINE,Study2,U,106,79,JOL_SF,User,-,"How likely are you to correctly recall the second item in the pair?|Type your response on a scale from 0-100 and then press Enter.",Study/JOL,"Study Phase",2701,,,2566,2566,,,,2,1
5ee8e96f94cc2222aadb99af,elko7g4htr,Trevor_EX2,1,51,2020-10-23T15:07:53-07:00,3.4308369159698,2,Pure_Unrelated.csv,SF_VersionB.csv,"Sans F B","Sans F B",MONTH,YEAR,BUFFER4,Buffer,177,97,JOL,User,-,"How likely are you to correctly recall the second item in the pair?|Type your response on a scale from 0-100 and then press Enter.",Study/JOL,BUFFER2,3094,,,2691,2847,,,,50,1
5ee8e96f94cc2222aadb99af,elko7g4htr,Trevor_EX2,1,52,2020-10-23T15:07:58-07:00,4.8019359111786,2,Pure_Unrelated.csv,SF_VersionB.csv,"Sans F B","Sans F B",TOOL,SHED,BUFFER4,Buffer,178,98,JOL,User,-,"How likely are you to correctly recall the second item in the pair?|Type your response on a scale from 0-100 and then press Enter.",Study/JOL,BUFFER2,4502,,,4163,4302,,,,50,1
5ee8e96f94cc2222aadb99af,elko7g4htr,Trevor_EX2,1,53,2020-10-23T15:08:01-07:00,2.2549450397491,2,Pure_Unrelated.csv,SF_VersionB.csv,"Sans F B","Sans F B",DAYS,WEEKS,BUFFER4,Buffer,176,100,JOL_SF,User,-,"How likely are you to correctly recall the second item in the pair?|Type your response on a scale from 0-100 and then press Enter.",Study/JOL,BUFFER2,1943,,,1653,1793,,,,60,1
5ee8e96f94cc2222aadb99af,elko7g4htr,Trevor_EX2,1,54,2020-10-23T15:08:03-07:00,2.0106790065765,2,Pure_Unrelated.csv,SF_VersionB.csv,"Sans F B","Sans F B",OCTOBER,SPOOKY,BUFFER4,Buffer,180,101,JOL_SF,User,-,"How likely are you to correctly recall the second item in the pair?|Type your response on a scale from 0-100 and then press Enter.",Study/JOL,BUFFER2,1702,,,1436,1549,,,,70,1
5ee8e96f94cc2222aadb99af,elko7g4htr,Trevor_EX2,1,55,2020-10-23T15:08:08-07:00,5.4934890270233,2,Pure_Unrelated.csv,SF_VersionB.csv,"Sans F B","Sans F B",SPRING,MARCH,BUFFER4,Buffer,179,99,JOL_SF,User,-,"How likely are you to correctly recall the second item in the pair?|Type your response on a scale from 0-100 and then press Enter.",Study/JOL,BUFFER2,5164,,,1881,5027,,,,70,1
5ee8e96f94cc2222aadb99af,elko7g4htr,Trevor_EX2,1,56,2020-10-23T15:08:09-07:00,1.2322959899902,2,Pure_Unrelated.csv,SF_VersionB.csv,"Sans F B","Sans F B",,,,,,0,Instruct,User,-,"You have completed this section. Please press Enter.",Filler_Instruction,Instruct2,892,,,-1,-1,,,,,1
5ee8e96f94cc2222aadb99af,elko7g4htr,Trevor_EX2,1,57,2020-10-23T15:10:10-07:00,120.43241596222,2,Pure_Unrelated.csv,SF_VersionB.csv,"Sans F B","Sans F B",,,,,,0,FreeRecall,120,120,"Please list the 50 US states in alphabetical order. The task will automatically advance to the next screen after two minutes.",,Filler1,120004,"Alabama Alaska Arizona Arkansas California Colorado Connecticut Delaware Florida Georgia Hawaii Idaho Illinois Indiana Iowa Kansas Kentucky Louisiana Maine Maryland Massachusetts Michigan Minnesota Mississippi Missouri Montana Nebraska Nevada New Hampshire New Jersey New Mexico New York North Carolina North Dakota Ohio Oklahoma Oregon Pennsylvania Rhode Island South Carolina South Dakota Tennessee Texas Utah Vermont Virginia Washington West Virginia Wisconsin Wyoming",0,-1,-1,0,0,,,0.289
5ee8e96f94cc2222aadb99af,elko7g4htr,Trevor_EX2,1,58,2020-10-23T15:10:51-07:00,41.342020988464,2,Pure_Unrelated.csv,SF_VersionB.csv,"Sans F B","Sans F B",,,,,,0,Instruct,-,10,"You will now be presented with the first word from each of the previously studied item pairs. Please type the missing word. If you do not know the word, you may guess or press Enter to skip forward to the next pair.",,Instruct3,40947,,,-1,-1,,,,,0.098
5ee8e96f94cc2222aadb99af,elko7g4htr,Trevor_EX2,1,59,2020-10-23T15:10:57-07:00,6.1936900615692,2,Pure_Unrelated.csv,SF_VersionB.csv,"Sans F B","Sans F B",SWING,FOG,Study2,U,175,82,Test,User,-,,Recall,Recall1,5850,,0,-1,-1,0,0,,,1
5ee8e96f94cc2222aadb99af,elko7g4htr,Trevor_EX2,1,60,2020-10-23T15:10:59-07:00,2.2104740142822,2,Pure_Unrelated.csv,SF_VersionB.csv,"Sans F B","Sans F B",MUTE,WAVE,Study2,U,173,84,Test,User,-,,Recall,Recall1,1834,,0,-1,-1,0,0,,,1
5ee8e96f94cc2222aadb99af,elko7g4htr,Trevor_EX2,1,61,2020-10-23T15:11:14-07:00,14.632961034775,2,Pure_Unrelated.csv,SF_VersionB.csv,"Sans F B","Sans F B",TUCK,ALLOW,Study2,U,108,88,Test,User,-,,Recall,Recall1,14232,,0,-1,-1,0,0,,,0.167
5ee8e96f94cc2222aadb99af,elko7g4htr,Trevor_EX2,1,62,2020-10-23T15:11:18-07:00,4.2794668674469,2,Pure_Unrelated.csv,SF_VersionB.csv,"Sans F B","Sans F B",WASTE,SEDATE,Study2,U,165,94,Test,User,-,,Recall,Recall1,3966,,0,1872,2078,0,0,,,1
5ee8e96f94cc2222aadb99af,elko7g4htr,Trevor_EX2,1,63,2020-10-23T15:11:20-07:00,1.8727221488953,2,Pure_Unrelated.csv,SF_VersionB.csv,"Sans F B","Sans F B",ADD,VALLEY,Study2,U,112,74,Test,User,-,,Recall,Recall1,1535,,0,-1,-1,0,0,,,1
5ee8e96f94cc2222aadb99af,elko7g4htr,Trevor_EX2,1,64,2020-10-23T15:11:22-07:00,1.9612019062042,2,Pure_Unrelated.csv,SF_VersionB.csv,"Sans F B","Sans F B",SACKING,DIETARY,Study2,U,97,59,Test,User,-,,Recall,Recall1,1645,,0,-1,-1,0,0,,,1
5ee8e96f94cc2222aadb99af,elko7g4htr,Trevor_EX2,1,65,2020-10-23T15:11:28-07:00,5.4366850852966,2,Pure_Unrelated.csv,SF_VersionB.csv,"Sans F B","Sans F B",WOMAN,LIFT,Study2,U,99,70,Test,User,-,,Recall,Recall1,5113,man,0,2690,3001,0,0,,,1
5ee8e96f94cc2222aadb99af,elko7g4htr,Trevor_EX2,1,66,2020-10-23T15:11:30-07:00,2.1071479320526,2,Pure_Unrelated.csv,SF_VersionB.csv,"Sans F B","Sans F B",DESIRE,NOISE,Study2,U,169,63,Test,User,-,,Recall,Recall1,1773,,0,-1,-1,0,0,,,1
5ee8e96f94cc2222aadb99af,elko7g4htr,Trevor_EX2,1,67,2020-10-23T15:11:32-07:00,2.0037639141083,2,Pure_Unrelated.csv,SF_VersionB.csv,"Sans F B","Sans F B",SPELL,BONE,Study2,U,174,73,Test,User,-,,Recall,Recall1,1692,,0,-1,-1,0,0,,,1
5ee8e96f94cc2222aadb99af,elko7g4htr,Trevor_EX2,1,68,2020-10-23T15:11:33-07:00,1.3750560283661,2,Pure_Unrelated.csv,SF_VersionB.csv,"Sans F B","Sans F B",ROAD,SCENT,Study2,U,166,93,Test,User,-,,Recall,Recall1,1052,,0,-1,-1,0,0,,,1
5ee8e96f94cc2222aadb99af,elko7g4htr,Trevor_EX2,1,69,2020-10-23T15:11:35-07:00,2.0575180053711,2,Pure_Unrelated.csv,SF_VersionB.csv,"Sans F B","Sans F B",ZOO,THUMB,Study2,U,168,67,Test,User,-,,Recall,Recall1,1721,,0,-1,-1,0,0,,,1
5ee8e96f94cc2222aadb99af,elko7g4htr,Trevor_EX2,1,70,2020-10-23T15:11:41-07:00,5.3346371650696,2,Pure_Unrelated.csv,SF_VersionB.csv,"Sans F B","Sans F B",NULL,COUGH,Study2,U,156,61,Test,User,-,,Recall,Recall1,4013,mute,22.222222222222,2740,3312,0,0,,,1
5ee8e96f94cc2222aadb99af,elko7g4htr,Trevor_EX2,1,71,2020-10-23T15:11:44-07:00,3.9193890094757,2,Pure_Unrelated.csv,SF_VersionB.csv,"Sans F B","Sans F B",FLOOR,DISCOVER,Study2,U,101,57,Test,User,-,,Recall,Recall1,3596,BOARD,30.769230769231,2268,3112,0,0,,,1
5ee8e96f94cc2222aadb99af,elko7g4htr,Trevor_EX2,1,72,2020-10-23T15:11:48-07:00,3.6696457862854,2,Pure_Unrelated.csv,SF_VersionB.csv,"Sans F B","Sans F B",STOMACH,TOWN,Study2,U,159,83,Test,User,-,,Recall,Recall1,2367,,0,-1,-1,0,0,,,1
5ee8e96f94cc2222aadb99af,elko7g4htr,Trevor_EX2,1,73,2020-10-23T15:11:50-07:00,1.7813839912415,2,Pure_Unrelated.csv,SF_VersionB.csv,"Sans F B","Sans F B",HAND,FIX,Study2,U,105,64,Test,User,-,,Recall,Recall1,1473,,0,-1,-1,0,0,,,1
5ee8e96f94cc2222aadb99af,elko7g4htr,Trevor_EX2,1,74,2020-10-23T15:11:53-07:00,3.2814831733704,2,Pure_Unrelated.csv,SF_VersionB.csv,"Sans F B","Sans F B",CAR,HAPPY,Study2,U,107,95,Test,User,-,,Recall,Recall1,2969,WASH,22.222222222222,1802,2206,0,0,,,1
5ee8e96f94cc2222aadb99af,elko7g4htr,Trevor_EX2,1,75,2020-10-23T15:11:54-07:00,1.2818200588226,2,Pure_Unrelated.csv,SF_VersionB.csv,"Sans F B","Sans F B",RIDDLE,SUGAR,Study2,U,111,60,Test,User,-,,Recall,Recall1,970,,0,-1,-1,0,0,,,1
5ee8e96f94cc2222aadb99af,elko7g4htr,Trevor_EX2,1,76,2020-10-23T15:11:58-07:00,3.2042307853699,2,Pure_Unrelated.csv,SF_VersionB.csv,"Sans F B","Sans F B",JELLY,NAUGHTY,Study2,U,172,87,Test,User,-,,Recall,Recall1,1812,,0,-1,-1,0,0,,,1
5ee8e96f94cc2222aadb99af,elko7g4htr,Trevor_EX2,1,77,2020-10-23T15:12:00-07:00,2.3927211761475,2,Pure_Unrelated.csv,SF_VersionB.csv,"Sans F B","Sans F B",LAKE,OPINION,Study2,U,160,80,Test,User,-,,Recall,Recall1,2087,,0,-1,-1,0,0,,,1
5ee8e96f94cc2222aadb99af,elko7g4htr,Trevor_EX2,1,78,2020-10-23T15:12:01-07:00,1.238312959671,2,Pure_Unrelated.csv,SF_VersionB.csv,"Sans F B","Sans F B",PUFF,NUMBER,Study2,U,171,89,Test,User,-,,Recall,Recall1,922,,0,-1,-1,0,0,,,1
5ee8e96f94cc2222aadb99af,elko7g4htr,Trevor_EX2,1,79,2020-10-23T15:12:03-07:00,1.3440408706665,2,Pure_Unrelated.csv,SF_VersionB.csv,"Sans F B","Sans F B",SIGHT,DEBATE,Study2,U,103,77,Test,User,-,,Recall,Recall1,1039,,0,-1,-1,0,0,,,1
5ee8e96f94cc2222aadb99af,elko7g4htr,Trevor_EX2,1,80,2020-10-23T15:12:04-07:00,1.7920320034027,2,Pure_Unrelated.csv,SF_VersionB.csv,"Sans F B","Sans F B",READY,CORN,Study2,U,158,68,Test,User,-,,Recall,Recall1,1475,,0,-1,-1,0,0,,,1
5ee8e96f94cc2222aadb99af,elko7g4htr,Trevor_EX2,1,81,2020-10-23T15:12:06-07:00,1.628130197525,2,Pure_Unrelated.csv,SF_VersionB.csv,"Sans F B","Sans F B",GUARD,WHEEL,Study2,U,170,96,Test,User,-,,Recall,Recall1,1318,,0,-1,-1,0,0,,,1
5ee8e96f94cc2222aadb99af,elko7g4htr,Trevor_EX2,1,82,2020-10-23T15:12:08-07:00,1.6934788227081,2,Pure_Unrelated.csv,SF_VersionB.csv,"Sans F B","Sans F B",SMOOTH,OMIT,Study2,U,157,71,Test,User,-,,Recall,Recall1,1388,,0,-1,-1,0,0,,,1
5ee8e96f94cc2222aadb99af,elko7g4htr,Trevor_EX2,1,83,2020-10-23T15:12:11-07:00,3.2305731773376,2,Pure_Unrelated.csv,SF_VersionB.csv,"Sans F B","Sans F B",DETECT,FREE,Study2,U,162,65,Test,User,-,,Recall,Recall1,2928,,0,-1,-1,0,0,,,1
5ee8e96f94cc2222aadb99af,elko7g4htr,Trevor_EX2,1,84,2020-10-23T15:12:13-07:00,2.289559841156,2,Pure_Unrelated.csv,SF_VersionB.csv,"Sans F B","Sans F B",SLIM,KNOW,Study2,U,164,90,Test,User,-,,Recall,Recall1,1961,,0,-1,-1,0,0,,,1
5ee8e96f94cc2222aadb99af,elko7g4htr,Trevor_EX2,1,85,2020-10-23T15:12:15-07:00,1.3148021697998,2,Pure_Unrelated.csv,SF_VersionB.csv,"Sans F B","Sans F B",Business,Death,Study2,U,102,69,Test,User,-,,Recall,Recall1,993,,0,-1,-1,0,0,,,1
5ee8e96f94cc2222aadb99af,elko7g4htr,Trevor_EX2,1,86,2020-10-23T15:12:16-07:00,1.4431698322296,2,Pure_Unrelated.csv,SF_VersionB.csv,"Sans F B","Sans F B",POSITION,MACHINE,Study2,U,106,79,Test,User,-,,Recall,Recall1,1121,,0,-1,-1,0,0,,,1
5ee8e96f94cc2222aadb99af,elko7g4htr,Trevor_EX2,1,87,2020-10-23T15:12:18-07:00,2.4356920719147,2,Pure_Unrelated.csv,SF_VersionB.csv,"Sans F B","Sans F B",SICK,HIDE,Study2,U,114,81,Test,User,-,,Recall,Recall1,2116,,0,-1,-1,0,0,,,1
5ee8e96f94cc2222aadb99af,elko7g4htr,Trevor_EX2,1,88,2020-10-23T15:12:19-07:00,1.0004620552063,2,Pure_Unrelated.csv,SF_VersionB.csv,"Sans F B","Sans F B",ACCIDENT,STRONG,Study2,U,110,86,Test,User,-,,Recall,Recall1,701,,0,-1,-1,0,0,,,1
5ee8e96f94cc2222aadb99af,elko7g4htr,Trevor_EX2,1,89,2020-10-23T15:12:20-07:00,0.99539089202881,2,Pure_Unrelated.csv,SF_VersionB.csv,"Sans F B","Sans F B",SACKING,DIETARY,Study2,U,97,59,Test,User,-,,Recall,Recall1,683,,0,-1,-1,0,0,,,1
5ee8e96f94cc2222aadb99af,elko7g4htr,Trevor_EX2,1,90,2020-10-23T15:12:22-07:00,1.2376699447632,2,Pure_Unrelated.csv,SF_VersionB.csv,"Sans F B","Sans F B",LION,ART,Study2,U,109,92,Test,User,-,,Recall,Recall1,930,,0,-1,-1,0,0,,,1
5ee8e96f94cc2222aadb99af,elko7g4htr,Trevor_EX2,1,91,2020-10-23T15:12:23-07:00,1.002699136734,2,Pure_Unrelated.csv,SF_VersionB.csv,"Sans F B","Sans F B",SYSTEM,LICK,Study2,U,167,75,Test,User,-,,Recall,Recall1,666,,0,-1,-1,0,0,,,1
5ee8e96f94cc2222aadb99af,elko7g4htr,Trevor_EX2,1,92,2020-10-23T15:13:37-07:00,74.129534959793,2,Pure_Unrelated.csv,SF_VersionB.csv,"Sans F B","Sans F B",VASE,KING,Study2,U,115,76,Test,User,-,,Recall,Recall1,73738,,0,-1,-1,0,0,,,0.035
5ee8e96f94cc2222aadb99af,elko7g4htr,Trevor_EX2,1,93,2020-10-23T15:13:38-07:00,1.3236548900604,2,Pure_Unrelated.csv,SF_VersionB.csv,"Sans F B","Sans F B",BELT,SOON,Study2,U,100,85,Test,User,-,,Recall,Recall1,990,,0,-1,-1,0,0,,,1
5ee8e96f94cc2222aadb99af,elko7g4htr,Trevor_EX2,1,94,2020-10-23T15:13:40-07:00,2.2081480026245,2,Pure_Unrelated.csv,SF_VersionB.csv,"Sans F B","Sans F B",FLOAT,HARMONY,Study2,U,161,66,Test,User,-,,Recall,Recall1,1833,,0,-1,-1,0,0,,,1
5ee8e96f94cc2222aadb99af,elko7g4htr,Trevor_EX2,1,95,2020-10-23T15:13:43-07:00,3.0284140110016,2,Pure_Unrelated.csv,SF_VersionB.csv,"Sans F B","Sans F B",BRONZE,ARTERY,Study2,U,104,78,Test,User,-,,Recall,Recall1,2617,,0,-1,-1,0,0,,,1
5ee8e96f94cc2222aadb99af,elko7g4htr,Trevor_EX2,1,96,2020-10-23T15:13:45-07:00,1.3583149909973,2,Pure_Unrelated.csv,SF_VersionB.csv,"Sans F B","Sans F B",CLUTTER,PUSHER,Study2,U,96,72,Test,User,-,,Recall,Recall1,1050,,0,-1,-1,0,0,,,1
5ee8e96f94cc2222aadb99af,elko7g4htr,Trevor_EX2,1,97,2020-10-23T15:13:46-07:00,1.0208830833435,2,Pure_Unrelated.csv,SF_VersionB.csv,"Sans F B","Sans F B",WOULD,CASH,Study2,U,113,91,Test,User,-,,Recall,Recall1,708,,0,-1,-1,0,0,,,1
5ee8e96f94cc2222aadb99af,elko7g4htr,Trevor_EX2,1,98,2020-10-23T15:13:48-07:00,2.4096200466156,2,Pure_Unrelated.csv,SF_VersionB.csv,"Sans F B","Sans F B",HUNGRY,PARK,Study2,U,98,62,Test,User,-,,Recall,Recall1,1086,,0,-1,-1,0,0,,,1
5ee8e96f94cc2222aadb99af,elko7g4htr,Trevor_EX2,1,99,2020-10-23T15:14:11-07:00,22.727963924408,2,Pure_Unrelated.csv,SF_VersionB.csv,"Sans F B","Sans F B",,,,,,0,Instruct,-,10,"You will now be presented with a new set of word pairs. Please study each pair. Remember that your memory will be tested! When finished, press Enter to move to the next pair.",Initial_Instruct,Instruct4,22376,,,-1,-1,,,,,0.188
5ee8e96f94cc2222aadb99af,elko7g4htr,Trevor_EX2,1,100,2020-10-23T15:14:38-07:00,27.074690103531,2,Pure_Unrelated.csv,SF_VersionB.csv,"Sans F B","Sans F B",,,,,,0,Instruct,,10,"You will again be asked to rate your ability to remember these items using a 0 to 100 scale. Remember to use the full range of the scale!",,Instruct10,26755,,,-1,-1,,,,,0.343
5ee8e96f94cc2222aadb99af,elko7g4htr,Trevor_EX2,1,101,2020-10-23T15:14:40-07:00,2.2104768753052,2,Pure_Unrelated.csv,SF_VersionB.csv,"Sans F B","Sans F B",,,,,,0,Instruct,User,-,"Press Enter when you are readty to begin",,Instruct11,1848,,,-1,-1,,,,,1
5ee8e96f94cc2222aadb99af,elko7g4htr,Trevor_EX2,1,102,2020-10-23T15:14:45-07:00,4.7526979446411,2,Pure_Unrelated.csv,SF_VersionB.csv,"Sans F B","Sans F B",BASEBALL,CATCHER,BUFFER1,Buffer,2,4,JOL_SF,User,-,"How likely are you to correctly recall the second item in the pair?|Type your response on a scale from 0-100 and then press Enter.",Study/JOL,BUFFER3,4362,,,3969,4083,,,,50,1
5ee8e96f94cc2222aadb99af,elko7g4htr,Trevor_EX2,1,103,2020-10-23T15:14:49-07:00,3.7660610675812,2,Pure_Unrelated.csv,SF_VersionB.csv,"Sans F B","Sans F B",SCARE,HIDE,BUFFER1,Buffer,4,2,JOL,User,-,"How likely are you to correctly recall the second item in the pair?|Type your response on a scale from 0-100 and then press Enter.",Study/JOL,BUFFER3,3450,,,1448,3297,,,,30,1
5ee8e96f94cc2222aadb99af,elko7g4htr,Trevor_EX2,1,104,2020-10-23T15:14:51-07:00,2.2043759822845,2,Pure_Unrelated.csv,SF_VersionB.csv,"Sans F B","Sans F B",TREES,GREEN,BUFFER1,Buffer,1,3,JOL,User,-,"How likely are you to correctly recall the second item in the pair?|Type your response on a scale from 0-100 and then press Enter.",Study/JOL,BUFFER3,1866,,,1558,1682,,,,50,1
5ee8e96f94cc2222aadb99af,elko7g4htr,Trevor_EX2,1,105,2020-10-23T15:14:53-07:00,2.5062501430511,2,Pure_Unrelated.csv,SF_VersionB.csv,"Sans F B","Sans F B",SPACE,JAM,BUFFER1,Buffer,5,5,JOL_SF,User,-,"How likely are you to correctly recall the second item in the pair?|Type your response on a scale from 0-100 and then press Enter.",Study/JOL,BUFFER3,2112,,,1860,1963,,,,50,1
5ee8e96f94cc2222aadb99af,elko7g4htr,Trevor_EX2,1,106,2020-10-23T15:14:55-07:00,1.8080539703369,2,Pure_Unrelated.csv,SF_VersionB.csv,"Sans F B","Sans F B",PEANUT,BUTTER,BUFFER1,Buffer,3,6,JOL,User,-,"How likely are you to correctly recall the second item in the pair?|Type your response on a scale from 0-100 and then press Enter.",Study/JOL,BUFFER3,1499,,,1285,1397,,,,50,1
5ee8e96f94cc2222aadb99af,elko7g4htr,Trevor_EX2,1,107,2020-10-23T15:15:00-07:00,4.686096906662,2,Pure_Unrelated.csv,SF_VersionB.csv,"Sans F B","Sans F B",FUTURE,SINCERE,Study1,U,70,28,JOL_SF,User,-,"How likely are you to correctly recall the second item in the pair?|Type your response on a scale from 0-100 and then press Enter.",Study/JOL,"Study Phase2",4365,,,4210,4210,,,,2,1
5ee8e96f94cc2222aadb99af,elko7g4htr,Trevor_EX2,1,108,2020-10-23T15:15:02-07:00,1.7402820587158,2,Pure_Unrelated.csv,SF_VersionB.csv,"Sans F B","Sans F B",INFLATE,DISGUST,Study1,U,76,24,JOL,User,-,"How likely are you to correctly recall the second item in the pair?|Type your response on a scale from 0-100 and then press Enter.",Study/JOL,"Study Phase2",1434,,,1259,1259,,,,1,1
5ee8e96f94cc2222aadb99af,elko7g4htr,Trevor_EX2,1,109,2020-10-23T15:15:05-07:00,3.0000700950623,2,Pure_Unrelated.csv,SF_VersionB.csv,"Sans F B","Sans F B",NAME,HATE,Study1,U,17,30,JOL_SF,User,-,"How likely are you to correctly recall the second item in the pair?|Type your response on a scale from 0-100 and then press Enter.",Study/JOL,"Study Phase2",2693,,,2477,2477,,,,1,1
5ee8e96f94cc2222aadb99af,elko7g4htr,Trevor_EX2,1,110,2020-10-23T15:15:08-07:00,3.1124019622803,2,Pure_Unrelated.csv,SF_VersionB.csv,"Sans F B","Sans F B",STRETCH,CLOTH,Study1,U,7,40,JOL_SF,User,-,"How likely are you to correctly recall the second item in the pair?|Type your response on a scale from 0-100 and then press Enter.",Study/JOL,"Study Phase2",2788,,,2644,2644,,,,1,1
5ee8e96f94cc2222aadb99af,elko7g4htr,Trevor_EX2,1,111,2020-10-23T15:15:25-07:00,16.877358913422,2,Pure_Unrelated.csv,SF_VersionB.csv,"Sans F B","Sans F B",BAT,SHAKY,Study1,U,66,13,JOL,User,-,"How likely are you to correctly recall the second item in the pair?|Type your response on a scale from 0-100 and then press Enter.",Study/JOL,"Study Phase2",16568,,,15749,15749,,,,1,0.229
5ee8e96f94cc2222aadb99af,elko7g4htr,Trevor_EX2,1,112,2020-10-23T15:15:27-07:00,2.2228569984436,2,Pure_Unrelated.csv,SF_VersionB.csv,"Sans F B","Sans F B",DEGREE,CHAIR,Study1,U,71,33,JOL_SF,User,-,"How likely are you to correctly recall the second item in the pair?|Type your response on a scale from 0-100 and then press Enter.",Study/JOL,"Study Phase2",1887,,,1683,1683,,,,2,1
5ee8e96f94cc2222aadb99af,elko7g4htr,Trevor_EX2,1,113,2020-10-23T15:15:28-07:00,1.4715559482574,2,Pure_Unrelated.csv,SF_VersionB.csv,"Sans F B","Sans F B",FUZZY,BANG,Study1,U,18,15,JOL,User,-,"How likely are you to correctly recall the second item in the pair?|Type your response on a scale from 0-100 and then press Enter.",Study/JOL,"Study Phase2",1150,,,975,975,,,,1,1
5ee8e96f94cc2222aadb99af,elko7g4htr,Trevor_EX2,1,114,2020-10-23T15:15:30-07:00,2.0160450935364,2,Pure_Unrelated.csv,SF_VersionB.csv,"Sans F B","Sans F B",DIZZY,SWEATER,Study1,U,77,41,JOL_SF,User,-,"How likely are you to correctly recall the second item in the pair?|Type your response on a scale from 0-100 and then press Enter.",Study/JOL,"Study Phase2",1693,,,1534,1534,,,,1,1
5ee8e96f94cc2222aadb99af,elko7g4htr,Trevor_EX2,1,115,2020-10-23T15:15:32-07:00,1.5936439037323,2,Pure_Unrelated.csv,SF_VersionB.csv,"Sans F B","Sans F B",NUMBER,HARD,Study1,U,78,11,JOL,User,-,"How likely are you to correctly recall the second item in the pair?|Type your response on a scale from 0-100 and then press Enter.",Study/JOL,"Study Phase2",1287,,,1161,1161,,,,1,1
5ee8e96f94cc2222aadb99af,elko7g4htr,Trevor_EX2,1,116,2020-10-23T15:15:33-07:00,1.4049310684204,2,Pure_Unrelated.csv,SF_VersionB.csv,"Sans F B","Sans F B",MAIN,SCAR,Study1,U,25,39,JOL_SF,User,-,"How likely are you to correctly recall the second item in the pair?|Type your response on a scale from 0-100 and then press Enter.",Study/JOL,"Study Phase2",1096,,,953,953,,,,1,1
5ee8e96f94cc2222aadb99af,elko7g4htr,Trevor_EX2,1,117,2020-10-23T15:15:35-07:00,1.8693261146545,2,Pure_Unrelated.csv,SF_VersionB.csv,"Sans F B","Sans F B",GIVE,STEAK,Study1,U,8,31,JOL_SF,User,-,"How likely are you to correctly recall the second item in the pair?|Type your response on a scale from 0-100 and then press Enter.",Study/JOL,"Study Phase2",1550,,,1400,1400,,,,2,1
5ee8e96f94cc2222aadb99af,elko7g4htr,Trevor_EX2,1,118,2020-10-23T15:15:37-07:00,1.4464099407196,2,Pure_Unrelated.csv,SF_VersionB.csv,"Sans F B","Sans F B",PARCEL,THROAT,Study1,U,67,19,JOL,User,-,"How likely are you to correctly recall the second item in the pair?|Type your response on a scale from 0-100 and then press Enter.",Study/JOL,"Study Phase2",1104,,,962,962,,,,2,1
5ee8e96f94cc2222aadb99af,elko7g4htr,Trevor_EX2,1,119,2020-10-23T15:15:39-07:00,1.9295010566711,2,Pure_Unrelated.csv,SF_VersionB.csv,"Sans F B","Sans F B",MIRROR,CHILDREN,Study1,U,24,36,JOL_SF,User,-,"How likely are you to correctly recall the second item in the pair?|Type your response on a scale from 0-100 and then press Enter.",Study/JOL,"Study Phase2",1553,,,1388,1388,,,,1,1
5ee8e96f94cc2222aadb99af,elko7g4htr,Trevor_EX2,1,120,2020-10-23T15:15:40-07:00,1.259489774704,2,Pure_Unrelated.csv,SF_VersionB.csv,"Sans F B","Sans F B",CAKE,CLOTHES,Study1,U,16,38,JOL_SF,User,-,"How likely are you to correctly recall the second item in the pair?|Type your response on a scale from 0-100 and then press Enter.",Study/JOL,"Study Phase2",945,,,812,812,,,,1,1
5ee8e96f94cc2222aadb99af,elko7g4htr,Trevor_EX2,1,121,2020-10-23T15:15:41-07:00,1.1874821186066,2,Pure_Unrelated.csv,SF_VersionB.csv,"Sans F B","Sans F B",MEAT,OBTAIN,Study1,U,11,43,JOL_SF,User,-,"How likely are you to correctly recall the second item in the pair?|Type your response on a scale from 0-100 and then press Enter.",Study/JOL,"Study Phase2",857,,,691,691,,,,1,1
5ee8e96f94cc2222aadb99af,elko7g4htr,Trevor_EX2,1,122,2020-10-23T15:15:43-07:00,1.7886009216309,2,Pure_Unrelated.csv,SF_VersionB.csv,"Sans F B","Sans F B",CRACKLE,ABLE,Study1,U,12,29,JOL_SF,User,-,"How likely are you to correctly recall the second item in the pair?|Type your response on a scale from 0-100 and then press Enter.",Study/JOL,"Study Phase2",1467,,,1241,1242,,,,1,1
5ee8e96f94cc2222aadb99af,elko7g4htr,Trevor_EX2,1,123,2020-10-23T15:15:45-07:00,1.8589751720428,2,Pure_Unrelated.csv,SF_VersionB.csv,"Sans F B","Sans F B",WARN,SEA,Study1,U,80,18,JOL,User,-,"How likely are you to correctly recall the second item in the pair?|Type your response on a scale from 0-100 and then press Enter.",Study/JOL,"Study Phase2",1523,,,1371,1371,,,,1,1
5ee8e96f94cc2222aadb99af,elko7g4htr,Trevor_EX2,1,124,2020-10-23T15:15:47-07:00,1.8421528339386,2,Pure_Unrelated.csv,SF_VersionB.csv,"Sans F B","Sans F B",LEASE,TOIL,Study1,U,20,42,JOL_SF,User,-,"How likely are you to correctly recall the second item in the pair?|Type your response on a scale from 0-100 and then press Enter.",Study/JOL,"Study Phase2",1510,,,1337,1337,,,,1,1
5ee8e96f94cc2222aadb99af,elko7g4htr,Trevor_EX2,1,125,2020-10-23T15:15:49-07:00,2.3552150726318,2,Pure_Unrelated.csv,SF_VersionB.csv,"Sans F B","Sans F B",PET,MOON,Study1,U,74,7,JOL,User,-,"How likely are you to correctly recall the second item in the pair?|Type your response on a scale from 0-100 and then press Enter.",Study/JOL,"Study Phase2",2039,,,1741,1741,,,,4,1
5ee8e96f94cc2222aadb99af,elko7g4htr,Trevor_EX2,1,126,2020-10-23T15:15:53-07:00,3.629175901413,2,Pure_Unrelated.csv,SF_VersionB.csv,"Sans F B","Sans F B",GRIND,STAND,Study1,U,85,9,JOL,User,-,"How likely are you to correctly recall the second item in the pair?|Type your response on a scale from 0-100 and then press Enter.",Study/JOL,"Study Phase2",3311,,,3141,3141,,,,2,1
5ee8e96f94cc2222aadb99af,elko7g4htr,Trevor_EX2,1,127,2020-10-23T15:15:55-07:00,2.4697639942169,2,Pure_Unrelated.csv,SF_VersionB.csv,"Sans F B","Sans F B",THICK,CONTEST,Study1,U,73,45,JOL_SF,User,-,"How likely are you to correctly recall the second item in the pair?|Type your response on a scale from 0-100 and then press Enter.",Study/JOL,"Study Phase2",2147,,,1950,1950,,,,1,1
5ee8e96f94cc2222aadb99af,elko7g4htr,Trevor_EX2,1,128,2020-10-23T15:15:56-07:00,1.4017760753632,2,Pure_Unrelated.csv,SF_VersionB.csv,"Sans F B","Sans F B",DONKEY,LUSH,Study1,U,84,14,JOL,User,-,"How likely are you to correctly recall the second item in the pair?|Type your response on a scale from 0-100 and then press Enter.",Study/JOL,"Study Phase2",1077,,,874,874,,,,1,1
5ee8e96f94cc2222aadb99af,elko7g4htr,Trevor_EX2,1,129,2020-10-23T15:15:58-07:00,1.3967299461365,2,Pure_Unrelated.csv,SF_VersionB.csv,"Sans F B","Sans F B",BROAD,INFECT,Study1,U,75,25,JOL,User,-,"How likely are you to correctly recall the second item in the pair?|Type your response on a scale from 0-100 and then press Enter.",Study/JOL,"Study Phase2",1082,,,700,700,,,,1,1
5ee8e96f94cc2222aadb99af,elko7g4htr,Trevor_EX2,1,130,2020-10-23T15:15:59-07:00,1.2366299629211,2,Pure_Unrelated.csv,SF_VersionB.csv,"Sans F B","Sans F B",MAZE,ELECTION,Study1,U,9,23,JOL,User,-,"How likely are you to correctly recall the second item in the pair?|Type your response on a scale from 0-100 and then press Enter.",Study/JOL,"Study Phase2",911,,,484,484,,,,1,1
5ee8e96f94cc2222aadb99af,elko7g4htr,Trevor_EX2,1,131,2020-10-23T15:16:00-07:00,1.4653120040894,2,Pure_Unrelated.csv,SF_VersionB.csv,"Sans F B","Sans F B",KEYS,JOKE,Study1,U,15,35,JOL_SF,User,-,"How likely are you to correctly recall the second item in the pair?|Type your response on a scale from 0-100 and then press Enter.",Study/JOL,"Study Phase2",1130,,,542,542,,,,1,1
5ee8e96f94cc2222aadb99af,elko7g4htr,Trevor_EX2,1,132,2020-10-23T15:16:02-07:00,1.3634190559387,2,Pure_Unrelated.csv,SF_VersionB.csv,"Sans F B","Sans F B",CRAYON,RATE,Study1,U,79,32,JOL_SF,User,-,"How likely are you to correctly recall the second item in the pair?|Type your response on a scale from 0-100 and then press Enter.",Study/JOL,"Study Phase2",1050,,,538,538,,,,1,1
5ee8e96f94cc2222aadb99af,elko7g4htr,Trevor_EX2,1,133,2020-10-23T15:16:04-07:00,2.3938660621643,2,Pure_Unrelated.csv,SF_VersionB.csv,"Sans F B","Sans F B",LOAN,SIGN,Study1,U,21,46,JOL_SF,User,-,"How likely are you to correctly recall the second item in the pair?|Type your response on a scale from 0-100 and then press Enter.",Study/JOL,"Study Phase2",2064,,,1943,1943,,,,4,1
5ee8e96f94cc2222aadb99af,elko7g4htr,Trevor_EX2,1,134,2020-10-23T15:16:06-07:00,2.2118999958038,2,Pure_Unrelated.csv,SF_VersionB.csv,"Sans F B","Sans F B",LISTEN,FICTION,Study1,U,14,20,JOL,User,-,"How likely are you to correctly recall the second item in the pair?|Type your response on a scale from 0-100 and then press Enter.",Study/JOL,"Study Phase2",1833,,,1690,1691,,,,2,1
5ee8e96f94cc2222aadb99af,elko7g4htr,Trevor_EX2,1,135,2020-10-23T15:16:08-07:00,1.3658220767975,2,Pure_Unrelated.csv,SF_VersionB.csv,"Sans F B","Sans F B",BOTH,OUNCE,Study1,U,22,37,JOL_SF,User,-,"How likely are you to correctly recall the second item in the pair?|Type your response on a scale from 0-100 and then press Enter.",Study/JOL,"Study Phase2",1038,,,840,840,,,,2,1
5ee8e96f94cc2222aadb99af,elko7g4htr,Trevor_EX2,1,136,2020-10-23T15:16:09-07:00,1.5383999347687,2,Pure_Unrelated.csv,SF_VersionB.csv,"Sans F B","Sans F B",STRESS,YAM,Study1,U,68,8,JOL,User,-,"How likely are you to correctly recall the second item in the pair?|Type your response on a scale from 0-100 and then press Enter.",Study/JOL,"Study Phase2",1216,,,1028,1028,,,,2,1
5ee8e96f94cc2222aadb99af,elko7g4htr,Trevor_EX2,1,137,2020-10-23T15:16:11-07:00,1.577868938446,2,Pure_Unrelated.csv,SF_VersionB.csv,"Sans F B","Sans F B",RESIST,GLUE,Study1,U,69,34,JOL_SF,User,-,"How likely are you to correctly recall the second item in the pair?|Type your response on a scale from 0-100 and then press Enter.",Study/JOL,"Study Phase2",1242,,,1032,1032,,,,2,1
5ee8e96f94cc2222aadb99af,elko7g4htr,Trevor_EX2,1,138,2020-10-23T15:16:12-07:00,1.3439979553223,2,Pure_Unrelated.csv,SF_VersionB.csv,"Sans F B","Sans F B",TAX,OWL,Study1,U,72,12,JOL,User,-,"How likely are you to correctly recall the second item in the pair?|Type your response on a scale from 0-100 and then press Enter.",Study/JOL,"Study Phase2",1026,,,708,708,,,,2,1
5ee8e96f94cc2222aadb99af,elko7g4htr,Trevor_EX2,1,139,2020-10-23T15:16:14-07:00,1.437313079834,2,Pure_Unrelated.csv,SF_VersionB.csv,"Sans F B","Sans F B",MOAT,CLEAR,Study1,U,19,10,JOL,User,-,"How likely are you to correctly recall the second item in the pair?|Type your response on a scale from 0-100 and then press Enter.",Study/JOL,"Study Phase2",1126,,,782,782,,,,2,1
5ee8e96f94cc2222aadb99af,elko7g4htr,Trevor_EX2,1,140,2020-10-23T15:16:15-07:00,1.4125061035156,2,Pure_Unrelated.csv,SF_VersionB.csv,"Sans F B","Sans F B",SHELL,SHAKE,Study1,U,13,16,JOL,User,-,"How likely are you to correctly recall the second item in the pair?|Type your response on a scale from 0-100 and then press Enter.",Study/JOL,"Study Phase2",1085,,,869,869,,,,2,1
5ee8e96f94cc2222aadb99af,elko7g4htr,Trevor_EX2,1,141,2020-10-23T15:16:18-07:00,2.7623028755188,2,Pure_Unrelated.csv,SF_VersionB.csv,"Sans F B","Sans F B",DIFFICULT,POOR,Study1,U,81,21,JOL,User,-,"How likely are you to correctly recall the second item in the pair?|Type your response on a scale from 0-100 and then press Enter.",Study/JOL,"Study Phase2",2426,,,2248,2248,,,,5,1
5ee8e96f94cc2222aadb99af,elko7g4htr,Trevor_EX2,1,142,2020-10-23T15:16:20-07:00,2.4606740474701,2,Pure_Unrelated.csv,SF_VersionB.csv,"Sans F B","Sans F B",TEMPERATURE,MORNING,Study1,U,23,22,JOL,User,-,"How likely are you to correctly recall the second item in the pair?|Type your response on a scale from 0-100 and then press Enter.",Study/JOL,"Study Phase2",2134,,,1999,1999,,,,7,1
5ee8e96f94cc2222aadb99af,elko7g4htr,Trevor_EX2,1,143,2020-10-23T15:16:22-07:00,1.9186170101166,2,Pure_Unrelated.csv,SF_VersionB.csv,"Sans F B","Sans F B",VEHICLE,CHARM,Study1,U,10,27,JOL_SF,User,-,"How likely are you to correctly recall the second item in the pair?|Type your response on a scale from 0-100 and then press Enter.",Study/JOL,"Study Phase2",1596,,,1487,1487,,,,1,1
5ee8e96f94cc2222aadb99af,elko7g4htr,Trevor_EX2,1,144,2020-10-23T15:16:24-07:00,1.2154490947723,2,Pure_Unrelated.csv,SF_VersionB.csv,"Sans F B","Sans F B",ROSE,NEGLECT,Study1,U,82,44,JOL_SF,User,-,"How likely are you to correctly recall the second item in the pair?|Type your response on a scale from 0-100 and then press Enter.",Study/JOL,"Study Phase2",905,,,721,721,,,,1,1
5ee8e96f94cc2222aadb99af,elko7g4htr,Trevor_EX2,1,145,2020-10-23T15:16:25-07:00,1.1554129123688,2,Pure_Unrelated.csv,SF_VersionB.csv,"Sans F B","Sans F B",RIPE,VERIFY,Study1,U,83,26,JOL,User,-,"How likely are you to correctly recall the second item in the pair?|Type your response on a scale from 0-100 and then press Enter.",Study/JOL,"Study Phase2",845,,,644,644,,,,1,1
5ee8e96f94cc2222aadb99af,elko7g4htr,Trevor_EX2,1,146,2020-10-23T15:16:26-07:00,1.621691942215,2,Pure_Unrelated.csv,SF_VersionB.csv,"Sans F B","Sans F B",JUSTICE,MAROON,Study1,U,6,17,JOL,User,-,"How likely are you to correctly recall the second item in the pair?|Type your response on a scale from 0-100 and then press Enter.",Study/JOL,"Study Phase2",1311,,,772,772,,,,1,1
5ee8e96f94cc2222aadb99af,elko7g4htr,Trevor_EX2,1,147,2020-10-23T15:16:28-07:00,1.4084060192108,2,Pure_Unrelated.csv,SF_VersionB.csv,"Sans F B","Sans F B",MALT,CHOCOLATE,BUFFER2,Buffer,88,50,JOL_SF,User,-,"How likely are you to correctly recall the second item in the pair?|Type your response on a scale from 0-100 and then press Enter.",Study/JOL,BUFFER4,1078,,,895,895,,,,1,1
5ee8e96f94cc2222aadb99af,elko7g4htr,Trevor_EX2,1,148,2020-10-23T15:16:32-07:00,4.5847001075745,2,Pure_Unrelated.csv,SF_VersionB.csv,"Sans F B","Sans F B",GEESE,GOOSE,BUFFER2,Buffer,86,51,JOL_SF,User,-,"How likely are you to correctly recall the second item in the pair?|Type your response on a scale from 0-100 and then press Enter.",Study/JOL,BUFFER4,4267,,,672,4010,,,,99,1
5ee8e96f94cc2222aadb99af,elko7g4htr,Trevor_EX2,1,149,2020-10-23T15:16:34-07:00,2.1260209083557,2,Pure_Unrelated.csv,SF_VersionB.csv,"Sans F B","Sans F B",MOON,SPACE,BUFFER2,Buffer,89,47,JOL,User,-,"How likely are you to correctly recall the second item in the pair?|Type your response on a scale from 0-100 and then press Enter.",Study/JOL,BUFFER4,1803,,,1498,1609,,,,10,1
5ee8e96f94cc2222aadb99af,elko7g4htr,Trevor_EX2,1,150,2020-10-23T15:16:38-07:00,4.0016040802002,2,Pure_Unrelated.csv,SF_VersionB.csv,"Sans F B","Sans F B",SHERRIF,POLICE,BUFFER2,Buffer,87,49,JOL_SF,User,-,"How likely are you to correctly recall the second item in the pair?|Type your response on a scale from 0-100 and then press Enter.",Study/JOL,BUFFER4,3659,,,2051,3477,,,,70,1
5ee8e96f94cc2222aadb99af,elko7g4htr,Trevor_EX2,1,151,2020-10-23T15:16:42-07:00,3.8638739585876,2,Pure_Unrelated.csv,SF_VersionB.csv,"Sans F B","Sans F B",THING,STUFF,BUFFER2,Buffer,90,48,JOL,User,-,"How likely are you to correctly recall the second item in the pair?|Type your response on a scale from 0-100 and then press Enter.",Study/JOL,BUFFER4,3506,,,2619,3316,,,,80,1
5ee8e96f94cc2222aadb99af,elko7g4htr,Trevor_EX2,1,152,2020-10-23T15:16:43-07:00,0.99746990203857,2,Pure_Unrelated.csv,SF_VersionB.csv,"Sans F B","Sans F B",,,,,,0,Instruct,User,-,"You have completed this section. Please press Enter.",Filler_Instruction,Instruct5,680,,,-1,-1,,,,,1
5ee8e96f94cc2222aadb99af,elko7g4htr,Trevor_EX2,1,153,2020-10-23T15:18:44-07:00,120.6243481636,2,Pure_Unrelated.csv,SF_VersionB.csv,"Sans F B","Sans F B",,,,,,0,FreeRecall,120,120,"Please list the 50 US states in reverse alphabetical order (z - a). The task will automatically advance to the next screen after two minutes.",,Filler2,120004,"Wyoming Wisconsin West Virginia Washington Virginia Vermont Utah Texas Tennessee South Dakota South Carolina Rhode Island Pennsylvania Oregon Oklahoma Ohio North Dakota North Carolina New York New Mexico",0,-1,-1,0,0,,,0.375
5ee8e96f94cc2222aadb99af,elko7g4htr,Trevor_EX2,1,154,2020-10-23T15:18:57-07:00,13.025359869003,2,Pure_Unrelated.csv,SF_VersionB.csv,"Sans F B","Sans F B",,,,,,0,Instruct,-,10,"You will now be presented with the first word from each of the previously studied item pairs. Please type the missing word. If you do not know the word, you may guess or press Enter to skip forward to the next pair.",,Instruct6,12335,,,-1,-1,,,,,1
5ee8e96f94cc2222aadb99af,elko7g4htr,Trevor_EX2,1,155,2020-10-23T15:19:01-07:00,4.3641090393066,2,Pure_Unrelated.csv,SF_VersionB.csv,"Sans F B","Sans F B",DIZZY,SWEATER,Study1,U,77,41,Test,User,-,,Recall,Recall2,4032,DONKEY,15.384615384615,2766,3751,0,0,,,1
5ee8e96f94cc2222aadb99af,elko7g4htr,Trevor_EX2,1,156,2020-10-23T15:19:03-07:00,1.4008629322052,2,Pure_Unrelated.csv,SF_VersionB.csv,"Sans F B","Sans F B",SHELL,SHAKE,Study1,U,13,16,Test,User,-,,Recall,Recall2,1069,,0,-1,-1,0,0,,,1
5ee8e96f94cc2222aadb99af,elko7g4htr,Trevor_EX2,1,157,2020-10-23T15:19:06-07:00,3.6826231479645,2,Pure_Unrelated.csv,SF_VersionB.csv,"Sans F B","Sans F B",NAME,HATE,Study1,U,17,30,Test,User,-,,Recall,Recall2,2364,,0,-1,-1,0,0,,,1
5ee8e96f94cc2222aadb99af,elko7g4htr,Trevor_EX2,1,158,2020-10-23T15:19:09-07:00,2.4745738506317,2,Pure_Unrelated.csv,SF_VersionB.csv,"Sans F B","Sans F B",DONKEY,LUSH,Study1,U,84,14,Test,User,-,,Recall,Recall2,2140,,0,-1,-1,0,0,,,1
5ee8e96f94cc2222aadb99af,elko7g4htr,Trevor_EX2,1,159,2020-10-23T15:19:11-07:00,2.2366361618042,2,Pure_Unrelated.csv,SF_VersionB.csv,"Sans F B","Sans F B",FUTURE,SINCERE,Study1,U,70,28,Test,User,-,,Recall,Recall2,1908,,0,-1,-1,0,0,,,1
5ee8e96f94cc2222aadb99af,elko7g4htr,Trevor_EX2,1,160,2020-10-23T15:19:13-07:00,1.4489488601685,2,Pure_Unrelated.csv,SF_VersionB.csv,"Sans F B","Sans F B",JUSTICE,MAROON,Study1,U,6,17,Test,User,-,,Recall,Recall2,1121,,0,-1,-1,0,0,,,1
5ee8e96f94cc2222aadb99af,elko7g4htr,Trevor_EX2,1,161,2020-10-23T15:19:14-07:00,1.6398730278015,2,Pure_Unrelated.csv,SF_VersionB.csv,"Sans F B","Sans F B",DIFFICULT,POOR,Study1,U,81,21,Test,User,-,,Recall,Recall2,1331,,0,-1,-1,0,0,,,1
5ee8e96f94cc2222aadb99af,elko7g4htr,Trevor_EX2,1,162,2020-10-23T15:19:20-07:00,6.0729279518127,2,Pure_Unrelated.csv,SF_VersionB.csv,"Sans F B","Sans F B",STRETCH,CLOTH,Study1,U,7,40,Test,User,-,,Recall,Recall2,5733,FABRIC,18.181818181818,4681,5544,0,0,,,1
5ee8e96f94cc2222aadb99af,elko7g4htr,Trevor_EX2,1,163,2020-10-23T15:19:22-07:00,1.4904539585114,2,Pure_Unrelated.csv,SF_VersionB.csv,"Sans F B","Sans F B",MIRROR,CHILDREN,Study1,U,24,36,Test,User,-,,Recall,Recall2,1152,,0,-1,-1,0,0,,,1
5ee8e96f94cc2222aadb99af,elko7g4htr,Trevor_EX2,1,164,2020-10-23T15:19:32-07:00,10.052643060684,2,Pure_Unrelated.csv,SF_VersionB.csv,"Sans F B","Sans F B",RIPE,VERIFY,Study1,U,83,26,Test,User,-,,Recall,Recall2,9717,,0,-1,-1,0,0,,,0.347
5ee8e96f94cc2222aadb99af,elko7g4htr,Trevor_EX2,1,165,2020-10-23T15:19:36-07:00,4.1297590732574,2,Pure_Unrelated.csv,SF_VersionB.csv,"Sans F B","Sans F B",PET,MOON,Study1,U,74,7,Test,User,-,,Recall,Recall2,3789,MOON,100,2101,2625,1,1,,,1
5ee8e96f94cc2222aadb99af,elko7g4htr,Trevor_EX2,1,166,2020-10-23T15:19:37-07:00,1.4774570465088,2,Pure_Unrelated.csv,SF_VersionB.csv,"Sans F B","Sans F B",CRAYON,RATE,Study1,U,79,32,Test,User,-,,Recall,Recall2,1147,,0,-1,-1,0,0,,,1
5ee8e96f94cc2222aadb99af,elko7g4htr,Trevor_EX2,1,167,2020-10-23T15:19:39-07:00,1.5882148742676,2,Pure_Unrelated.csv,SF_VersionB.csv,"Sans F B","Sans F B",BROAD,INFECT,Study1,U,75,25,Test,User,-,,Recall,Recall2,1257,,0,-1,-1,0,0,,,1
5ee8e96f94cc2222aadb99af,elko7g4htr,Trevor_EX2,1,168,2020-10-23T15:19:40-07:00,1.3837370872498,2,Pure_Unrelated.csv,SF_VersionB.csv,"Sans F B","Sans F B",VEHICLE,CHARM,Study1,U,10,27,Test,User,-,,Recall,Recall2,1061,,0,-1,-1,0,0,,,1
5ee8e96f94cc2222aadb99af,elko7g4htr,Trevor_EX2,1,169,2020-10-23T15:19:42-07:00,1.5407860279083,2,Pure_Unrelated.csv,SF_VersionB.csv,"Sans F B","Sans F B",GRIND,STAND,Study1,U,85,9,Test,User,-,,Recall,Recall2,1216,,0,-1,-1,0,0,,,1
5ee8e96f94cc2222aadb99af,elko7g4htr,Trevor_EX2,1,170,2020-10-23T15:19:43-07:00,1.1021628379822,2,Pure_Unrelated.csv,SF_VersionB.csv,"Sans F B","Sans F B",LEASE,TOIL,Study1,U,20,42,Test,User,-,,Recall,Recall2,769,,0,-1,-1,0,0,,,1
5ee8e96f94cc2222aadb99af,elko7g4htr,Trevor_EX2,1,171,2020-10-23T15:19:44-07:00,1.2802131175995,2,Pure_Unrelated.csv,SF_VersionB.csv,"Sans F B","Sans F B",DEGREE,CHAIR,Study1,U,71,33,Test,User,-,,Recall,Recall2,934,,0,-1,-1,0,0,,,1
5ee8e96f94cc2222aadb99af,elko7g4htr,Trevor_EX2,1,172,2020-10-23T15:19:46-07:00,1.4771699905396,2,Pure_Unrelated.csv,SF_VersionB.csv,"Sans F B","Sans F B",CAKE,CLOTHES,Study1,U,16,38,Test,User,-,,Recall,Recall2,1113,,0,-1,-1,0,0,,,1
5ee8e96f94cc2222aadb99af,elko7g4htr,Trevor_EX2,1,173,2020-10-23T15:19:47-07:00,1.1813540458679,2,Pure_Unrelated.csv,SF_VersionB.csv,"Sans F B","Sans F B",MAZE,ELECTION,Study1,U,9,23,Test,User,-,,Recall,Recall2,843,,0,-1,-1,0,0,,,1
5ee8e96f94cc2222aadb99af,elko7g4htr,Trevor_EX2,1,174,2020-10-23T15:19:49-07:00,1.9901509284973,2,Pure_Unrelated.csv,SF_VersionB.csv,"Sans F B","Sans F B",MEAT,OBTAIN,Study1,U,11,43,Test,User,-,,Recall,Recall2,1665,,0,-1,-1,0,0,,,1
5ee8e96f94cc2222aadb99af,elko7g4htr,Trevor_EX2,1,175,2020-10-23T15:19:51-07:00,1.8593690395355,2,Pure_Unrelated.csv,SF_VersionB.csv,"Sans F B","Sans F B",FUZZY,BANG,Study1,U,18,15,Test,User,-,,Recall,Recall2,1511,,0,-1,-1,0,0,,,1
5ee8e96f94cc2222aadb99af,elko7g4htr,Trevor_EX2,1,176,2020-10-23T15:19:53-07:00,2.1180200576782,2,Pure_Unrelated.csv,SF_VersionB.csv,"Sans F B","Sans F B",TAX,OWL,Study1,U,72,12,Test,User,-,,Recall,Recall2,1782,,0,-1,-1,0,0,,,1
5ee8e96f94cc2222aadb99af,elko7g4htr,Trevor_EX2,1,177,2020-10-23T15:19:54-07:00,1.4497518539429,2,Pure_Unrelated.csv,SF_VersionB.csv,"Sans F B","Sans F B",WARN,SEA,Study1,U,80,18,Test,User,-,,Recall,Recall2,1080,,0,-1,-1,0,0,,,1
5ee8e96f94cc2222aadb99af,elko7g4htr,Trevor_EX2,1,178,2020-10-23T15:19:56-07:00,1.4736721515656,2,Pure_Unrelated.csv,SF_VersionB.csv,"Sans F B","Sans F B",LOAN,SIGN,Study1,U,21,46,Test,User,-,,Recall,Recall2,1166,,0,-1,-1,0,0,,,1
5ee8e96f94cc2222aadb99af,elko7g4htr,Trevor_EX2,1,179,2020-10-23T15:19:57-07:00,1.195702791214,2,Pure_Unrelated.csv,SF_VersionB.csv,"Sans F B","Sans F B",THICK,CONTEST,Study1,U,73,45,Test,User,-,,Recall,Recall2,843,,0,-1,-1,0,0,,,1
5ee8e96f94cc2222aadb99af,elko7g4htr,Trevor_EX2,1,180,2020-10-23T15:19:58-07:00,1.4196569919586,2,Pure_Unrelated.csv,SF_VersionB.csv,"Sans F B","Sans F B",BAT,SHAKY,Study1,U,66,13,Test,User,-,,Recall,Recall2,1055,,0,-1,-1,0,0,,,1
5ee8e96f94cc2222aadb99af,elko7g4htr,Trevor_EX2,1,181,2020-10-23T15:20:04-07:00,5.1279220581055,2,Pure_Unrelated.csv,SF_VersionB.csv,"Sans F B","Sans F B",NUMBER,HARD,Study1,U,78,11,Test,User,-,,Recall,Recall2,4749,NAME,25,2358,4020,0,0,,,1
5ee8e96f94cc2222aadb99af,elko7g4htr,Trevor_EX2,1,182,2020-10-23T15:20:05-07:00,1.2717440128326,2,Pure_Unrelated.csv,SF_VersionB.csv,"Sans F B","Sans F B",KEYS,JOKE,Study1,U,15,35,Test,User,-,,Recall,Recall2,950,,0,-1,-1,0,0,,,1
5ee8e96f94cc2222aadb99af,elko7g4htr,Trevor_EX2,1,183,2020-10-23T15:20:06-07:00,1.2187540531158,2,Pure_Unrelated.csv,SF_VersionB.csv,"Sans F B","Sans F B",MAIN,SCAR,Study1,U,25,39,Test,User,-,,Recall,Recall2,880,,0,-1,-1,0,0,,,1
5ee8e96f94cc2222aadb99af,elko7g4htr,Trevor_EX2,1,184,2020-10-23T15:20:09-07:00,2.6787610054016,2,Pure_Unrelated.csv,SF_VersionB.csv,"Sans F B","Sans F B",INFLATE,DISGUST,Study1,U,76,24,Test,User,-,,Recall,Recall2,2345,,0,-1,-1,0,0,,,1
5ee8e96f94cc2222aadb99af,elko7g4htr,Trevor_EX2,1,185,2020-10-23T15:20:11-07:00,2.5243508815765,2,Pure_Unrelated.csv,SF_VersionB.csv,"Sans F B","Sans F B",TEMPERATURE,MORNING,Study1,U,23,22,Test,User,-,,Recall,Recall2,2188,,0,-1,-1,0,0,,,1
5ee8e96f94cc2222aadb99af,elko7g4htr,Trevor_EX2,1,186,2020-10-23T15:20:13-07:00,1.3430070877075,2,Pure_Unrelated.csv,SF_VersionB.csv,"Sans F B","Sans F B",BOTH,OUNCE,Study1,U,22,37,Test,User,-,,Recall,Recall2,1001,,0,-1,-1,0,0,,,1
5ee8e96f94cc2222aadb99af,elko7g4htr,Trevor_EX2,1,187,2020-10-23T15:20:14-07:00,1.2755711078644,2,Pure_Unrelated.csv,SF_VersionB.csv,"Sans F B","Sans F B",CRACKLE,ABLE,Study1,U,12,29,Test,User,-,,Recall,Recall2,934,,0,-1,-1,0,0,,,1
5ee8e96f94cc2222aadb99af,elko7g4htr,Trevor_EX2,1,188,2020-10-23T15:20:15-07:00,1.0582158565521,2,Pure_Unrelated.csv,SF_VersionB.csv,"Sans F B","Sans F B",STRESS,YAM,Study1,U,68,8,Test,User,-,,Recall,Recall2,708,,0,-1,-1,0,0,,,1
5ee8e96f94cc2222aadb99af,elko7g4htr,Trevor_EX2,1,189,2020-10-23T15:20:17-07:00,1.5975329875946,2,Pure_Unrelated.csv,SF_VersionB.csv,"Sans F B","Sans F B",MOAT,CLEAR,Study1,U,19,10,Test,User,-,,Recall,Recall2,1254,,0,-1,-1,0,0,,,1
5ee8e96f94cc2222aadb99af,elko7g4htr,Trevor_EX2,1,190,2020-10-23T15:20:18-07:00,1.7949590682983,2,Pure_Unrelated.csv,SF_VersionB.csv,"Sans F B","Sans F B",GIVE,STEAK,Study1,U,8,31,Test,User,-,,Recall,Recall2,1452,,0,-1,-1,0,0,,,1
5ee8e96f94cc2222aadb99af,elko7g4htr,Trevor_EX2,1,191,2020-10-23T15:20:20-07:00,1.6269569396973,2,Pure_Unrelated.csv,SF_VersionB.csv,"Sans F B","Sans F B",RESIST,GLUE,Study1,U,69,34,Test,User,-,,Recall,Recall2,1288,,0,-1,-1,0,0,,,1
5ee8e96f94cc2222aadb99af,elko7g4htr,Trevor_EX2,1,192,2020-10-23T15:20:23-07:00,3.4805681705475,2,Pure_Unrelated.csv,SF_VersionB.csv,"Sans F B","Sans F B",ROSE,NEGLECT,Study1,U,82,44,Test,User,-,,Recall,Recall2,3153,,0,-1,-1,0,0,,,1
5ee8e96f94cc2222aadb99af,elko7g4htr,Trevor_EX2,1,193,2020-10-23T15:20:25-07:00,1.3334918022156,2,Pure_Unrelated.csv,SF_VersionB.csv,"Sans F B","Sans F B",PARCEL,THROAT,Study1,U,67,19,Test,User,-,,Recall,Recall2,996,,0,-1,-1,0,0,,,1
5ee8e96f94cc2222aadb99af,elko7g4htr,Trevor_EX2,1,194,2020-10-23T15:20:26-07:00,1.338427066803,2,Pure_Unrelated.csv,SF_VersionB.csv,"Sans F B","Sans F B",LISTEN,FICTION,Study1,U,14,20,Test,User,-,,Recall,Recall2,1010,,0,-1,-1,0,0,,,1
5ee8e96f94cc2222aadb99af,elko7g4htr,Trevor_EX2,1,195,2020-10-23T15:20:28-07:00,1.6775169372559,2,Pure_Unrelated.csv,SF_VersionB.csv,"Sans F B","Sans F B",,,,,,0,Instruct,User,-,"You have completed this section. Please press Enter.",,Instruct7,1358,,,-1,-1,,,,,1
5ee8e96f94cc2222aadb99af,elko7g4htr,Trevor_EX2,1,196,2020-10-23T15:20:31-07:00,3.0901460647583,2,Pure_Unrelated.csv,SF_VersionB.csv,"Sans F B","Sans F B",,,,,,0,Instruct,User,-,"The following screen will ask you a few questions abour your experience today. You must complete these questions to receive credit.",,Instruct8,2545,,,-1,-1,,,,,1
