Username,ID,ExperimentName,Session,Trial,Date,TimeDif,"Condition Number","Stimuli File","Order File","Condition Description","Condition Notes",Stimuli*Cue,Stimuli*Answer,Stimuli*Shuffle,"Stimuli*Stimuli Notes",Stimuli*Value,Procedure*Item,"Procedure*Trial Type","Procedure*Max Time","Procedure*Min Time",Procedure*Text,"Procedure*Procedure Notes",Procedure*Shuffle,Response*RT,Response*Response,Response*Accuracy,Response*RTfirst,Response*RTlast,Response*strictAcc,Response*lenientAcc,Response*focus,Response*JOL,Response*Focus
w10042357_SGH,qujwut8dy8,Trevor_EX2,1,1,2020-10-10T14:57:19-07:00,6.3844888210297,3,Pure_Unrelated.csv,Control_VersionA.csv,"Control A","Control A",,,,,,0,Instruct,-,5,"In this section, you will be presented with a series of word pairs.",Initial_Instruct,Instruct1,6192,,,-1,-1,,,,,1
w10042357_SGH,qujwut8dy8,Trevor_EX2,1,2,2020-10-10T14:57:32-07:00,12.957322120667,3,Pure_Unrelated.csv,Control_VersionA.csv,"Control A","Control A",,,,,,0,Instruct,-,5,"As you study, you will be asked to rate your ability to remember the second item in the pair if you were only shown the first at test. You will make these ratings using a 0 to 100 Scale.",,Instruct13,12664,,,-1,-1,,,,,1
w10042357_SGH,qujwut8dy8,Trevor_EX2,1,3,2020-10-10T14:57:44-07:00,11.483673095703,3,Pure_Unrelated.csv,Control_VersionA.csv,"Control A","Control A",,,,,,0,Instruct,-,10,"For example, if you are given the pair CAT - DOG, a rating of 0 indicates that you would not remember DOG at test, while a rating of 100 indicates full certainty that you would remember the word DOG at test.",,Instruct14,11188,,,-1,-1,,,,,1
w10042357_SGH,qujwut8dy8,Trevor_EX2,1,4,2020-10-10T14:57:56-07:00,12.054516792297,3,Pure_Unrelated.csv,Control_VersionA.csv,"Control A","Control A",,,,,,0,Instruct,-,10,"When making your ratings, it is criticial that you use the full range of the scale. You will be disqualified for only giving ratings of 0 or 100! After making your rating, press Enter to advance to the next pair.",,Instruct15,11785,,,-1,-1,,,,,1
w10042357_SGH,qujwut8dy8,Trevor_EX2,1,5,2020-10-10T14:57:58-07:00,2.2330431938171,3,Pure_Unrelated.csv,Control_VersionA.csv,"Control A","Control A",,,,,,0,Instruct,User,-,"You will now begin the study. Press Enter when you are ready to begin.",,Instruct16,1968,,,-1,-1,,,,,1
w10042357_SGH,qujwut8dy8,Trevor_EX2,1,6,2020-10-10T14:58:02-07:00,4.2481210231781,3,Pure_Unrelated.csv,Control_VersionA.csv,"Control A","Control A",SPACE,JAM,BUFFER1,Buffer,5,2,JOL,User,-,"How likely are you to correctly recall the second item in the pair?|Type your response on a scale from 0-100 and then press Enter.",Study/JOL,BUFFER,3959,,,2805,3274,,,,100,1
w10042357_SGH,qujwut8dy8,Trevor_EX2,1,7,2020-10-10T14:58:05-07:00,3.1630017757416,3,Pure_Unrelated.csv,Control_VersionA.csv,"Control A","Control A",PEANUT,BUTTER,BUFFER1,Buffer,3,5,JOL,User,-,"How likely are you to correctly recall the second item in the pair?|Type your response on a scale from 0-100 and then press Enter.",Study/JOL,BUFFER,2860,,,1667,2228,,,,100,1
w10042357_SGH,qujwut8dy8,Trevor_EX2,1,8,2020-10-10T14:58:12-07:00,6.9777750968933,3,Pure_Unrelated.csv,Control_VersionA.csv,"Control A","Control A",BASEBALL,CATCHER,BUFFER1,Buffer,2,4,JOL,User,-,"How likely are you to correctly recall the second item in the pair?|Type your response on a scale from 0-100 and then press Enter.",Study/JOL,BUFFER,6690,,,3765,5792,,,,70,1
w10042357_SGH,qujwut8dy8,Trevor_EX2,1,9,2020-10-10T14:58:18-07:00,6.0287129878998,3,Pure_Unrelated.csv,Control_VersionA.csv,"Control A","Control A",TREES,GREEN,BUFFER1,Buffer,1,6,JOL,User,-,"How likely are you to correctly recall the second item in the pair?|Type your response on a scale from 0-100 and then press Enter.",Study/JOL,BUFFER,5716,,,4828,5053,,,,90,1
w10042357_SGH,qujwut8dy8,Trevor_EX2,1,10,2020-10-10T14:58:26-07:00,7.7678070068359,3,Pure_Unrelated.csv,Control_VersionA.csv,"Control A","Control A",SCARE,HIDE,BUFFER1,Buffer,4,3,JOL,User,-,"How likely are you to correctly recall the second item in the pair?|Type your response on a scale from 0-100 and then press Enter.",Study/JOL,BUFFER,7455,,,6544,6719,,,,10,1
w10042357_SGH,qujwut8dy8,Trevor_EX2,1,11,2020-10-10T14:58:29-07:00,3.1693980693817,3,Pure_Unrelated.csv,Control_VersionA.csv,"Control A","Control A",BAT,SHAKY,Study1,U,66,13,JOL,User,-,"How likely are you to correctly recall the second item in the pair?|Type your response on a scale from 0-100 and then press Enter.",Study/JOL,"Study Phase",2864,,,1964,1964,,,,0,1
w10042357_SGH,qujwut8dy8,Trevor_EX2,1,12,2020-10-10T14:58:34-07:00,4.469055891037,3,Pure_Unrelated.csv,Control_VersionA.csv,"Control A","Control A",CRACKLE,ABLE,Study1,U,12,14,JOL,User,-,"How likely are you to correctly recall the second item in the pair?|Type your response on a scale from 0-100 and then press Enter.",Study/JOL,"Study Phase",4158,,,3459,3459,,,,0,1
w10042357_SGH,qujwut8dy8,Trevor_EX2,1,13,2020-10-10T14:58:36-07:00,2.5398540496826,3,Pure_Unrelated.csv,Control_VersionA.csv,"Control A","Control A",PET,MOON,Study1,U,74,17,JOL,User,-,"How likely are you to correctly recall the second item in the pair?|Type your response on a scale from 0-100 and then press Enter.",Study/JOL,"Study Phase",2227,,,1483,1483,,,,0,1
w10042357_SGH,qujwut8dy8,Trevor_EX2,1,14,2020-10-10T14:58:39-07:00,2.6457479000092,3,Pure_Unrelated.csv,Control_VersionA.csv,"Control A","Control A",WARN,SEA,Study1,U,80,26,JOL,User,-,"How likely are you to correctly recall the second item in the pair?|Type your response on a scale from 0-100 and then press Enter.",Study/JOL,"Study Phase",2350,,,1650,1650,,,,0,1
w10042357_SGH,qujwut8dy8,Trevor_EX2,1,15,2020-10-10T14:58:44-07:00,5.5010201931,3,Pure_Unrelated.csv,Control_VersionA.csv,"Control A","Control A",MEAT,OBTAIN,Study1,U,11,8,JOL,User,-,"How likely are you to correctly recall the second item in the pair?|Type your response on a scale from 0-100 and then press Enter.",Study/JOL,"Study Phase",5210,,,4382,4382,,,,0,1
w10042357_SGH,qujwut8dy8,Trevor_EX2,1,16,2020-10-10T14:58:48-07:00,3.8410878181458,3,Pure_Unrelated.csv,Control_VersionA.csv,"Control A","Control A",LISTEN,FICTION,Study1,U,14,11,JOL,User,-,"How likely are you to correctly recall the second item in the pair?|Type your response on a scale from 0-100 and then press Enter.",Study/JOL,"Study Phase",3534,,,2636,2835,,,,10,1
w10042357_SGH,qujwut8dy8,Trevor_EX2,1,17,2020-10-10T14:58:53-07:00,4.92551612854,3,Pure_Unrelated.csv,Control_VersionA.csv,"Control A","Control A",GIVE,STEAK,Study1,U,8,36,JOL,User,-,"How likely are you to correctly recall the second item in the pair?|Type your response on a scale from 0-100 and then press Enter.",Study/JOL,"Study Phase",4629,,,3973,3973,,,,0,1
w10042357_SGH,qujwut8dy8,Trevor_EX2,1,18,2020-10-10T14:58:58-07:00,4.6476860046387,3,Pure_Unrelated.csv,Control_VersionA.csv,"Control A","Control A",MOAT,CLEAR,Study1,U,19,12,JOL,User,-,"How likely are you to correctly recall the second item in the pair?|Type your response on a scale from 0-100 and then press Enter.",Study/JOL,"Study Phase",4345,,,1228,1228,,,,0,1
w10042357_SGH,qujwut8dy8,Trevor_EX2,1,19,2020-10-10T14:59:00-07:00,2.5109360218048,3,Pure_Unrelated.csv,Control_VersionA.csv,"Control A","Control A",BOTH,OUNCE,Study1,U,22,19,JOL,User,-,"How likely are you to correctly recall the second item in the pair?|Type your response on a scale from 0-100 and then press Enter.",Study/JOL,"Study Phase",2239,,,1550,1550,,,,0,1
w10042357_SGH,qujwut8dy8,Trevor_EX2,1,20,2020-10-10T14:59:03-07:00,2.2005360126495,3,Pure_Unrelated.csv,Control_VersionA.csv,"Control A","Control A",TAX,OWL,Study1,U,72,45,JOL,User,-,"How likely are you to correctly recall the second item in the pair?|Type your response on a scale from 0-100 and then press Enter.",Study/JOL,"Study Phase",1879,,,1282,1283,,,,0,1
w10042357_SGH,qujwut8dy8,Trevor_EX2,1,21,2020-10-10T14:59:06-07:00,3.3214249610901,3,Pure_Unrelated.csv,Control_VersionA.csv,"Control A","Control A",NUMBER,HARD,Study1,U,78,22,JOL,User,-,"How likely are you to correctly recall the second item in the pair?|Type your response on a scale from 0-100 and then press Enter.",Study/JOL,"Study Phase",3040,,,2058,2216,,,,10,1
w10042357_SGH,qujwut8dy8,Trevor_EX2,1,22,2020-10-10T14:59:08-07:00,2.4721879959106,3,Pure_Unrelated.csv,Control_VersionA.csv,"Control A","Control A",MAZE,ELECTION,Study1,U,9,16,JOL,User,-,"How likely are you to correctly recall the second item in the pair?|Type your response on a scale from 0-100 and then press Enter.",Study/JOL,"Study Phase",2165,,,1570,1570,,,,0,1
w10042357_SGH,qujwut8dy8,Trevor_EX2,1,23,2020-10-10T14:59:14-07:00,5.8125469684601,3,Pure_Unrelated.csv,Control_VersionA.csv,"Control A","Control A",STRETCH,CLOTH,Study1,U,7,33,JOL,User,-,"How likely are you to correctly recall the second item in the pair?|Type your response on a scale from 0-100 and then press Enter.",Study/JOL,"Study Phase",5526,,,1431,4834,,,,20,1
w10042357_SGH,qujwut8dy8,Trevor_EX2,1,24,2020-10-10T14:59:17-07:00,2.7429919242859,3,Pure_Unrelated.csv,Control_VersionA.csv,"Control A","Control A",LOAN,SIGN,Study1,U,21,41,JOL,User,-,"How likely are you to correctly recall the second item in the pair?|Type your response on a scale from 0-100 and then press Enter.",Study/JOL,"Study Phase",2459,,,1907,1907,,,,0,1
w10042357_SGH,qujwut8dy8,Trevor_EX2,1,25,2020-10-10T14:59:19-07:00,2.214467048645,3,Pure_Unrelated.csv,Control_VersionA.csv,"Control A","Control A",FUTURE,SINCERE,Study1,U,70,38,JOL,User,-,"How likely are you to correctly recall the second item in the pair?|Type your response on a scale from 0-100 and then press Enter.",Study/JOL,"Study Phase",1924,,,1357,1357,,,,0,1
w10042357_SGH,qujwut8dy8,Trevor_EX2,1,26,2020-10-10T14:59:21-07:00,2.2098319530487,3,Pure_Unrelated.csv,Control_VersionA.csv,"Control A","Control A",BROAD,INFECT,Study1,U,75,34,JOL,User,-,"How likely are you to correctly recall the second item in the pair?|Type your response on a scale from 0-100 and then press Enter.",Study/JOL,"Study Phase",1920,,,1287,1287,,,,0,1
w10042357_SGH,qujwut8dy8,Trevor_EX2,1,27,2020-10-10T14:59:26-07:00,4.237850189209,3,Pure_Unrelated.csv,Control_VersionA.csv,"Control A","Control A",JUSTICE,MAROON,Study1,U,6,28,JOL,User,-,"How likely are you to correctly recall the second item in the pair?|Type your response on a scale from 0-100 and then press Enter.",Study/JOL,"Study Phase",3944,,,3362,3362,,,,0,1
w10042357_SGH,qujwut8dy8,Trevor_EX2,1,28,2020-10-10T14:59:27-07:00,1.9302878379822,3,Pure_Unrelated.csv,Control_VersionA.csv,"Control A","Control A",LEASE,TOIL,Study1,U,20,9,JOL,User,-,"How likely are you to correctly recall the second item in the pair?|Type your response on a scale from 0-100 and then press Enter.",Study/JOL,"Study Phase",1637,,,1051,1051,,,,0,1
w10042357_SGH,qujwut8dy8,Trevor_EX2,1,29,2020-10-10T14:59:31-07:00,3.9515290260315,3,Pure_Unrelated.csv,Control_VersionA.csv,"Control A","Control A",DIZZY,SWEATER,Study1,U,77,32,JOL,User,-,"How likely are you to correctly recall the second item in the pair?|Type your response on a scale from 0-100 and then press Enter.",Study/JOL,"Study Phase",3657,,,1123,3121,,,,10,1
w10042357_SGH,qujwut8dy8,Trevor_EX2,1,30,2020-10-10T14:59:34-07:00,2.0976309776306,3,Pure_Unrelated.csv,Control_VersionA.csv,"Control A","Control A",STRESS,YAM,Study1,U,68,40,JOL,User,-,"How likely are you to correctly recall the second item in the pair?|Type your response on a scale from 0-100 and then press Enter.",Study/JOL,"Study Phase",1806,,,1096,1096,,,,0,1
w10042357_SGH,qujwut8dy8,Trevor_EX2,1,31,2020-10-10T14:59:35-07:00,1.8680310249329,3,Pure_Unrelated.csv,Control_VersionA.csv,"Control A","Control A",THICK,CONTEST,Study1,U,73,25,JOL,User,-,"How likely are you to correctly recall the second item in the pair?|Type your response on a scale from 0-100 and then press Enter.",Study/JOL,"Study Phase",1586,,,1071,1071,,,,0,1
w10042357_SGH,qujwut8dy8,Trevor_EX2,1,32,2020-10-10T14:59:37-07:00,1.9764029979706,3,Pure_Unrelated.csv,Control_VersionA.csv,"Control A","Control A",RIPE,VERIFY,Study1,U,83,23,JOL,User,-,"How likely are you to correctly recall the second item in the pair?|Type your response on a scale from 0-100 and then press Enter.",Study/JOL,"Study Phase",1675,,,1121,1121,,,,0,1
w10042357_SGH,qujwut8dy8,Trevor_EX2,1,33,2020-10-10T14:59:39-07:00,1.8367650508881,3,Pure_Unrelated.csv,Control_VersionA.csv,"Control A","Control A",GRIND,STAND,Study1,U,85,39,JOL,User,-,"How likely are you to correctly recall the second item in the pair?|Type your response on a scale from 0-100 and then press Enter.",Study/JOL,"Study Phase",1558,,,1013,1013,,,,0,1
w10042357_SGH,qujwut8dy8,Trevor_EX2,1,34,2020-10-10T14:59:41-07:00,1.9869480133057,3,Pure_Unrelated.csv,Control_VersionA.csv,"Control A","Control A",PARCEL,THROAT,Study1,U,67,46,JOL,User,-,"How likely are you to correctly recall the second item in the pair?|Type your response on a scale from 0-100 and then press Enter.",Study/JOL,"Study Phase",1713,,,1174,1174,,,,0,1
w10042357_SGH,qujwut8dy8,Trevor_EX2,1,35,2020-10-10T14:59:47-07:00,5.9339780807495,3,Pure_Unrelated.csv,Control_VersionA.csv,"Control A","Control A",SHELL,SHAKE,Study1,U,13,21,JOL,User,-,"How likely are you to correctly recall the second item in the pair?|Type your response on a scale from 0-100 and then press Enter.",Study/JOL,"Study Phase",5559,,,2292,4820,,,,15,1
w10042357_SGH,qujwut8dy8,Trevor_EX2,1,36,2020-10-10T14:59:50-07:00,2.448383808136,3,Pure_Unrelated.csv,Control_VersionA.csv,"Control A","Control A",DONKEY,LUSH,Study1,U,84,18,JOL,User,-,"How likely are you to correctly recall the second item in the pair?|Type your response on a scale from 0-100 and then press Enter.",Study/JOL,"Study Phase",2171,,,1618,1618,,,,0,1
w10042357_SGH,qujwut8dy8,Trevor_EX2,1,37,2020-10-10T14:59:51-07:00,1.8453900814056,3,Pure_Unrelated.csv,Control_VersionA.csv,"Control A","Control A",KEYS,JOKE,Study1,U,15,20,JOL,User,-,"How likely are you to correctly recall the second item in the pair?|Type your response on a scale from 0-100 and then press Enter.",Study/JOL,"Study Phase",1554,,,1040,1040,,,,0,1
w10042357_SGH,qujwut8dy8,Trevor_EX2,1,38,2020-10-10T14:59:55-07:00,3.5647399425507,3,Pure_Unrelated.csv,Control_VersionA.csv,"Control A","Control A",DIFFICULT,POOR,Study1,U,81,30,JOL,User,-,"How likely are you to correctly recall the second item in the pair?|Type your response on a scale from 0-100 and then press Enter.",Study/JOL,"Study Phase",3263,,,1087,1087,,,,0,1
w10042357_SGH,qujwut8dy8,Trevor_EX2,1,39,2020-10-10T14:59:57-07:00,1.9547410011292,3,Pure_Unrelated.csv,Control_VersionA.csv,"Control A","Control A",MIRROR,CHILDREN,Study1,U,24,44,JOL,User,-,"How likely are you to correctly recall the second item in the pair?|Type your response on a scale from 0-100 and then press Enter.",Study/JOL,"Study Phase",1665,,,1128,1128,,,,0,1
w10042357_SGH,qujwut8dy8,Trevor_EX2,1,40,2020-10-10T15:00:00-07:00,2.9748649597168,3,Pure_Unrelated.csv,Control_VersionA.csv,"Control A","Control A",NAME,HATE,Study1,U,17,15,JOL,User,-,"How likely are you to correctly recall the second item in the pair?|Type your response on a scale from 0-100 and then press Enter.",Study/JOL,"Study Phase",1650,,,1158,1158,,,,0,1
w10042357_SGH,qujwut8dy8,Trevor_EX2,1,41,2020-10-10T15:00:03-07:00,2.5849289894104,3,Pure_Unrelated.csv,Control_VersionA.csv,"Control A","Control A",VEHICLE,CHARM,Study1,U,10,42,JOL,User,-,"How likely are you to correctly recall the second item in the pair?|Type your response on a scale from 0-100 and then press Enter.",Study/JOL,"Study Phase",2244,,,1693,1693,,,,0,1
w10042357_SGH,qujwut8dy8,Trevor_EX2,1,42,2020-10-10T15:00:05-07:00,2.0020370483398,3,Pure_Unrelated.csv,Control_VersionA.csv,"Control A","Control A",CRAYON,RATE,Study1,U,79,37,JOL,User,-,"How likely are you to correctly recall the second item in the pair?|Type your response on a scale from 0-100 and then press Enter.",Study/JOL,"Study Phase",1723,,,1126,1126,,,,0,1
w10042357_SGH,qujwut8dy8,Trevor_EX2,1,43,2020-10-10T15:00:08-07:00,3.3622839450836,3,Pure_Unrelated.csv,Control_VersionA.csv,"Control A","Control A",DEGREE,CHAIR,Study1,U,71,29,JOL,User,-,"How likely are you to correctly recall the second item in the pair?|Type your response on a scale from 0-100 and then press Enter.",Study/JOL,"Study Phase",3094,,,2577,2577,,,,0,1
w10042357_SGH,qujwut8dy8,Trevor_EX2,1,44,2020-10-10T15:00:15-07:00,7.1187071800232,3,Pure_Unrelated.csv,Control_VersionA.csv,"Control A","Control A",TEMPERATURE,MORNING,Study1,U,23,35,JOL,User,-,"How likely are you to correctly recall the second item in the pair?|Type your response on a scale from 0-100 and then press Enter.",Study/JOL,"Study Phase",6836,,,4214,6003,,,,5,1
w10042357_SGH,qujwut8dy8,Trevor_EX2,1,45,2020-10-10T15:00:18-07:00,3.1497249603271,3,Pure_Unrelated.csv,Control_VersionA.csv,"Control A","Control A",ROSE,NEGLECT,Study1,U,82,24,JOL,User,-,"How likely are you to correctly recall the second item in the pair?|Type your response on a scale from 0-100 and then press Enter.",Study/JOL,"Study Phase",2852,,,2279,2279,,,,0,1
w10042357_SGH,qujwut8dy8,Trevor_EX2,1,46,2020-10-10T15:00:24-07:00,5.8569369316101,3,Pure_Unrelated.csv,Control_VersionA.csv,"Control A","Control A",CAKE,CLOTHES,Study1,U,16,27,JOL,User,-,"How likely are you to correctly recall the second item in the pair?|Type your response on a scale from 0-100 and then press Enter.",Study/JOL,"Study Phase",5531,,,4319,4838,,,,25,1
w10042357_SGH,qujwut8dy8,Trevor_EX2,1,47,2020-10-10T15:00:27-07:00,2.5397679805756,3,Pure_Unrelated.csv,Control_VersionA.csv,"Control A","Control A",INFLATE,DISGUST,Study1,U,76,31,JOL,User,-,"How likely are you to correctly recall the second item in the pair?|Type your response on a scale from 0-100 and then press Enter.",Study/JOL,"Study Phase",2190,,,1653,1653,,,,0,1
w10042357_SGH,qujwut8dy8,Trevor_EX2,1,48,2020-10-10T15:00:28-07:00,1.8976459503174,3,Pure_Unrelated.csv,Control_VersionA.csv,"Control A","Control A",FUZZY,BANG,Study1,U,18,10,JOL,User,-,"How likely are you to correctly recall the second item in the pair?|Type your response on a scale from 0-100 and then press Enter.",Study/JOL,"Study Phase",1558,,,1027,1027,,,,0,1
w10042357_SGH,qujwut8dy8,Trevor_EX2,1,49,2020-10-10T15:00:30-07:00,2.0006890296936,3,Pure_Unrelated.csv,Control_VersionA.csv,"Control A","Control A",RESIST,GLUE,Study1,U,69,7,JOL,User,-,"How likely are you to correctly recall the second item in the pair?|Type your response on a scale from 0-100 and then press Enter.",Study/JOL,"Study Phase",1639,,,1098,1098,,,,0,1
w10042357_SGH,qujwut8dy8,Trevor_EX2,1,50,2020-10-10T15:00:34-07:00,3.1249551773071,3,Pure_Unrelated.csv,Control_VersionA.csv,"Control A","Control A",MAIN,SCAR,Study1,U,25,43,JOL,User,-,"How likely are you to correctly recall the second item in the pair?|Type your response on a scale from 0-100 and then press Enter.",Study/JOL,"Study Phase",1842,,,1283,1283,,,,0,1
w10042357_SGH,qujwut8dy8,Trevor_EX2,1,51,2020-10-10T15:00:39-07:00,5.551834821701,3,Pure_Unrelated.csv,Control_VersionA.csv,"Control A","Control A",MALT,CHOCOLATE,BUFFER2,Buffer,88,51,JOL,User,-,"How likely are you to correctly recall the second item in the pair?|Type your response on a scale from 0-100 and then press Enter.",Study/JOL,BUFFER2,5150,,,4198,4395,,,,30,1
w10042357_SGH,qujwut8dy8,Trevor_EX2,1,52,2020-10-10T15:00:46-07:00,6.6372640132904,3,Pure_Unrelated.csv,Control_VersionA.csv,"Control A","Control A",MOON,SPACE,BUFFER2,Buffer,89,49,JOL,User,-,"How likely are you to correctly recall the second item in the pair?|Type your response on a scale from 0-100 and then press Enter.",Study/JOL,BUFFER2,6353,,,5513,5720,,,,40,1
w10042357_SGH,qujwut8dy8,Trevor_EX2,1,53,2020-10-10T15:00:48-07:00,2.3808341026306,3,Pure_Unrelated.csv,Control_VersionA.csv,"Control A","Control A",THING,STUFF,BUFFER2,Buffer,90,47,JOL,User,-,"How likely are you to correctly recall the second item in the pair?|Type your response on a scale from 0-100 and then press Enter.",Study/JOL,BUFFER2,2094,,,1604,1604,,,,0,1
w10042357_SGH,qujwut8dy8,Trevor_EX2,1,54,2020-10-10T15:00:53-07:00,4.6877160072327,3,Pure_Unrelated.csv,Control_VersionA.csv,"Control A","Control A",SHERRIF,POLICE,BUFFER2,Buffer,87,48,JOL,User,-,"How likely are you to correctly recall the second item in the pair?|Type your response on a scale from 0-100 and then press Enter.",Study/JOL,BUFFER2,4357,,,3316,3705,,,,100,1
w10042357_SGH,qujwut8dy8,Trevor_EX2,1,55,2020-10-10T15:00:57-07:00,4.1764159202576,3,Pure_Unrelated.csv,Control_VersionA.csv,"Control A","Control A",GEESE,GOOSE,BUFFER2,Buffer,86,50,JOL,User,-,"How likely are you to correctly recall the second item in the pair?|Type your response on a scale from 0-100 and then press Enter.",Study/JOL,BUFFER2,2842,,,1859,2239,,,,100,1
w10042357_SGH,qujwut8dy8,Trevor_EX2,1,56,2020-10-10T15:01:00-07:00,2.6553640365601,3,Pure_Unrelated.csv,Control_VersionA.csv,"Control A","Control A",,,,,,0,Instruct,User,-,"You have completed this section. Please press Enter.",Filler_Instruction,Instruct2,2383,,,-1,-1,,,,,1
w10042357_SGH,qujwut8dy8,Trevor_EX2,1,57,2020-10-10T15:03:00-07:00,120.29824900627,3,Pure_Unrelated.csv,Control_VersionA.csv,"Control A","Control A",,,,,,0,FreeRecall,120,120,"Please list the 50 US states in alphabetical order. The task will automatically advance to the next screen after two minutes.",,Filler1,120005,"alabama Arkansas coneticut california florida Illinois indiana kansas kentucky Louisiana massachusettes Mississippi North Dakota Oregon Pennsylvania ",0,7870,114702,0,0,,,1
w10042357_SGH,qujwut8dy8,Trevor_EX2,1,58,2020-10-10T15:03:12-07:00,11.564904928207,3,Pure_Unrelated.csv,Control_VersionA.csv,"Control A","Control A",,,,,,0,Instruct,-,10,"You will now be presented with the first word from each of the previously studied item pairs. Please type the missing word. If you do not know the word, you may guess or press Enter to skip forward to the next pair.",,Instruct3,11282,,,-1,-1,,,,,1
w10042357_SGH,qujwut8dy8,Trevor_EX2,1,59,2020-10-10T15:03:18-07:00,6.3443021774292,3,Pure_Unrelated.csv,Control_VersionA.csv,"Control A","Control A",STRETCH,CLOTH,Study1,U,7,33,Test,User,-,,Recall,Recall1,5912,cloth,100,2158,3532,1,1,,,1
w10042357_SGH,qujwut8dy8,Trevor_EX2,1,60,2020-10-10T15:03:23-07:00,4.9670059680939,3,Pure_Unrelated.csv,Control_VersionA.csv,"Control A","Control A",RESIST,GLUE,Study1,U,69,7,Test,User,-,,Recall,Recall1,4656,glue,100,2839,3297,1,1,,,1
w10042357_SGH,qujwut8dy8,Trevor_EX2,1,61,2020-10-10T15:03:34-07:00,11.644158840179,3,Pure_Unrelated.csv,Control_VersionA.csv,"Control A","Control A",NAME,HATE,Study1,U,17,15,Test,User,-,,Recall,Recall1,11349,"don't know",14.285714285714,2906,10031,0,0,,,1
w10042357_SGH,qujwut8dy8,Trevor_EX2,1,62,2020-10-10T15:03:39-07:00,4.3777689933777,3,Pure_Unrelated.csv,Control_VersionA.csv,"Control A","Control A",BOTH,OUNCE,Study1,U,22,19,Test,User,-,,Recall,Recall1,4072,"don't know",26.666666666667,1836,2764,0,0,,,1
w10042357_SGH,qujwut8dy8,Trevor_EX2,1,63,2020-10-10T15:03:44-07:00,4.684415102005,3,Pure_Unrelated.csv,Control_VersionA.csv,"Control A","Control A",NUMBER,HARD,Study1,U,78,22,Test,User,-,,Recall,Recall1,4387,dontknow,16.666666666667,1667,3301,0,0,,,1
w10042357_SGH,qujwut8dy8,Trevor_EX2,1,64,2020-10-10T15:03:49-07:00,5.220673084259,3,Pure_Unrelated.csv,Control_VersionA.csv,"Control A","Control A",JUSTICE,MAROON,Study1,U,6,28,Test,User,-,,Recall,Recall1,4937,peace,18.181818181818,1708,3800,0,0,,,1
w10042357_SGH,qujwut8dy8,Trevor_EX2,1,65,2020-10-10T15:03:55-07:00,6.1788148880005,3,Pure_Unrelated.csv,Control_VersionA.csv,"Control A","Control A",LEASE,TOIL,Study1,U,20,9,Test,User,-,,Recall,Recall1,5868,"don know",16.666666666667,1742,4893,0,0,,,1
w10042357_SGH,qujwut8dy8,Trevor_EX2,1,66,2020-10-10T15:03:58-07:00,3.1903619766235,3,Pure_Unrelated.csv,Control_VersionA.csv,"Control A","Control A",MAZE,ELECTION,Study1,U,9,16,Test,User,-,,Recall,Recall1,2898,corn,50,1734,2192,0,0,,,1
w10042357_SGH,qujwut8dy8,Trevor_EX2,1,67,2020-10-10T15:04:03-07:00,5.2123589515686,3,Pure_Unrelated.csv,Control_VersionA.csv,"Control A","Control A",KEYS,JOKE,Study1,U,15,20,Test,User,-,,Recall,Recall1,4903,"don't know",28.571428571429,3166,4409,0,0,,,1
w10042357_SGH,qujwut8dy8,Trevor_EX2,1,68,2020-10-10T15:04:16-07:00,12.196263074875,3,Pure_Unrelated.csv,Control_VersionA.csv,"Control A","Control A",ROSE,NEGLECT,Study1,U,82,24,Test,User,-,,Recall,Recall1,11857,rough,16.666666666667,10627,11152,0,0,,,1
w10042357_SGH,qujwut8dy8,Trevor_EX2,1,69,2020-10-10T15:04:19-07:00,3.5488429069519,3,Pure_Unrelated.csv,Control_VersionA.csv,"Control A","Control A",THICK,CONTEST,Study1,U,73,25,Test,User,-,,Recall,Recall1,3255,"don't now",37.5,1722,2700,0,0,,,1
w10042357_SGH,qujwut8dy8,Trevor_EX2,1,70,2020-10-10T15:04:24-07:00,5.2436292171478,3,Pure_Unrelated.csv,Control_VersionA.csv,"Control A","Control A",PET,MOON,Study1,U,74,17,Test,User,-,,Recall,Recall1,4958,"don't know",28.571428571429,3418,4531,0,0,,,1
w10042357_SGH,qujwut8dy8,Trevor_EX2,1,71,2020-10-10T15:04:28-07:00,3.7340528964996,3,Pure_Unrelated.csv,Control_VersionA.csv,"Control A","Control A",MEAT,OBTAIN,Study1,U,11,8,Test,User,-,,Recall,Recall1,3423,"don't know",25,1777,2925,0,0,,,1
w10042357_SGH,qujwut8dy8,Trevor_EX2,1,72,2020-10-10T15:04:32-07:00,3.6088769435883,3,Pure_Unrelated.csv,Control_VersionA.csv,"Control A","Control A",BROAD,INFECT,Study1,U,75,34,Test,User,-,,Recall,Recall1,3301,"don't know",25,1831,2874,0,0,,,1
w10042357_SGH,qujwut8dy8,Trevor_EX2,1,73,2020-10-10T15:04:35-07:00,3.5101699829102,3,Pure_Unrelated.csv,Control_VersionA.csv,"Control A","Control A",DIZZY,SWEATER,Study1,U,77,32,Test,User,-,,Recall,Recall1,3222,cat,40,2060,2484,0,0,,,1
w10042357_SGH,qujwut8dy8,Trevor_EX2,1,74,2020-10-10T15:04:40-07:00,4.8877129554749,3,Pure_Unrelated.csv,Control_VersionA.csv,"Control A","Control A",LISTEN,FICTION,Study1,U,14,11,Test,User,-,,Recall,Recall1,4576,"don't know",23.529411764706,2740,4106,0,0,,,1
w10042357_SGH,qujwut8dy8,Trevor_EX2,1,75,2020-10-10T15:04:43-07:00,3.3519880771637,3,Pure_Unrelated.csv,Control_VersionA.csv,"Control A","Control A",BAT,SHAKY,Study1,U,66,13,Test,User,-,,Recall,Recall1,3058,shaky,100,1547,2210,1,1,,,1
w10042357_SGH,qujwut8dy8,Trevor_EX2,1,76,2020-10-10T15:04:47-07:00,3.482677936554,3,Pure_Unrelated.csv,Control_VersionA.csv,"Control A","Control A",MAIN,SCAR,Study1,U,25,43,Test,User,-,,Recall,Recall1,3186,"don't know",0,1405,2670,0,0,,,1
w10042357_SGH,qujwut8dy8,Trevor_EX2,1,77,2020-10-10T15:04:52-07:00,4.6270911693573,3,Pure_Unrelated.csv,Control_VersionA.csv,"Control A","Control A",CRAYON,RATE,Study1,U,79,37,Test,User,-,,Recall,Recall1,4334,rate,100,3228,3662,1,1,,,1
w10042357_SGH,qujwut8dy8,Trevor_EX2,1,78,2020-10-10T15:04:55-07:00,3.0959470272064,3,Pure_Unrelated.csv,Control_VersionA.csv,"Control A","Control A",DEGREE,CHAIR,Study1,U,71,29,Test,User,-,,Recall,Recall1,2810,"don't know",0,1445,2428,0,0,,,1
w10042357_SGH,qujwut8dy8,Trevor_EX2,1,79,2020-10-10T15:04:58-07:00,2.9885787963867,3,Pure_Unrelated.csv,Control_VersionA.csv,"Control A","Control A",GRIND,STAND,Study1,U,85,39,Test,User,-,,Recall,Recall1,2691,"don't know",13.333333333333,1388,2329,0,0,,,1
w10042357_SGH,qujwut8dy8,Trevor_EX2,1,80,2020-10-10T15:05:01-07:00,3.0640861988068,3,Pure_Unrelated.csv,Control_VersionA.csv,"Control A","Control A",STRESS,YAM,Study1,U,68,40,Test,User,-,,Recall,Recall1,2768,"sont know",0,1414,2303,0,0,,,1
w10042357_SGH,qujwut8dy8,Trevor_EX2,1,81,2020-10-10T15:05:04-07:00,3.4280049800873,3,Pure_Unrelated.csv,Control_VersionA.csv,"Control A","Control A",MIRROR,CHILDREN,Study1,U,24,44,Test,User,-,,Recall,Recall1,3128,children,100,1534,2658,1,1,,,1
w10042357_SGH,qujwut8dy8,Trevor_EX2,1,82,2020-10-10T15:05:07-07:00,2.9602420330048,3,Pure_Unrelated.csv,Control_VersionA.csv,"Control A","Control A",VEHICLE,CHARM,Study1,U,10,42,Test,User,-,,Recall,Recall1,2667,keys,0,1281,1701,0,0,,,1
w10042357_SGH,qujwut8dy8,Trevor_EX2,1,83,2020-10-10T15:05:12-07:00,5.195191860199,3,Pure_Unrelated.csv,Control_VersionA.csv,"Control A","Control A",CAKE,CLOTHES,Study1,U,16,27,Test,User,-,,Recall,Recall1,4893,clothes,100,2892,4258,1,1,,,1
w10042357_SGH,qujwut8dy8,Trevor_EX2,1,84,2020-10-10T15:05:16-07:00,3.3534970283508,3,Pure_Unrelated.csv,Control_VersionA.csv,"Control A","Control A",TEMPERATURE,MORNING,Study1,U,23,35,Test,User,-,,Recall,Recall1,3067,"don't know",35.294117647059,1697,2691,0,0,,,1
w10042357_SGH,qujwut8dy8,Trevor_EX2,1,85,2020-10-10T15:05:21-07:00,5.852499961853,3,Pure_Unrelated.csv,Control_VersionA.csv,"Control A","Control A",PARCEL,THROAT,Study1,U,67,46,Test,User,-,,Recall,Recall1,5567,mouth,36.363636363636,4076,4788,0,0,,,1
w10042357_SGH,qujwut8dy8,Trevor_EX2,1,86,2020-10-10T15:05:25-07:00,3.9334750175476,3,Pure_Unrelated.csv,Control_VersionA.csv,"Control A","Control A",INFLATE,DISGUST,Study1,U,76,31,Test,User,-,,Recall,Recall1,2641,"don't know",23.529411764706,1255,2324,0,0,,,1
w10042357_SGH,qujwut8dy8,Trevor_EX2,1,87,2020-10-10T15:05:29-07:00,3.5594921112061,3,Pure_Unrelated.csv,Control_VersionA.csv,"Control A","Control A",WARN,SEA,Study1,U,80,26,Test,User,-,,Recall,Recall1,3231,"don't know",0,1971,2885,0,0,,,1
w10042357_SGH,qujwut8dy8,Trevor_EX2,1,88,2020-10-10T15:05:35-07:00,6.1084008216858,3,Pure_Unrelated.csv,Control_VersionA.csv,"Control A","Control A",LOAN,SIGN,Study1,U,21,41,Test,User,-,,Recall,Recall1,5831,"sign ",100,1707,5171,1,1,,,1
w10042357_SGH,qujwut8dy8,Trevor_EX2,1,89,2020-10-10T15:05:38-07:00,2.8021740913391,3,Pure_Unrelated.csv,Control_VersionA.csv,"Control A","Control A",MOAT,CLEAR,Study1,U,19,12,Test,User,-,,Recall,Recall1,2503,clear,100,1707,2206,1,1,,,1
w10042357_SGH,qujwut8dy8,Trevor_EX2,1,90,2020-10-10T15:05:42-07:00,3.9037129878998,3,Pure_Unrelated.csv,Control_VersionA.csv,"Control A","Control A",FUZZY,BANG,Study1,U,18,10,Test,User,-,,Recall,Recall1,3601,socks,0,2628,3285,0,0,,,1
w10042357_SGH,qujwut8dy8,Trevor_EX2,1,91,2020-10-10T15:05:44-07:00,2.7188940048218,3,Pure_Unrelated.csv,Control_VersionA.csv,"Control A","Control A",CRACKLE,ABLE,Study1,U,12,14,Test,User,-,,Recall,Recall1,2425,able,100,1450,1845,1,1,,,1
w10042357_SGH,qujwut8dy8,Trevor_EX2,1,92,2020-10-10T15:05:48-07:00,3.1685009002686,3,Pure_Unrelated.csv,Control_VersionA.csv,"Control A","Control A",DIFFICULT,POOR,Study1,U,81,30,Test,User,-,,Recall,Recall1,2875,"don't know",28.571428571429,1369,2554,0,0,,,1
w10042357_SGH,qujwut8dy8,Trevor_EX2,1,93,2020-10-10T15:05:51-07:00,3.2547500133514,3,Pure_Unrelated.csv,Control_VersionA.csv,"Control A","Control A",RIPE,VERIFY,Study1,U,83,23,Test,User,-,,Recall,Recall1,2940,"don't know",0,1690,2665,0,0,,,1
w10042357_SGH,qujwut8dy8,Trevor_EX2,1,94,2020-10-10T15:05:56-07:00,4.9932100772858,3,Pure_Unrelated.csv,Control_VersionA.csv,"Control A","Control A",DONKEY,LUSH,Study1,U,84,18,Test,User,-,,Recall,Recall1,4703,"don't know",0,1863,3389,0,0,,,1
w10042357_SGH,qujwut8dy8,Trevor_EX2,1,95,2020-10-10T15:06:02-07:00,6.5718150138855,3,Pure_Unrelated.csv,Control_VersionA.csv,"Control A","Control A",TAX,OWL,Study1,U,72,45,Test,User,-,,Recall,Recall1,6272,"don't know",30.769230769231,4476,5816,0,0,,,1
w10042357_SGH,qujwut8dy8,Trevor_EX2,1,96,2020-10-10T15:06:05-07:00,2.8439838886261,3,Pure_Unrelated.csv,Control_VersionA.csv,"Control A","Control A",GIVE,STEAK,Study1,U,8,36,Test,User,-,,Recall,Recall1,2524,"don't know",26.666666666667,1272,2199,0,0,,,1
w10042357_SGH,qujwut8dy8,Trevor_EX2,1,97,2020-10-10T15:06:08-07:00,2.5759611129761,3,Pure_Unrelated.csv,Control_VersionA.csv,"Control A","Control A",SHELL,SHAKE,Study1,U,13,21,Test,User,-,,Recall,Recall1,2293,shock,60,1304,1801,0,0,,,1
w10042357_SGH,qujwut8dy8,Trevor_EX2,1,98,2020-10-10T15:06:11-07:00,3.5454559326172,3,Pure_Unrelated.csv,Control_VersionA.csv,"Control A","Control A",FUTURE,SINCERE,Study1,U,70,38,Test,User,-,,Recall,Recall1,3264,"don't know",11.764705882353,1910,2943,0,0,,,1
w10042357_SGH,qujwut8dy8,Trevor_EX2,1,99,2020-10-10T15:06:23-07:00,11.232625007629,3,Pure_Unrelated.csv,Control_VersionA.csv,"Control A","Control A",,,,,,0,Instruct,-,10,"You will now be presented with a new set of word pairs. Please study each pair. Remember that your memory will be tested! When finished, press Enter to move to the next pair.",Initial_Instruct,Instruct4,10956,,,-1,-1,,,,,1
w10042357_SGH,qujwut8dy8,Trevor_EX2,1,100,2020-10-10T15:06:35-07:00,12.573773145676,3,Pure_Unrelated.csv,Control_VersionA.csv,"Control A","Control A",,,,,,0,Instruct,,10,"You will again be asked to rate your ability to remember these items using a 0 to 100 scale. Remember to use the full range of the scale!",,Instruct10,12288,,,-1,-1,,,,,1
w10042357_SGH,qujwut8dy8,Trevor_EX2,1,101,2020-10-10T15:06:38-07:00,2.3306729793549,3,Pure_Unrelated.csv,Control_VersionA.csv,"Control A","Control A",,,,,,0,Instruct,User,-,"Press Enter when you are readty to begin",,Instruct11,2067,,,-1,-1,,,,,1
w10042357_SGH,qujwut8dy8,Trevor_EX2,1,102,2020-10-10T15:06:42-07:00,4.7382559776306,3,Pure_Unrelated.csv,Control_VersionA.csv,"Control A","Control A",SHRIMP,FISH,BUFFER3,Buffer,93,54,JOL,User,-,"How likely are you to correctly recall the second item in the pair?|Type your response on a scale from 0-100 and then press Enter.",Study/JOL,BUFFER3,4446,,,3586,3741,,,,90,1
w10042357_SGH,qujwut8dy8,Trevor_EX2,1,103,2020-10-10T15:06:47-07:00,4.8030478954315,3,Pure_Unrelated.csv,Control_VersionA.csv,"Control A","Control A",NOODLE,STRING,BUFFER3,Buffer,92,55,JOL,User,-,"How likely are you to correctly recall the second item in the pair?|Type your response on a scale from 0-100 and then press Enter.",Study/JOL,BUFFER3,4509,,,3453,4027,,,,70,1
w10042357_SGH,qujwut8dy8,Trevor_EX2,1,104,2020-10-10T15:06:51-07:00,3.8036041259766,3,Pure_Unrelated.csv,Control_VersionA.csv,"Control A","Control A",CAMP,ADVENTURE,BUFFER3,Buffer,95,56,JOL,User,-,"How likely are you to correctly recall the second item in the pair?|Type your response on a scale from 0-100 and then press Enter.",Study/JOL,BUFFER3,3499,,,2787,2888,,,,20,1
w10042357_SGH,qujwut8dy8,Trevor_EX2,1,105,2020-10-10T15:06:55-07:00,3.7836680412292,3,Pure_Unrelated.csv,Control_VersionA.csv,"Control A","Control A",CARROT,POTATO,BUFFER3,Buffer,91,53,JOL,User,-,"How likely are you to correctly recall the second item in the pair?|Type your response on a scale from 0-100 and then press Enter.",Study/JOL,BUFFER3,3490,,,2618,2717,,,,50,1
w10042357_SGH,qujwut8dy8,Trevor_EX2,1,106,2020-10-10T15:06:58-07:00,3.7872729301453,3,Pure_Unrelated.csv,Control_VersionA.csv,"Control A","Control A",ICE,FROZEN,BUFFER3,Buffer,94,52,JOL,User,-,"How likely are you to correctly recall the second item in the pair?|Type your response on a scale from 0-100 and then press Enter.",Study/JOL,BUFFER3,3492,,,2516,2904,,,,100,1
w10042357_SGH,qujwut8dy8,Trevor_EX2,1,107,2020-10-10T15:07:02-07:00,3.6760540008545,3,Pure_Unrelated.csv,Control_VersionA.csv,"Control A","Control A",PUFF,NUMBER,Study2,U,171,82,JOL,User,-,"How likely are you to correctly recall the second item in the pair?|Type your response on a scale from 0-100 and then press Enter.",Study/JOL,"Study Phase2",3345,,,2511,2753,,,,10,1
w10042357_SGH,qujwut8dy8,Trevor_EX2,1,108,2020-10-10T15:07:05-07:00,2.8252780437469,3,Pure_Unrelated.csv,Control_VersionA.csv,"Control A","Control A",MUTE,WAVE,Study2,U,173,60,JOL,User,-,"How likely are you to correctly recall the second item in the pair?|Type your response on a scale from 0-100 and then press Enter.",Study/JOL,"Study Phase2",2525,,,2047,2047,,,,0,1
w10042357_SGH,qujwut8dy8,Trevor_EX2,1,109,2020-10-10T15:07:07-07:00,2.2072229385376,3,Pure_Unrelated.csv,Control_VersionA.csv,"Control A","Control A",ROAD,SCENT,Study2,U,166,70,JOL,User,-,"How likely are you to correctly recall the second item in the pair?|Type your response on a scale from 0-100 and then press Enter.",Study/JOL,"Study Phase2",1913,,,1437,1437,,,,0,1
w10042357_SGH,qujwut8dy8,Trevor_EX2,1,110,2020-10-10T15:07:12-07:00,4.4668600559235,3,Pure_Unrelated.csv,Control_VersionA.csv,"Control A","Control A",WASTE,SEDATE,Study2,U,165,96,JOL,User,-,"How likely are you to correctly recall the second item in the pair?|Type your response on a scale from 0-100 and then press Enter.",Study/JOL,"Study Phase2",4157,,,1749,3866,,,,15,1
w10042357_SGH,qujwut8dy8,Trevor_EX2,1,111,2020-10-10T15:07:16-07:00,4.4569978713989,3,Pure_Unrelated.csv,Control_VersionA.csv,"Control A","Control A",HUNGRY,PARK,Study2,U,98,64,JOL,User,-,"How likely are you to correctly recall the second item in the pair?|Type your response on a scale from 0-100 and then press Enter.",Study/JOL,"Study Phase2",4160,,,3618,3619,,,,0,1
w10042357_SGH,qujwut8dy8,Trevor_EX2,1,112,2020-10-10T15:07:19-07:00,3.293792963028,3,Pure_Unrelated.csv,Control_VersionA.csv,"Control A","Control A",SWING,FOG,Study2,U,175,94,JOL,User,-,"How likely are you to correctly recall the second item in the pair?|Type your response on a scale from 0-100 and then press Enter.",Study/JOL,"Study Phase2",3011,,,2528,2528,,,,0,1
w10042357_SGH,qujwut8dy8,Trevor_EX2,1,113,2020-10-10T15:07:22-07:00,3.0691540241241,3,Pure_Unrelated.csv,Control_VersionA.csv,"Control A","Control A",ADD,VALLEY,Study2,U,112,93,JOL,User,-,"How likely are you to correctly recall the second item in the pair?|Type your response on a scale from 0-100 and then press Enter.",Study/JOL,"Study Phase2",2782,,,2563,2563,,,,0,1
w10042357_SGH,qujwut8dy8,Trevor_EX2,1,114,2020-10-10T15:07:24-07:00,1.5325450897217,3,Pure_Unrelated.csv,Control_VersionA.csv,"Control A","Control A",BELT,SOON,Study2,U,100,90,JOL,User,-,"How likely are you to correctly recall the second item in the pair?|Type your response on a scale from 0-100 and then press Enter.",Study/JOL,"Study Phase2",1250,,,1012,1012,,,,0,1
w10042357_SGH,qujwut8dy8,Trevor_EX2,1,115,2020-10-10T15:07:26-07:00,2.0914418697357,3,Pure_Unrelated.csv,Control_VersionA.csv,"Control A","Control A",GUARD,WHEEL,Study2,U,170,71,JOL,User,-,"How likely are you to correctly recall the second item in the pair?|Type your response on a scale from 0-100 and then press Enter.",Study/JOL,"Study Phase2",1808,,,1541,1541,,,,0,1
w10042357_SGH,qujwut8dy8,Trevor_EX2,1,116,2020-10-10T15:07:29-07:00,2.6816470623016,3,Pure_Unrelated.csv,Control_VersionA.csv,"Control A","Control A",CAR,HAPPY,Study2,U,107,61,JOL,User,-,"How likely are you to correctly recall the second item in the pair?|Type your response on a scale from 0-100 and then press Enter.",Study/JOL,"Study Phase2",2406,,,1691,2148,,,,30,1
w10042357_SGH,qujwut8dy8,Trevor_EX2,1,117,2020-10-10T15:07:31-07:00,2.1831841468811,3,Pure_Unrelated.csv,Control_VersionA.csv,"Control A","Control A",FLOOR,DISCOVER,Study2,U,101,57,JOL,User,-,"How likely are you to correctly recall the second item in the pair?|Type your response on a scale from 0-100 and then press Enter.",Study/JOL,"Study Phase2",1872,,,1493,1493,,,,0,1
w10042357_SGH,qujwut8dy8,Trevor_EX2,1,118,2020-10-10T15:07:35-07:00,3.7414619922638,3,Pure_Unrelated.csv,Control_VersionA.csv,"Control A","Control A",SLIM,KNOW,Study2,U,164,59,JOL,User,-,"How likely are you to correctly recall the second item in the pair?|Type your response on a scale from 0-100 and then press Enter.",Study/JOL,"Study Phase2",3453,,,2898,3171,,,,60,1
w10042357_SGH,qujwut8dy8,Trevor_EX2,1,119,2020-10-10T15:07:39-07:00,4.104395866394,3,Pure_Unrelated.csv,Control_VersionA.csv,"Control A","Control A",Business,Death,Study2,U,102,63,JOL,User,-,"How likely are you to correctly recall the second item in the pair?|Type your response on a scale from 0-100 and then press Enter.",Study/JOL,"Study Phase2",3794,,,2856,3015,,,,10,1
w10042357_SGH,qujwut8dy8,Trevor_EX2,1,120,2020-10-10T15:07:41-07:00,2.1531779766083,3,Pure_Unrelated.csv,Control_VersionA.csv,"Control A","Control A",SMOOTH,OMIT,Study2,U,157,75,JOL,User,-,"How likely are you to correctly recall the second item in the pair?|Type your response on a scale from 0-100 and then press Enter.",Study/JOL,"Study Phase2",1860,,,1348,1349,,,,0,1
w10042357_SGH,qujwut8dy8,Trevor_EX2,1,121,2020-10-10T15:07:43-07:00,1.9356091022491,3,Pure_Unrelated.csv,Control_VersionA.csv,"Control A","Control A",WOMAN,LIFT,Study2,U,99,67,JOL,User,-,"How likely are you to correctly recall the second item in the pair?|Type your response on a scale from 0-100 and then press Enter.",Study/JOL,"Study Phase2",1637,,,1112,1112,,,,0,1
w10042357_SGH,qujwut8dy8,Trevor_EX2,1,122,2020-10-10T15:07:48-07:00,4.7141020298004,3,Pure_Unrelated.csv,Control_VersionA.csv,"Control A","Control A",STOMACH,TOWN,Study2,U,159,69,JOL,User,-,"How likely are you to correctly recall the second item in the pair?|Type your response on a scale from 0-100 and then press Enter.",Study/JOL,"Study Phase2",4393,,,3127,3290,,,,30,1
w10042357_SGH,qujwut8dy8,Trevor_EX2,1,123,2020-10-10T15:07:50-07:00,2.0566439628601,3,Pure_Unrelated.csv,Control_VersionA.csv,"Control A","Control A",WOULD,CASH,Study2,U,113,95,JOL,User,-,"How likely are you to correctly recall the second item in the pair?|Type your response on a scale from 0-100 and then press Enter.",Study/JOL,"Study Phase2",1770,,,1285,1285,,,,0,1
w10042357_SGH,qujwut8dy8,Trevor_EX2,1,124,2020-10-10T15:07:52-07:00,1.8319389820099,3,Pure_Unrelated.csv,Control_VersionA.csv,"Control A","Control A",ACCIDENT,STRONG,Study2,U,110,65,JOL,User,-,"How likely are you to correctly recall the second item in the pair?|Type your response on a scale from 0-100 and then press Enter.",Study/JOL,"Study Phase2",1555,,,1110,1110,,,,0,1
w10042357_SGH,qujwut8dy8,Trevor_EX2,1,125,2020-10-10T15:07:53-07:00,1.8152770996094,3,Pure_Unrelated.csv,Control_VersionA.csv,"Control A","Control A",TUCK,ALLOW,Study2,U,108,72,JOL,User,-,"How likely are you to correctly recall the second item in the pair?|Type your response on a scale from 0-100 and then press Enter.",Study/JOL,"Study Phase2",1525,,,1079,1079,,,,0,1
w10042357_SGH,qujwut8dy8,Trevor_EX2,1,126,2020-10-10T15:07:55-07:00,2.1079258918762,3,Pure_Unrelated.csv,Control_VersionA.csv,"Control A","Control A",SACKING,DIETARY,Study2,U,97,79,JOL,User,-,"How likely are you to correctly recall the second item in the pair?|Type your response on a scale from 0-100 and then press Enter.",Study/JOL,"Study Phase2",1797,,,1291,1291,,,,0,1
w10042357_SGH,qujwut8dy8,Trevor_EX2,1,127,2020-10-10T15:08:02-07:00,6.4864819049835,3,Pure_Unrelated.csv,Control_VersionA.csv,"Control A","Control A",DETECT,FREE,Study2,U,162,68,JOL,User,-,"How likely are you to correctly recall the second item in the pair?|Type your response on a scale from 0-100 and then press Enter.",Study/JOL,"Study Phase2",6210,,,5732,5732,,,,0,1
w10042357_SGH,qujwut8dy8,Trevor_EX2,1,128,2020-10-10T15:08:07-07:00,5.491425037384,3,Pure_Unrelated.csv,Control_VersionA.csv,"Control A","Control A",JELLY,NAUGHTY,Study2,U,172,66,JOL,User,-,"How likely are you to correctly recall the second item in the pair?|Type your response on a scale from 0-100 and then press Enter.",Study/JOL,"Study Phase2",5197,,,1582,4644,,,,30,1
w10042357_SGH,qujwut8dy8,Trevor_EX2,1,129,2020-10-10T15:08:10-07:00,2.1020510196686,3,Pure_Unrelated.csv,Control_VersionA.csv,"Control A","Control A",READY,CORN,Study2,U,158,87,JOL,User,-,"How likely are you to correctly recall the second item in the pair?|Type your response on a scale from 0-100 and then press Enter.",Study/JOL,"Study Phase2",1804,,,1312,1312,,,,0,1
w10042357_SGH,qujwut8dy8,Trevor_EX2,1,130,2020-10-10T15:08:11-07:00,1.9312889575958,3,Pure_Unrelated.csv,Control_VersionA.csv,"Control A","Control A",FLOAT,HARMONY,Study2,U,161,88,JOL,User,-,"How likely are you to correctly recall the second item in the pair?|Type your response on a scale from 0-100 and then press Enter.",Study/JOL,"Study Phase2",1646,,,1158,1158,,,,0,1
w10042357_SGH,qujwut8dy8,Trevor_EX2,1,131,2020-10-10T15:08:16-07:00,4.3186960220337,3,Pure_Unrelated.csv,Control_VersionA.csv,"Control A","Control A",VASE,KING,Study2,U,115,85,JOL,User,-,"How likely are you to correctly recall the second item in the pair?|Type your response on a scale from 0-100 and then press Enter.",Study/JOL,"Study Phase2",4018,,,3118,3256,,,,20,1
w10042357_SGH,qujwut8dy8,Trevor_EX2,1,132,2020-10-10T15:08:21-07:00,5.2584280967712,3,Pure_Unrelated.csv,Control_VersionA.csv,"Control A","Control A",DESIRE,NOISE,Study2,U,169,86,JOL,User,-,"How likely are you to correctly recall the second item in the pair?|Type your response on a scale from 0-100 and then press Enter.",Study/JOL,"Study Phase2",4934,,,4260,4352,,,,10,1
w10042357_SGH,qujwut8dy8,Trevor_EX2,1,133,2020-10-10T15:08:25-07:00,3.6660628318787,3,Pure_Unrelated.csv,Control_VersionA.csv,"Control A","Control A",SPELL,BONE,Study2,U,174,92,JOL,User,-,"How likely are you to correctly recall the second item in the pair?|Type your response on a scale from 0-100 and then press Enter.",Study/JOL,"Study Phase2",3366,,,2545,2659,,,,50,1
w10042357_SGH,qujwut8dy8,Trevor_EX2,1,134,2020-10-10T15:08:30-07:00,5.31618309021,3,Pure_Unrelated.csv,Control_VersionA.csv,"Control A","Control A",SLIM,KNOW,Study2,U,164,59,JOL,User,-,"How likely are you to correctly recall the second item in the pair?|Type your response on a scale from 0-100 and then press Enter.",Study/JOL,"Study Phase2",4996,,,4185,4366,,,,90,1
w10042357_SGH,qujwut8dy8,Trevor_EX2,1,135,2020-10-10T15:08:32-07:00,2.1063950061798,3,Pure_Unrelated.csv,Control_VersionA.csv,"Control A","Control A",CLUTTER,PUSHER,Study2,U,96,62,JOL,User,-,"How likely are you to correctly recall the second item in the pair?|Type your response on a scale from 0-100 and then press Enter.",Study/JOL,"Study Phase2",1808,,,1324,1324,,,,0,1
w10042357_SGH,qujwut8dy8,Trevor_EX2,1,136,2020-10-10T15:08:34-07:00,2.265949010849,3,Pure_Unrelated.csv,Control_VersionA.csv,"Control A","Control A",NULL,COUGH,Study2,U,156,89,JOL,User,-,"How likely are you to correctly recall the second item in the pair?|Type your response on a scale from 0-100 and then press Enter.",Study/JOL,"Study Phase2",1959,,,1458,1458,,,,0,1
w10042357_SGH,qujwut8dy8,Trevor_EX2,1,137,2020-10-10T15:08:40-07:00,5.2431590557098,3,Pure_Unrelated.csv,Control_VersionA.csv,"Control A","Control A",SYSTEM,LICK,Study2,U,167,83,JOL,User,-,"How likely are you to correctly recall the second item in the pair?|Type your response on a scale from 0-100 and then press Enter.",Study/JOL,"Study Phase2",3948,,,3061,3238,,,,20,1
w10042357_SGH,qujwut8dy8,Trevor_EX2,1,138,2020-10-10T15:08:42-07:00,2.6165089607239,3,Pure_Unrelated.csv,Control_VersionA.csv,"Control A","Control A",POSITION,MACHINE,Study2,U,106,74,JOL,User,-,"How likely are you to correctly recall the second item in the pair?|Type your response on a scale from 0-100 and then press Enter.",Study/JOL,"Study Phase2",2327,,,1506,1671,,,,10,1
w10042357_SGH,qujwut8dy8,Trevor_EX2,1,139,2020-10-10T15:08:45-07:00,3.0347149372101,3,Pure_Unrelated.csv,Control_VersionA.csv,"Control A","Control A",BRONZE,ARTERY,Study2,U,104,84,JOL,User,-,"How likely are you to correctly recall the second item in the pair?|Type your response on a scale from 0-100 and then press Enter.",Study/JOL,"Study Phase2",2712,,,1823,1993,,,,20,1
w10042357_SGH,qujwut8dy8,Trevor_EX2,1,140,2020-10-10T15:08:48-07:00,3.183030128479,3,Pure_Unrelated.csv,Control_VersionA.csv,"Control A","Control A",LAKE,OPINION,Study2,U,160,73,JOL,User,-,"How likely are you to correctly recall the second item in the pair?|Type your response on a scale from 0-100 and then press Enter.",Study/JOL,"Study Phase2",2886,,,2233,2406,,,,30,1
w10042357_SGH,qujwut8dy8,Trevor_EX2,1,141,2020-10-10T15:08:52-07:00,3.7929928302765,3,Pure_Unrelated.csv,Control_VersionA.csv,"Control A","Control A",SIGHT,DEBATE,Study2,U,103,77,JOL,User,-,"How likely are you to correctly recall the second item in the pair?|Type your response on a scale from 0-100 and then press Enter.",Study/JOL,"Study Phase2",3505,,,2723,2897,,,,50,1
w10042357_SGH,qujwut8dy8,Trevor_EX2,1,142,2020-10-10T15:08:57-07:00,4.3635001182556,3,Pure_Unrelated.csv,Control_VersionA.csv,"Control A","Control A",LION,ART,Study2,U,109,81,JOL,User,-,"How likely are you to correctly recall the second item in the pair?|Type your response on a scale from 0-100 and then press Enter.",Study/JOL,"Study Phase2",4086,,,2940,3352,,,,75,1
w10042357_SGH,qujwut8dy8,Trevor_EX2,1,143,2020-10-10T15:08:59-07:00,2.6157400608063,3,Pure_Unrelated.csv,Control_VersionA.csv,"Control A","Control A",ZOO,THUMB,Study2,U,168,91,JOL,User,-,"How likely are you to correctly recall the second item in the pair?|Type your response on a scale from 0-100 and then press Enter.",Study/JOL,"Study Phase2",2315,,,1587,1686,,,,10,1
w10042357_SGH,qujwut8dy8,Trevor_EX2,1,144,2020-10-10T15:09:01-07:00,2.180065870285,3,Pure_Unrelated.csv,Control_VersionA.csv,"Control A","Control A",PUT,ROLL,Study2,U,163,76,JOL,User,-,"How likely are you to correctly recall the second item in the pair?|Type your response on a scale from 0-100 and then press Enter.",Study/JOL,"Study Phase2",1903,,,1381,1382,,,,0,1
w10042357_SGH,qujwut8dy8,Trevor_EX2,1,145,2020-10-10T15:09:03-07:00,2.0543971061707,3,Pure_Unrelated.csv,Control_VersionA.csv,"Control A","Control A",SICK,HIDE,Study2,U,114,80,JOL,User,-,"How likely are you to correctly recall the second item in the pair?|Type your response on a scale from 0-100 and then press Enter.",Study/JOL,"Study Phase2",1772,,,1211,1211,,,,0,1
w10042357_SGH,qujwut8dy8,Trevor_EX2,1,146,2020-10-10T15:09:06-07:00,2.1666898727417,3,Pure_Unrelated.csv,Control_VersionA.csv,"Control A","Control A",HAND,FIX,Study2,U,105,78,JOL,User,-,"How likely are you to correctly recall the second item in the pair?|Type your response on a scale from 0-100 and then press Enter.",Study/JOL,"Study Phase2",1849,,,1302,1302,,,,0,1
w10042357_SGH,qujwut8dy8,Trevor_EX2,1,147,2020-10-10T15:09:09-07:00,3.034077167511,3,Pure_Unrelated.csv,Control_VersionA.csv,"Control A","Control A",TOOL,SHED,BUFFER4,Buffer,178,101,JOL,User,-,"How likely are you to correctly recall the second item in the pair?|Type your response on a scale from 0-100 and then press Enter.",Study/JOL,BUFFER4,2737,,,1843,2138,,,,100,1
w10042357_SGH,qujwut8dy8,Trevor_EX2,1,148,2020-10-10T15:09:11-07:00,2.4497618675232,3,Pure_Unrelated.csv,Control_VersionA.csv,"Control A","Control A",OCTOBER,SPOOKY,BUFFER4,Buffer,180,98,JOL,User,-,"How likely are you to correctly recall the second item in the pair?|Type your response on a scale from 0-100 and then press Enter.",Study/JOL,BUFFER4,2154,,,1266,1615,,,,100,1
w10042357_SGH,qujwut8dy8,Trevor_EX2,1,149,2020-10-10T15:09:14-07:00,2.8438711166382,3,Pure_Unrelated.csv,Control_VersionA.csv,"Control A","Control A",MONTH,YEAR,BUFFER4,Buffer,177,100,JOL,User,-,"How likely are you to correctly recall the second item in the pair?|Type your response on a scale from 0-100 and then press Enter.",Study/JOL,BUFFER4,2137,,,1183,1545,,,,100,1
w10042357_SGH,qujwut8dy8,Trevor_EX2,1,150,2020-10-10T15:09:16-07:00,2.350989818573,3,Pure_Unrelated.csv,Control_VersionA.csv,"Control A","Control A",DAYS,WEEKS,BUFFER4,Buffer,176,97,JOL,User,-,"How likely are you to correctly recall the second item in the pair?|Type your response on a scale from 0-100 and then press Enter.",Study/JOL,BUFFER4,2038,,,935,1421,,,,100,1
w10042357_SGH,qujwut8dy8,Trevor_EX2,1,151,2020-10-10T15:09:19-07:00,2.4593281745911,3,Pure_Unrelated.csv,Control_VersionA.csv,"Control A","Control A",SPRING,MARCH,BUFFER4,Buffer,179,99,JOL,User,-,"How likely are you to correctly recall the second item in the pair?|Type your response on a scale from 0-100 and then press Enter.",Study/JOL,BUFFER4,2161,,,1130,1499,,,,100,1
w10042357_SGH,qujwut8dy8,Trevor_EX2,1,152,2020-10-10T15:09:21-07:00,2.1400818824768,3,Pure_Unrelated.csv,Control_VersionA.csv,"Control A","Control A",,,,,,0,Instruct,User,-,"You have completed this section. Please press Enter.",Filler_Instruction,Instruct5,1831,,,-1,-1,,,,,1
w10042357_SGH,qujwut8dy8,Trevor_EX2,1,153,2020-10-10T15:11:21-07:00,120.24505496025,3,Pure_Unrelated.csv,Control_VersionA.csv,"Control A","Control A",,,,,,0,FreeRecall,120,120,"Please list the 50 US states in reverse alphabetical order (z - a). The task will automatically advance to the next screen after two minutes.",,Filler2,120003,"alabama Alaska california Delaware florida hawaii Indiana Illinois kansas kentucky Louisiana Massachusetts Mississippi North Carolina North Dakota Oregon Pennsylvania Rhode Island ",0,4747,105980,0,0,,,1
w10042357_SGH,qujwut8dy8,Trevor_EX2,1,154,2020-10-10T15:11:50-07:00,28.950728178024,3,Pure_Unrelated.csv,Control_VersionA.csv,"Control A","Control A",,,,,,0,Instruct,-,10,"You will now be presented with the first word from each of the previously studied item pairs. Please type the missing word. If you do not know the word, you may guess or press Enter to skip forward to the next pair.",,Instruct6,28651,,,-1,-1,,,,,1
w10042357_SGH,qujwut8dy8,Trevor_EX2,1,155,2020-10-10T15:11:56-07:00,5.766608953476,3,Pure_Unrelated.csv,Control_VersionA.csv,"Control A","Control A",SIGHT,DEBATE,Study2,U,103,77,Test,User,-,,Recall,Recall2,5432,see,44.444444444444,4666,5033,0,0,,,1
w10042357_SGH,qujwut8dy8,Trevor_EX2,1,156,2020-10-10T15:11:59-07:00,3.2461609840393,3,Pure_Unrelated.csv,Control_VersionA.csv,"Control A","Control A",BELT,SOON,Study2,U,100,90,Test,User,-,,Recall,Recall2,2941,rope,25,1988,2427,0,0,,,1
w10042357_SGH,qujwut8dy8,Trevor_EX2,1,157,2020-10-10T15:12:03-07:00,4.0061838626862,3,Pure_Unrelated.csv,Control_VersionA.csv,"Control A","Control A",FLOAT,HARMONY,Study2,U,161,88,Test,User,-,,Recall,Recall2,3710,coke,18.181818181818,2802,3326,0,0,,,1
w10042357_SGH,qujwut8dy8,Trevor_EX2,1,158,2020-10-10T15:12:07-07:00,3.7077581882477,3,Pure_Unrelated.csv,Control_VersionA.csv,"Control A","Control A",READY,CORN,Study2,U,158,87,Test,User,-,,Recall,Recall2,3392,freddy,20,1668,2764,0,0,,,1
w10042357_SGH,qujwut8dy8,Trevor_EX2,1,159,2020-10-10T15:12:10-07:00,3.6304669380188,3,Pure_Unrelated.csv,Control_VersionA.csv,"Control A","Control A",FLOOR,DISCOVER,Study2,U,101,57,Test,User,-,,Recall,Recall2,3356,"don't know",22.222222222222,2085,2960,0,0,,,1
w10042357_SGH,qujwut8dy8,Trevor_EX2,1,160,2020-10-10T15:12:14-07:00,3.5521838665009,3,Pure_Unrelated.csv,Control_VersionA.csv,"Control A","Control A",SWING,FOG,Study2,U,175,94,Test,User,-,,Recall,Recall2,3220,"don't know",15.384615384615,1979,2811,0,0,,,1
w10042357_SGH,qujwut8dy8,Trevor_EX2,1,161,2020-10-10T15:12:18-07:00,3.8384790420532,3,Pure_Unrelated.csv,Control_VersionA.csv,"Control A","Control A",ZOO,THUMB,Study2,U,168,91,Test,User,-,,Recall,Recall2,3548,"don't know",13.333333333333,2367,3213,0,0,,,1
w10042357_SGH,qujwut8dy8,Trevor_EX2,1,162,2020-10-10T15:12:27-07:00,9.4311530590057,3,Pure_Unrelated.csv,Control_VersionA.csv,"Control A","Control A",HAND,FIX,Study2,U,105,78,Test,User,-,,Recall,Recall2,9122,tool,0,7715,8511,0,0,,,1
w10042357_SGH,qujwut8dy8,Trevor_EX2,1,163,2020-10-10T15:12:31-07:00,3.3419189453125,3,Pure_Unrelated.csv,Control_VersionA.csv,"Control A","Control A",NULL,COUGH,Study2,U,156,89,Test,User,-,,Recall,Recall2,3006,void,22.222222222222,2090,2478,0,0,,,1
w10042357_SGH,qujwut8dy8,Trevor_EX2,1,164,2020-10-10T15:12:34-07:00,3.3090291023254,3,Pure_Unrelated.csv,Control_VersionA.csv,"Control A","Control A",MUTE,WAVE,Study2,U,173,60,Test,User,-,,Recall,Recall2,2986,"don't know",14.285714285714,1436,2437,0,0,,,1
w10042357_SGH,qujwut8dy8,Trevor_EX2,1,165,2020-10-10T15:12:39-07:00,5.1565089225769,3,Pure_Unrelated.csv,Control_VersionA.csv,"Control A","Control A",CLUTTER,PUSHER,Study2,U,96,62,Test,User,-,,Recall,Recall2,4859,pusher,100,3469,4245,1,1,,,1
w10042357_SGH,qujwut8dy8,Trevor_EX2,1,166,2020-10-10T15:12:42-07:00,3.1031830310822,3,Pure_Unrelated.csv,Control_VersionA.csv,"Control A","Control A",WOULD,CASH,Study2,U,113,95,Test,User,-,,Recall,Recall2,2811,"don't know",0,1350,2339,0,0,,,1
w10042357_SGH,qujwut8dy8,Trevor_EX2,1,167,2020-10-10T15:12:45-07:00,3.1968309879303,3,Pure_Unrelated.csv,Control_VersionA.csv,"Control A","Control A",SMOOTH,OMIT,Study2,U,157,75,Test,User,-,,Recall,Recall2,2862,sailing,18.181818181818,1389,2318,0,0,,,1
w10042357_SGH,qujwut8dy8,Trevor_EX2,1,168,2020-10-10T15:12:49-07:00,3.1288940906525,3,Pure_Unrelated.csv,Control_VersionA.csv,"Control A","Control A",SICK,HIDE,Study2,U,114,80,Test,User,-,,Recall,Recall2,2837,shake,44.444444444444,1846,2342,0,0,,,1
w10042357_SGH,qujwut8dy8,Trevor_EX2,1,169,2020-10-10T15:12:52-07:00,3.9442670345306,3,Pure_Unrelated.csv,Control_VersionA.csv,"Control A","Control A",STOMACH,TOWN,Study2,U,159,69,Test,User,-,,Recall,Recall2,3654,"don't know",42.857142857143,2278,3227,0,0,,,1
w10042357_SGH,qujwut8dy8,Trevor_EX2,1,170,2020-10-10T15:12:58-07:00,5.9049508571625,3,Pure_Unrelated.csv,Control_VersionA.csv,"Control A","Control A",SPELL,BONE,Study2,U,174,92,Test,User,-,,Recall,Recall2,5599,"don't know",28.571428571429,4171,5222,0,0,,,1
w10042357_SGH,qujwut8dy8,Trevor_EX2,1,171,2020-10-10T15:13:01-07:00,2.9980320930481,3,Pure_Unrelated.csv,Control_VersionA.csv,"Control A","Control A",PUFF,NUMBER,Study2,U,171,82,Test,User,-,,Recall,Recall2,2686,ball,20,1705,2113,0,0,,,1
w10042357_SGH,qujwut8dy8,Trevor_EX2,1,172,2020-10-10T15:13:05-07:00,3.5041809082031,3,Pure_Unrelated.csv,Control_VersionA.csv,"Control A","Control A",SLIM,KNOW,Study2,U,164,59,Test,User,-,,Recall,Recall2,3196,"don't know",57.142857142857,1869,2765,0,0,,,1
w10042357_SGH,qujwut8dy8,Trevor_EX2,1,173,2020-10-10T15:13:09-07:00,3.8275661468506,3,Pure_Unrelated.csv,Control_VersionA.csv,"Control A","Control A",LAKE,OPINION,Study2,U,160,73,Test,User,-,,Recall,Recall2,3531,"don't know",23.529411764706,2120,3068,0,0,,,1
w10042357_SGH,qujwut8dy8,Trevor_EX2,1,174,2020-10-10T15:13:11-07:00,2.7990388870239,3,Pure_Unrelated.csv,Control_VersionA.csv,"Control A","Control A",ACCIDENT,STRONG,Study2,U,110,65,Test,User,-,,Recall,Recall2,2502,prone,54.545454545455,1444,1944,0,0,,,1
w10042357_SGH,qujwut8dy8,Trevor_EX2,1,175,2020-10-10T15:13:15-07:00,3.148866891861,3,Pure_Unrelated.csv,Control_VersionA.csv,"Control A","Control A",GUARD,WHEEL,Study2,U,170,71,Test,User,-,,Recall,Recall2,2833,"don't know",13.333333333333,1409,2503,0,0,,,1
w10042357_SGH,qujwut8dy8,Trevor_EX2,1,176,2020-10-10T15:13:20-07:00,5.325670003891,3,Pure_Unrelated.csv,Control_VersionA.csv,"Control A","Control A",SLIM,KNOW,Study2,U,164,59,Test,User,-,,Recall,Recall2,5045,"don't know",57.142857142857,2780,3832,0,0,,,1
w10042357_SGH,qujwut8dy8,Trevor_EX2,1,177,2020-10-10T15:13:24-07:00,4.209438085556,3,Pure_Unrelated.csv,Control_VersionA.csv,"Control A","Control A",WOMAN,LIFT,Study2,U,99,67,Test,User,-,,Recall,Recall2,3924,strong,20,2363,3188,0,0,,,1
w10042357_SGH,qujwut8dy8,Trevor_EX2,1,178,2020-10-10T15:13:27-07:00,2.6986639499664,3,Pure_Unrelated.csv,Control_VersionA.csv,"Control A","Control A",BRONZE,ARTERY,Study2,U,104,84,Test,User,-,,Recall,Recall2,2418,art,66.666666666667,1325,1754,0,0,,,1
w10042357_SGH,qujwut8dy8,Trevor_EX2,1,179,2020-10-10T15:13:33-07:00,5.9055550098419,3,Pure_Unrelated.csv,Control_VersionA.csv,"Control A","Control A",POSITION,MACHINE,Study2,U,106,74,Test,User,-,,Recall,Recall2,5612,"dont know",12.5,1076,4898,0,0,,,1
w10042357_SGH,qujwut8dy8,Trevor_EX2,1,180,2020-10-10T15:13:36-07:00,3.0799119472504,3,Pure_Unrelated.csv,Control_VersionA.csv,"Control A","Control A",CAR,HAPPY,Study2,U,107,61,Test,User,-,,Recall,Recall2,2761,start,20,1565,2332,0,0,,,1
w10042357_SGH,qujwut8dy8,Trevor_EX2,1,181,2020-10-10T15:13:49-07:00,13.365924119949,3,Pure_Unrelated.csv,Control_VersionA.csv,"Control A","Control A",JELLY,NAUGHTY,Study2,U,172,66,Test,User,-,,Recall,Recall2,13076,"don't know",23.529411764706,1654,12613,0,0,,,1
w10042357_SGH,qujwut8dy8,Trevor_EX2,1,182,2020-10-10T15:13:53-07:00,3.5050489902496,3,Pure_Unrelated.csv,Control_VersionA.csv,"Control A","Control A",ADD,VALLEY,Study2,U,112,93,Test,User,-,,Recall,Recall2,3194,subtract,14.285714285714,1353,2966,0,0,,,1
w10042357_SGH,qujwut8dy8,Trevor_EX2,1,183,2020-10-10T15:13:57-07:00,4.1604130268097,3,Pure_Unrelated.csv,Control_VersionA.csv,"Control A","Control A",HUNGRY,PARK,Study2,U,98,64,Test,User,-,,Recall,Recall2,3827,"don't know",14.285714285714,2524,3401,0,0,,,1
w10042357_SGH,qujwut8dy8,Trevor_EX2,1,184,2020-10-10T15:14:01-07:00,3.715390920639,3,Pure_Unrelated.csv,Control_VersionA.csv,"Control A","Control A",DETECT,FREE,Study2,U,162,68,Test,User,-,,Recall,Recall2,3408,slick,0,2413,2916,0,0,,,1
w10042357_SGH,qujwut8dy8,Trevor_EX2,1,185,2020-10-10T15:14:04-07:00,3.7573411464691,3,Pure_Unrelated.csv,Control_VersionA.csv,"Control A","Control A",TUCK,ALLOW,Study2,U,108,72,Test,User,-,,Recall,Recall2,3381,"don't know",26.666666666667,1958,2939,0,0,,,1
w10042357_SGH,qujwut8dy8,Trevor_EX2,1,186,2020-10-10T15:14:08-07:00,3.3615520000458,3,Pure_Unrelated.csv,Control_VersionA.csv,"Control A","Control A",Business,Death,Study2,U,102,63,Test,User,-,,Recall,Recall2,3044,casual,18.181818181818,1692,2441,0,0,,,1
w10042357_SGH,qujwut8dy8,Trevor_EX2,1,187,2020-10-10T15:14:11-07:00,2.8538808822632,3,Pure_Unrelated.csv,Control_VersionA.csv,"Control A","Control A",PUT,ROLL,Study2,U,163,76,Test,User,-,,Recall,Recall2,2559,"don't know",14.285714285714,1167,2091,0,0,,,1
w10042357_SGH,qujwut8dy8,Trevor_EX2,1,188,2020-10-10T15:14:15-07:00,4.403657913208,3,Pure_Unrelated.csv,Control_VersionA.csv,"Control A","Control A",SYSTEM,LICK,Study2,U,167,83,Test,User,-,,Recall,Recall2,4104,sick,75,2917,3530,0,1,,,1
w10042357_SGH,qujwut8dy8,Trevor_EX2,1,189,2020-10-10T15:14:18-07:00,3.0082521438599,3,Pure_Unrelated.csv,Control_VersionA.csv,"Control A","Control A",DESIRE,NOISE,Study2,U,169,86,Test,User,-,,Recall,Recall2,2697,"don't know",26.666666666667,1254,2291,0,0,,,1
w10042357_SGH,qujwut8dy8,Trevor_EX2,1,190,2020-10-10T15:14:22-07:00,4.1211850643158,3,Pure_Unrelated.csv,Control_VersionA.csv,"Control A","Control A",ROAD,SCENT,Study2,U,166,70,Test,User,-,,Recall,Recall2,3721,"don't know",26.666666666667,2046,3193,0,0,,,1
w10042357_SGH,qujwut8dy8,Trevor_EX2,1,191,2020-10-10T15:14:25-07:00,3.2499258518219,3,Pure_Unrelated.csv,Control_VersionA.csv,"Control A","Control A",WASTE,SEDATE,Study2,U,165,96,Test,User,-,,Recall,Recall2,2940,management,25,1317,2441,0,0,,,1
w10042357_SGH,qujwut8dy8,Trevor_EX2,1,192,2020-10-10T15:14:28-07:00,2.9269139766693,3,Pure_Unrelated.csv,Control_VersionA.csv,"Control A","Control A",SACKING,DIETARY,Study2,U,97,79,Test,User,-,,Recall,Recall2,2647,"don't now",25,928,2122,0,0,,,1
w10042357_SGH,qujwut8dy8,Trevor_EX2,1,193,2020-10-10T15:14:40-07:00,11.867884159088,3,Pure_Unrelated.csv,Control_VersionA.csv,"Control A","Control A",LION,ART,Study2,U,109,81,Test,User,-,,Recall,Recall2,11573,"don't know",15.384615384615,9453,10963,0,0,,,1
w10042357_SGH,qujwut8dy8,Trevor_EX2,1,194,2020-10-10T15:14:43-07:00,2.9709749221802,3,Pure_Unrelated.csv,Control_VersionA.csv,"Control A","Control A",VASE,KING,Study2,U,115,85,Test,User,-,,Recall,Recall2,2669,"don't know",14.285714285714,1227,2185,0,0,,,1
w10042357_SGH,qujwut8dy8,Trevor_EX2,1,195,2020-10-10T15:14:46-07:00,2.6686670780182,3,Pure_Unrelated.csv,Control_VersionA.csv,"Control A","Control A",,,,,,0,Instruct,User,-,"You have completed this section. Please press Enter.",,Instruct7,2372,,,-1,-1,,,,,1
w10042357_SGH,qujwut8dy8,Trevor_EX2,1,196,2020-10-10T15:14:50-07:00,4.2697668075562,3,Pure_Unrelated.csv,Control_VersionA.csv,"Control A","Control A",,,,,,0,Instruct,User,-,"The following screen will ask you a few questions abour your experience today. You must complete these questions to receive credit.",,Instruct8,3944,,,-1,-1,,,,,1
