"Username","Condition.Number","Condition.Description","Stimuli.Cue","Stimuli.Answer","Stimuli.Shuffle","Stimuli.Stimuli.Notes","Procedure.Trial.Type","JOL.RT","Response.JOL","Response.RT.1","Response.Response","Response.Accuracy","Recall_Score"
"5dcd935ebc9b97000b9d506d",5,"Highlight vs normal A","ALLOW","TUCK","Study1","U","JOL_H",2526,"30",851,"",0,0
"5dfeb647c0b81fb457299d05",5,"Highlight vs normal A","ALLOW","TUCK","Study1","U","JOL_H",2377,"0",1740,"YES",0,0
"5e65408fdf313c2bcfa6e24f",5,"Highlight vs normal A","ALLOW","TUCK","Study1","U","JOL",1098,"0",1370,"",0,0
"5e8fe6a309881f2ee83521f5",5,"Highlight vs normal A","ALLOW","TUCK","Study1","U","JOL_H",5246,"1",2281,"leave",0,0
"5eb47a217761382d66d1fe63",5,"Highlight vs normal A","ALLOW","TUCK","Study1","U","JOL_H",1327,"64",4071,"",0,0
"5ebc466264fea60774387e75",5,"Highlight vs normal A","ALLOW","TUCK","Study1","U","JOL",4163,"3",1578,"",0,0
"5ebd841ddea21b08a0aa3057",5,"Highlight vs normal A","ALLOW","TUCK","Study1","U","JOL",6937,"14",4587,"",0,0
"5f021571f119a138b3f33aab",5,"Highlight vs normal A","ALLOW","TUCK","Study1","U","JOL",2333,"10",1579,"",0,0
"5f0285dc9ae0b911b5f97dfe",5,"Highlight vs normal A","ALLOW","TUCK","Study1","U","JOL_H",3660,"15",1070,"",0,0
"5f045318065b0a04830ba148",5,"Highlight vs normal A","ALLOW","TUCK","Study1","U","JOL_H",4257,"0",1189,"",0,0
"5f09ae1800d387244cd6a16f",5,"Highlight vs normal A","ALLOW","TUCK","Study1","U","JOL",4524,"10",4444,"",0,0
"w968356_cj",5,"Highlight vs normal A","ALLOW","TUCK","Study1","U","JOL",12014,"67",2108,"continue",16.666666666667,0
"5dcd935ebc9b97000b9d506d",5,"Highlight vs normal A","ARCHITECTURE","DESIGN","Study1","S","JOL_H",2060,"80",3533,"Design",100,100
"5dfeb647c0b81fb457299d05",5,"Highlight vs normal A","ARCHITECTURE","DESIGN","Study1","S","JOL_H",4924,"85",2321,"DESIGN",100,100
"5e65408fdf313c2bcfa6e24f",5,"Highlight vs normal A","ARCHITECTURE","DESIGN","Study1","S","JOL",4902,"100",3158,"design",100,100
"5e8fe6a309881f2ee83521f5",5,"Highlight vs normal A","ARCHITECTURE","DESIGN","Study1","S","JOL_H",7230,"84",2400,"design",100,100
"5eb47a217761382d66d1fe63",5,"Highlight vs normal A","ARCHITECTURE","DESIGN","Study1","S","JOL",3678,"89",3483,"Design",100,100
"5ebc466264fea60774387e75",5,"Highlight vs normal A","ARCHITECTURE","DESIGN","Study1","S","JOL_H",3521,"40",4380,"design",100,100
"5ebd841ddea21b08a0aa3057",5,"Highlight vs normal A","ARCHITECTURE","DESIGN","Study1","S","JOL",10006,"39",3111,"DESIGN",100,100
"5f021571f119a138b3f33aab",5,"Highlight vs normal A","ARCHITECTURE","DESIGN","Study1","S","JOL",1825,"80",2272,"DESIGN",100,100
"5f0285dc9ae0b911b5f97dfe",5,"Highlight vs normal A","ARCHITECTURE","DESIGN","Study1","S","JOL",4566,"60",5772,"design",100,100
"5f045318065b0a04830ba148",5,"Highlight vs normal A","ARCHITECTURE","DESIGN","Study1","S","JOL",4180,"50",3405,"design",100,100
"5f09ae1800d387244cd6a16f",5,"Highlight vs normal A","ARCHITECTURE","DESIGN","Study1","S","JOL",4096,"60",13733,"",0,0
"w968356_cj",5,"Highlight vs normal A","ARCHITECTURE","DESIGN","Study1","S","JOL",1544,"4",2963,"land",20,0
"5dcd935ebc9b97000b9d506d",5,"Highlight vs normal A","ART","LION","Study1","U","JOL",3200,"40",1998,"",0,0
"5dfeb647c0b81fb457299d05",5,"Highlight vs normal A","ART","LION","Study1","U","JOL",5688,"5",2536,"LION",100,100
"5e65408fdf313c2bcfa6e24f",5,"Highlight vs normal A","ART","LION","Study1","U","JOL",1616,"0",1196,"",0,0
"5e8fe6a309881f2ee83521f5",5,"Highlight vs normal A","ART","LION","Study1","U","JOL",9300,"76",2247,"Lion",100,100
"5eb47a217761382d66d1fe63",5,"Highlight vs normal A","ART","LION","Study1","U","JOL",831,"54",3384,"drawing",36.363636363636,0
"5ebc466264fea60774387e75",5,"Highlight vs normal A","ART","LION","Study1","U","JOL",3326,"1",3062,"",0,0
"5ebd841ddea21b08a0aa3057",5,"Highlight vs normal A","ART","LION","Study1","U","JOL_H",10647,"39",3721,"",0,0
"5f021571f119a138b3f33aab",5,"Highlight vs normal A","ART","LION","Study1","U","JOL_H",2257,"5",5376,"CHEESE",0,0
"5f0285dc9ae0b911b5f97dfe",5,"Highlight vs normal A","ART","LION","Study1","U","JOL",8487,"60",850,"",0,0
"5f045318065b0a04830ba148",5,"Highlight vs normal A","ART","LION","Study1","U","JOL",2787,"0",5618,"",0,0
"5f09ae1800d387244cd6a16f",5,"Highlight vs normal A","ART","LION","Study1","U","JOL",6647,"10",13227,"",0,0
"w968356_cj",5,"Highlight vs normal A","ART","LION","Study1","U","JOL_H",10750,"35",2527,"piece",22.222222222222,0
"5dcd935ebc9b97000b9d506d",5,"Highlight vs normal A","ARTERY","BRONZE","Study1","U","JOL",2890,"50",1270,"",0,0
"5dfeb647c0b81fb457299d05",5,"Highlight vs normal A","ARTERY","BRONZE","Study1","U","JOL_H",4901,"0",4147,"BRONZE",100,100
"5e65408fdf313c2bcfa6e24f",5,"Highlight vs normal A","ARTERY","BRONZE","Study1","U","JOL_H",2179,"0",1871,"",0,0
"5e8fe6a309881f2ee83521f5",5,"Highlight vs normal A","ARTERY","BRONZE","Study1","U","JOL",5405,"1",3920,"Heart",18.181818181818,0
"5eb47a217761382d66d1fe63",5,"Highlight vs normal A","ARTERY","BRONZE","Study1","U","JOL",666,"65",3357,"Vein",20,0
"5ebc466264fea60774387e75",5,"Highlight vs normal A","ARTERY","BRONZE","Study1","U","JOL_H",1902,"1",4468,"",0,0
"5ebd841ddea21b08a0aa3057",5,"Highlight vs normal A","ARTERY","BRONZE","Study1","U","JOL",7033,"6",5012,"",0,0
"5f021571f119a138b3f33aab",5,"Highlight vs normal A","ARTERY","BRONZE","Study1","U","JOL",2185,"10",1090,"",0,0
"5f0285dc9ae0b911b5f97dfe",5,"Highlight vs normal A","ARTERY","BRONZE","Study1","U","JOL_H",2950,"5",1893,"",0,0
"5f045318065b0a04830ba148",5,"Highlight vs normal A","ARTERY","BRONZE","Study1","U","JOL",4637,"1",4718,"law",0,0
"5f09ae1800d387244cd6a16f",5,"Highlight vs normal A","ARTERY","BRONZE","Study1","U","JOL",4156,"1",3558,"",0,0
"w968356_cj",5,"Highlight vs normal A","ARTERY","BRONZE","Study1","U","JOL_H",1853,"98",3991,"clog",20,0
"5dcd935ebc9b97000b9d506d",5,"Highlight vs normal A","BABY","CHILD","Study1","S","JOL",11611,"90",1453,"",0,0
"5dfeb647c0b81fb457299d05",5,"Highlight vs normal A","BABY","CHILD","Study1","S","JOL_H",4786,"90",2499,"CHILD",100,100
"5e65408fdf313c2bcfa6e24f",5,"Highlight vs normal A","BABY","CHILD","Study1","S","JOL_H",1301,"100",2186,"child",100,100
"5e8fe6a309881f2ee83521f5",5,"Highlight vs normal A","BABY","CHILD","Study1","S","JOL_H",4281,"90",4971,"Smile",40,0
"5eb47a217761382d66d1fe63",5,"Highlight vs normal A","BABY","CHILD","Study1","S","JOL_H",1982,"50",4943,"Child",100,100
"5ebc466264fea60774387e75",5,"Highlight vs normal A","BABY","CHILD","Study1","S","JOL",3865,"60",1152,"",0,0
"5ebd841ddea21b08a0aa3057",5,"Highlight vs normal A","BABY","CHILD","Study1","S","JOL_H",6335,"58",2543,"CHILD",100,100
"5f021571f119a138b3f33aab",5,"Highlight vs normal A","BABY","CHILD","Study1","S","JOL",2555,"30",1979,"",0,0
"5f0285dc9ae0b911b5f97dfe",5,"Highlight vs normal A","BABY","CHILD","Study1","S","JOL_H",3311,"100",3852,"child",100,100
"5f045318065b0a04830ba148",5,"Highlight vs normal A","BABY","CHILD","Study1","S","JOL_H",4942,"30",3804,"child",100,100
"5f09ae1800d387244cd6a16f",5,"Highlight vs normal A","BABY","CHILD","Study1","S","JOL_H",4060,"70",2080,"",0,0
"w968356_cj",5,"Highlight vs normal A","BABY","CHILD","Study1","S","JOL_H",1530,"87",6234,"back",22.222222222222,0
"5dcd935ebc9b97000b9d506d",5,"Highlight vs normal A","BALL","RACKET","Study1","B","JOL",1940,"70",2694,"",0,0
"5dfeb647c0b81fb457299d05",5,"Highlight vs normal A","BALL","RACKET","Study1","B","JOL",5101,"15",2020,"ROUND",18.181818181818,0
"5e65408fdf313c2bcfa6e24f",5,"Highlight vs normal A","BALL","RACKET","Study1","B","JOL_H",2229,"100",4336,"racket",100,100
"5e8fe6a309881f2ee83521f5",5,"Highlight vs normal A","BALL","RACKET","Study1","B","JOL_H",6220,"62",2374,"play",20,0
"5eb47a217761382d66d1fe63",5,"Highlight vs normal A","BALL","RACKET","Study1","B","JOL_H",1955,"67",11236,"butter ball",11.764705882353,0
"5ebc466264fea60774387e75",5,"Highlight vs normal A","BALL","RACKET","Study1","B","JOL_H",5281,"20",1503,"",0,0
"5ebd841ddea21b08a0aa3057",5,"Highlight vs normal A","BALL","RACKET","Study1","B","JOL_H",9638,"53",9164,"RACKET",100,100
"5f021571f119a138b3f33aab",5,"Highlight vs normal A","BALL","RACKET","Study1","B","JOL",2798,"10",3462,"MITT",20,0
"5f0285dc9ae0b911b5f97dfe",5,"Highlight vs normal A","BALL","RACKET","Study1","B","JOL_H",2915,"90",1396,"",0,0
"5f045318065b0a04830ba148",5,"Highlight vs normal A","BALL","RACKET","Study1","B","JOL_H",6068,"80",10987,"pitch",18.181818181818,0
"5f09ae1800d387244cd6a16f",5,"Highlight vs normal A","BALL","RACKET","Study1","B","JOL",2240,"15",4126,"throw",18.181818181818,0
"w968356_cj",5,"Highlight vs normal A","BALL","RACKET","Study1","B","JOL_H",2883,"56",6937,"game ",40,0
"5dcd935ebc9b97000b9d506d",5,"Highlight vs normal A","BATHROOM","TOILET","Study1","S","JOL",6450,"70",3974,"toilet",100,100
"5dfeb647c0b81fb457299d05",5,"Highlight vs normal A","BATHROOM","TOILET","Study1","S","JOL",2291,"100",1970,"TOILET",100,100
"5e65408fdf313c2bcfa6e24f",5,"Highlight vs normal A","BATHROOM","TOILET","Study1","S","JOL",1371,"100",3941,"toilet",100,100
"5e8fe6a309881f2ee83521f5",5,"Highlight vs normal A","BATHROOM","TOILET","Study1","S","JOL",11649,"100",4443,"Toilet",100,100
"5eb47a217761382d66d1fe63",5,"Highlight vs normal A","BATHROOM","TOILET","Study1","S","JOL_H",1052,"75",3286,"Bedroom",15.384615384615,0
"5ebc466264fea60774387e75",5,"Highlight vs normal A","BATHROOM","TOILET","Study1","S","JOL_H",6035,"60",3321,"toilet",100,100
"5ebd841ddea21b08a0aa3057",5,"Highlight vs normal A","BATHROOM","TOILET","Study1","S","JOL",9745,"76",2367,"TOILET",100,100
"5f021571f119a138b3f33aab",5,"Highlight vs normal A","BATHROOM","TOILET","Study1","S","JOL_H",1969,"90",3610,"TOILET",100,100
"5f0285dc9ae0b911b5f97dfe",5,"Highlight vs normal A","BATHROOM","TOILET","Study1","S","JOL",3160,"100",2963,"toilet",100,100
"5f045318065b0a04830ba148",5,"Highlight vs normal A","BATHROOM","TOILET","Study1","S","JOL",3563,"50",3444,"toilet",100,100
"5f09ae1800d387244cd6a16f",5,"Highlight vs normal A","BATHROOM","TOILET","Study1","S","JOL",2675,"85",6098,"",0,0
"w968356_cj",5,"Highlight vs normal A","BATHROOM","TOILET","Study1","S","JOL",2259,"7",2406,"sink",20,0
"5dcd935ebc9b97000b9d506d",5,"Highlight vs normal A","BEGIN","END","Study1","S","JOL",3839,"90",3192,"End",100,100
"5dfeb647c0b81fb457299d05",5,"Highlight vs normal A","BEGIN","END","Study1","S","JOL_H",2207,"60",1713,"END",100,100
"5e65408fdf313c2bcfa6e24f",5,"Highlight vs normal A","BEGIN","END","Study1","S","JOL",2625,"100",1895,"end",100,100
"5e8fe6a309881f2ee83521f5",5,"Highlight vs normal A","BEGIN","END","Study1","S","JOL_H",4872,"100",3793,"start",0,0
"5eb47a217761382d66d1fe63",5,"Highlight vs normal A","BEGIN","END","Study1","S","JOL",2987,"100",5960,"end",100,100
"5ebc466264fea60774387e75",5,"Highlight vs normal A","BEGIN","END","Study1","S","JOL_H",2981,"80",2880,"end",100,100
"5ebd841ddea21b08a0aa3057",5,"Highlight vs normal A","BEGIN","END","Study1","S","JOL",12970,"83",1851,"END",100,100
"5f021571f119a138b3f33aab",5,"Highlight vs normal A","BEGIN","END","Study1","S","JOL",2254,"50",2097,"END",100,100
"5f0285dc9ae0b911b5f97dfe",5,"Highlight vs normal A","BEGIN","END","Study1","S","JOL",2669,"90",2587,"end",100,100
"5f045318065b0a04830ba148",5,"Highlight vs normal A","BEGIN","END","Study1","S","JOL",5253,"19",4763,"end",100,100
"5f09ae1800d387244cd6a16f",5,"Highlight vs normal A","BEGIN","END","Study1","S","JOL",4940,"95",6154,"start",0,0
"w968356_cj",5,"Highlight vs normal A","BEGIN","END","Study1","S","JOL",1450,"7",1960,"end",100,100
"5dcd935ebc9b97000b9d506d",5,"Highlight vs normal A","BITTER","COLD","Study1","F","JOL_H",3694,"5",667,"",0,0
"5dfeb647c0b81fb457299d05",5,"Highlight vs normal A","BITTER","COLD","Study1","F","JOL_H",2299,"30",2121,"COLD",100,100
"5e65408fdf313c2bcfa6e24f",5,"Highlight vs normal A","BITTER","COLD","Study1","F","JOL",2224,"0",5960,"cold",100,100
"5e8fe6a309881f2ee83521f5",5,"Highlight vs normal A","BITTER","COLD","Study1","F","JOL_H",10511,"42",4178,"sour",25,0
"5eb47a217761382d66d1fe63",5,"Highlight vs normal A","BITTER","COLD","Study1","F","JOL",1698,"25",2828,"sweet",0,0
"5ebc466264fea60774387e75",5,"Highlight vs normal A","BITTER","COLD","Study1","F","JOL_H",5738,"55",7929,"cold",100,100
"5ebd841ddea21b08a0aa3057",5,"Highlight vs normal A","BITTER","COLD","Study1","F","JOL_H",7155,"18",2783,"COLD",100,100
"5f021571f119a138b3f33aab",5,"Highlight vs normal A","BITTER","COLD","Study1","F","JOL_H",2096,"20",4292,"",0,0
"5f0285dc9ae0b911b5f97dfe",5,"Highlight vs normal A","BITTER","COLD","Study1","F","JOL",4106,"60",3108,"cold",100,100
"5f045318065b0a04830ba148",5,"Highlight vs normal A","BITTER","COLD","Study1","F","JOL",6457,"15",4561,"sweet",0,0
"5f09ae1800d387244cd6a16f",5,"Highlight vs normal A","BITTER","COLD","Study1","F","JOL_H",7008,"90",4278,"better",0,0
"w968356_cj",5,"Highlight vs normal A","BITTER","COLD","Study1","F","JOL",995,"23",24503,"sweet",0,0
"5dcd935ebc9b97000b9d506d",5,"Highlight vs normal A","BLOW","WIND","Study1","S","JOL_H",3256,"80",1235,"",0,0
"5dfeb647c0b81fb457299d05",5,"Highlight vs normal A","BLOW","WIND","Study1","S","JOL_H",4447,"85",3754,"HARD",25,0
"5e65408fdf313c2bcfa6e24f",5,"Highlight vs normal A","BLOW","WIND","Study1","S","JOL_H",2137,"100",3121,"wind",100,100
"5e8fe6a309881f2ee83521f5",5,"Highlight vs normal A","BLOW","WIND","Study1","S","JOL_H",6924,"100",10399,"Hair",25,0
"5eb47a217761382d66d1fe63",5,"Highlight vs normal A","BLOW","WIND","Study1","S","JOL",664,"12",12039,"",0,0
"5ebc466264fea60774387e75",5,"Highlight vs normal A","BLOW","WIND","Study1","S","JOL_H",5529,"60",1956,"wind",100,100
"5ebd841ddea21b08a0aa3057",5,"Highlight vs normal A","BLOW","WIND","Study1","S","JOL",17797,"67",4158,"WIND",100,100
"5f021571f119a138b3f33aab",5,"Highlight vs normal A","BLOW","WIND","Study1","S","JOL_H",2516,"70",5427,"WIND",100,100
"5f0285dc9ae0b911b5f97dfe",5,"Highlight vs normal A","BLOW","WIND","Study1","S","JOL_H",2380,"95",845,"",0,0
"5f045318065b0a04830ba148",5,"Highlight vs normal A","BLOW","WIND","Study1","S","JOL_H",6277,"15",8842,"dry",28.571428571429,0
"5f09ae1800d387244cd6a16f",5,"Highlight vs normal A","BLOW","WIND","Study1","S","JOL",5493,"85",5973,"",0,0
"w968356_cj",5,"Highlight vs normal A","BLOW","WIND","Study1","S","JOL_H",1660,"65",2365,"smoke",0,0
"5dcd935ebc9b97000b9d506d",5,"Highlight vs normal A","BRIDGE","WATER","Study1","F","JOL",2799,"80",3734,"",0,0
"5dfeb647c0b81fb457299d05",5,"Highlight vs normal A","BRIDGE","WATER","Study1","F","JOL",1649,"50",1572,"WATER",100,100
"5e65408fdf313c2bcfa6e24f",5,"Highlight vs normal A","BRIDGE","WATER","Study1","F","JOL",1945,"100",2416,"",0,0
"5e8fe6a309881f2ee83521f5",5,"Highlight vs normal A","BRIDGE","WATER","Study1","F","JOL",5672,"73",4387,"Water",100,100
"5eb47a217761382d66d1fe63",5,"Highlight vs normal A","BRIDGE","WATER","Study1","F","JOL",634,"32",4974,"Water",100,100
"5ebc466264fea60774387e75",5,"Highlight vs normal A","BRIDGE","WATER","Study1","F","JOL_H",5995,"50",2250,"water",100,100
"5ebd841ddea21b08a0aa3057",5,"Highlight vs normal A","BRIDGE","WATER","Study1","F","JOL",6009,"57",3549,"WATER",100,100
"5f021571f119a138b3f33aab",5,"Highlight vs normal A","BRIDGE","WATER","Study1","F","JOL_H",2532,"50",1339,"",0,0
"5f0285dc9ae0b911b5f97dfe",5,"Highlight vs normal A","BRIDGE","WATER","Study1","F","JOL",7286,"55",1870,"water",100,100
"5f045318065b0a04830ba148",5,"Highlight vs normal A","BRIDGE","WATER","Study1","F","JOL_H",6479,"65",7196,"water",100,100
"5f09ae1800d387244cd6a16f",5,"Highlight vs normal A","BRIDGE","WATER","Study1","F","JOL",7529,"85",4359,"",0,0
"w968356_cj",5,"Highlight vs normal A","BRIDGE","WATER","Study1","F","JOL",1090,"30",1568,"water",100,100
"5dcd935ebc9b97000b9d506d",5,"Highlight vs normal A","BUG","WASP","Study1","B","JOL",2063,"80",6561,"Wasp",100,100
"5dfeb647c0b81fb457299d05",5,"Highlight vs normal A","BUG","WASP","Study1","B","JOL",3448,"20",3528,"WASP",100,100
"5e65408fdf313c2bcfa6e24f",5,"Highlight vs normal A","BUG","WASP","Study1","B","JOL_H",1520,"100",3627,"wasp",100,100
"5e8fe6a309881f2ee83521f5",5,"Highlight vs normal A","BUG","WASP","Study1","B","JOL_H",3723,"65",10057,"insect",20,0
"5eb47a217761382d66d1fe63",5,"Highlight vs normal A","BUG","WASP","Study1","B","JOL",3299,"85",3295,"WASP",100,100
"5ebc466264fea60774387e75",5,"Highlight vs normal A","BUG","WASP","Study1","B","JOL",6063,"50",3465,"wasp",100,100
"5ebd841ddea21b08a0aa3057",5,"Highlight vs normal A","BUG","WASP","Study1","B","JOL",10146,"46",7840,"WASP",100,100
"5f021571f119a138b3f33aab",5,"Highlight vs normal A","BUG","WASP","Study1","B","JOL",2270,"20",3716,"WASP",100,100
"5f0285dc9ae0b911b5f97dfe",5,"Highlight vs normal A","BUG","WASP","Study1","B","JOL",4043,"95",3041,"wasp",100,100
"5f045318065b0a04830ba148",5,"Highlight vs normal A","BUG","WASP","Study1","B","JOL_H",5968,"10",9983,"insect",20,0
"5f09ae1800d387244cd6a16f",5,"Highlight vs normal A","BUG","WASP","Study1","B","JOL",7250,"66",4199,"",0,0
"w968356_cj",5,"Highlight vs normal A","BUG","WASP","Study1","B","JOL",3407,"87",2079,"removal",18.181818181818,0
"5dcd935ebc9b97000b9d506d",5,"Highlight vs normal A","CASH","WOULD","Study1","U","JOL_H",6333,"50",1443,"",0,0
"5dfeb647c0b81fb457299d05",5,"Highlight vs normal A","CASH","WOULD","Study1","U","JOL",2806,"0",6807,"MONEY",20,0
"5e65408fdf313c2bcfa6e24f",5,"Highlight vs normal A","CASH","WOULD","Study1","U","JOL_H",1287,"0",2161,"money",20,0
"5e8fe6a309881f2ee83521f5",5,"Highlight vs normal A","CASH","WOULD","Study1","U","JOL_H",8079,"34",3613,"money",20,0
"5eb47a217761382d66d1fe63",5,"Highlight vs normal A","CASH","WOULD","Study1","U","JOL",587,"6",3627,"Card",22.222222222222,0
"5ebc466264fea60774387e75",5,"Highlight vs normal A","CASH","WOULD","Study1","U","JOL_H",1765,"1",4868,"",0,0
"5ebd841ddea21b08a0aa3057",5,"Highlight vs normal A","CASH","WOULD","Study1","U","JOL_H",10652,"9",8609,"MONEY",20,0
"5f021571f119a138b3f33aab",5,"Highlight vs normal A","CASH","WOULD","Study1","U","JOL",2338,"20",2769,"",0,0
"5f0285dc9ae0b911b5f97dfe",5,"Highlight vs normal A","CASH","WOULD","Study1","U","JOL_H",3271,"45",3577,"money",20,0
"5f045318065b0a04830ba148",5,"Highlight vs normal A","CASH","WOULD","Study1","U","JOL",2094,"0",4467,"out",50,0
"5f09ae1800d387244cd6a16f",5,"Highlight vs normal A","CASH","WOULD","Study1","U","JOL",4317,"4",3764,"card",22.222222222222,0
"w968356_cj",5,"Highlight vs normal A","CASH","WOULD","Study1","U","JOL_H",1949,"98",1962,"coin",22.222222222222,0
"5dcd935ebc9b97000b9d506d",5,"Highlight vs normal A","CHISEL","HAMMER","Study1","F","JOL_H",2059,"70",611,"",0,0
"5dfeb647c0b81fb457299d05",5,"Highlight vs normal A","CHISEL","HAMMER","Study1","F","JOL",6530,"60",1903,"HAMMER",100,100
"5e65408fdf313c2bcfa6e24f",5,"Highlight vs normal A","CHISEL","HAMMER","Study1","F","JOL_H",5835,"0",1068,"",0,0
"5e8fe6a309881f2ee83521f5",5,"Highlight vs normal A","CHISEL","HAMMER","Study1","F","JOL_H",11400,"23",6979,"Hammer",100,100
"5eb47a217761382d66d1fe63",5,"Highlight vs normal A","CHISEL","HAMMER","Study1","F","JOL_H",668,"54",5801,"Hatchet",46.153846153846,0
"5ebc466264fea60774387e75",5,"Highlight vs normal A","CHISEL","HAMMER","Study1","F","JOL_H",7151,"45",2247,"hammer",100,100
"5ebd841ddea21b08a0aa3057",5,"Highlight vs normal A","CHISEL","HAMMER","Study1","F","JOL",22693,"22",2672,"HAMMER",100,100
"5f021571f119a138b3f33aab",5,"Highlight vs normal A","CHISEL","HAMMER","Study1","F","JOL_H",2446,"50",2343,"HAMMER",100,100
"5f0285dc9ae0b911b5f97dfe",5,"Highlight vs normal A","CHISEL","HAMMER","Study1","F","JOL",6818,"60",1329,"",0,0
"5f045318065b0a04830ba148",5,"Highlight vs normal A","CHISEL","HAMMER","Study1","F","JOL",5003,"40",4162,"",0,0
"5f09ae1800d387244cd6a16f",5,"Highlight vs normal A","CHISEL","HAMMER","Study1","F","JOL",4935,"45",5288,"hammer",100,100
"w968356_cj",5,"Highlight vs normal A","CHISEL","HAMMER","Study1","F","JOL",996,"88",4381,"make",40,0
"5dcd935ebc9b97000b9d506d",5,"Highlight vs normal A","CIRCLE","ROUND","Study1","S","JOL_H",1872,"80",3317,"Round",100,100
"5dfeb647c0b81fb457299d05",5,"Highlight vs normal A","CIRCLE","ROUND","Study1","S","JOL_H",2206,"100",1653,"ROUND",100,100
"5e65408fdf313c2bcfa6e24f",5,"Highlight vs normal A","CIRCLE","ROUND","Study1","S","JOL_H",2275,"100",3375,"round",100,100
"5e8fe6a309881f2ee83521f5",5,"Highlight vs normal A","CIRCLE","ROUND","Study1","S","JOL_H",7184,"100",2683,"Round",100,100
"5eb47a217761382d66d1fe63",5,"Highlight vs normal A","CIRCLE","ROUND","Study1","S","JOL",1644,"65",5158,"Rectangle",28.571428571429,0
"5ebc466264fea60774387e75",5,"Highlight vs normal A","CIRCLE","ROUND","Study1","S","JOL",3119,"70",3844,"round",100,100
"5ebd841ddea21b08a0aa3057",5,"Highlight vs normal A","CIRCLE","ROUND","Study1","S","JOL",10781,"56",2656,"ROUND",100,100
"5f021571f119a138b3f33aab",5,"Highlight vs normal A","CIRCLE","ROUND","Study1","S","JOL_H",2463,"80",2617,"ROUND",100,100
"5f0285dc9ae0b911b5f97dfe",5,"Highlight vs normal A","CIRCLE","ROUND","Study1","S","JOL",3756,"100",4294,"round",100,100
"5f045318065b0a04830ba148",5,"Highlight vs normal A","CIRCLE","ROUND","Study1","S","JOL",6402,"20",4477,"round",100,100
"5f09ae1800d387244cd6a16f",5,"Highlight vs normal A","CIRCLE","ROUND","Study1","S","JOL",4781,"90",3873,"",0,0
"w968356_cj",5,"Highlight vs normal A","CIRCLE","ROUND","Study1","S","JOL",2222,"98",2027,"step",0,0
"5dcd935ebc9b97000b9d506d",5,"Highlight vs normal A","CLOTHES","ATTIRE","Study1","B","JOL",3561,"60",1174,"",0,0
"5dfeb647c0b81fb457299d05",5,"Highlight vs normal A","CLOTHES","ATTIRE","Study1","B","JOL",3746,"50",2185,"WEAR",20,0
"5e65408fdf313c2bcfa6e24f",5,"Highlight vs normal A","CLOTHES","ATTIRE","Study1","B","JOL",3628,"0",1299,"",0,0
"5e8fe6a309881f2ee83521f5",5,"Highlight vs normal A","CLOTHES","ATTIRE","Study1","B","JOL",9676,"93",3330,"Shop",0,0
"5eb47a217761382d66d1fe63",5,"Highlight vs normal A","CLOTHES","ATTIRE","Study1","B","JOL",737,"65",4022,"garmet",50,0
"5ebc466264fea60774387e75",5,"Highlight vs normal A","CLOTHES","ATTIRE","Study1","B","JOL_H",2480,"30",3902,"attire",100,100
"5ebd841ddea21b08a0aa3057",5,"Highlight vs normal A","CLOTHES","ATTIRE","Study1","B","JOL",6949,"46",2962,"ATTIRE",100,100
"5f021571f119a138b3f33aab",5,"Highlight vs normal A","CLOTHES","ATTIRE","Study1","B","JOL_H",1820,"80",2566,"ATTIRE",100,100
"5f0285dc9ae0b911b5f97dfe",5,"Highlight vs normal A","CLOTHES","ATTIRE","Study1","B","JOL",3675,"55",10365,"",0,0
"5f045318065b0a04830ba148",5,"Highlight vs normal A","CLOTHES","ATTIRE","Study1","B","JOL_H",7268,"40",4514,"attire",100,100
"5f09ae1800d387244cd6a16f",5,"Highlight vs normal A","CLOTHES","ATTIRE","Study1","B","JOL",3619,"30",4153,"clean",18.181818181818,0
"w968356_cj",5,"Highlight vs normal A","CLOTHES","ATTIRE","Study1","B","JOL",7041,"98",3421,"laundry",30.769230769231,0
"5dcd935ebc9b97000b9d506d",5,"Highlight vs normal A","CREDIT","CARD","Study1","F","JOL_H",2151,"90",2813,"Card",100,100
"5dfeb647c0b81fb457299d05",5,"Highlight vs normal A","CREDIT","CARD","Study1","F","JOL_H",2165,"100",3007,"CARD",100,100
"5e65408fdf313c2bcfa6e24f",5,"Highlight vs normal A","CREDIT","CARD","Study1","F","JOL",1666,"100",2464,"card",100,100
"5e8fe6a309881f2ee83521f5",5,"Highlight vs normal A","CREDIT","CARD","Study1","F","JOL_H",6208,"100",7579,"Score ",44.444444444444,0
"5eb47a217761382d66d1fe63",5,"Highlight vs normal A","CREDIT","CARD","Study1","F","JOL_H",2377,"100",2299,"card",100,100
"5ebc466264fea60774387e75",5,"Highlight vs normal A","CREDIT","CARD","Study1","F","JOL",3889,"75",2317,"card",100,100
"5ebd841ddea21b08a0aa3057",5,"Highlight vs normal A","CREDIT","CARD","Study1","F","JOL",10874,"90",2415,"CARD",100,100
"5f021571f119a138b3f33aab",5,"Highlight vs normal A","CREDIT","CARD","Study1","F","JOL",2185,"100",4767,"CARD",100,100
"5f0285dc9ae0b911b5f97dfe",5,"Highlight vs normal A","CREDIT","CARD","Study1","F","JOL_H",2469,"95",2187,"card",100,100
"5f045318065b0a04830ba148",5,"Highlight vs normal A","CREDIT","CARD","Study1","F","JOL",3190,"100",2940,"",0,0
"5f09ae1800d387244cd6a16f",5,"Highlight vs normal A","CREDIT","CARD","Study1","F","JOL",2731,"99",1941,"card",100,100
"w968356_cj",5,"Highlight vs normal A","CREDIT","CARD","Study1","F","JOL",1103,"77",2024,"score",44.444444444444,0
"5dcd935ebc9b97000b9d506d",5,"Highlight vs normal A","DARK","CAVE","Study1","B","JOL",8545,"60",1621,"",0,0
"5dfeb647c0b81fb457299d05",5,"Highlight vs normal A","DARK","CAVE","Study1","B","JOL_H",2087,"10",2242,"HIDE",25,0
"5e65408fdf313c2bcfa6e24f",5,"Highlight vs normal A","DARK","CAVE","Study1","B","JOL_H",1765,"100",2202,"",0,0
"5e8fe6a309881f2ee83521f5",5,"Highlight vs normal A","DARK","CAVE","Study1","B","JOL_H",11351,"96",2049,"Cave",100,100
"5eb47a217761382d66d1fe63",5,"Highlight vs normal A","DARK","CAVE","Study1","B","JOL_H",592,"78",3173,"light",0,0
"5ebc466264fea60774387e75",5,"Highlight vs normal A","DARK","CAVE","Study1","B","JOL_H",3332,"55",1971,"",0,0
"5ebd841ddea21b08a0aa3057",5,"Highlight vs normal A","DARK","CAVE","Study1","B","JOL_H",13546,"86",2109,"CAVE",100,100
"5f021571f119a138b3f33aab",5,"Highlight vs normal A","DARK","CAVE","Study1","B","JOL_H",1438,"60",1649,"",0,0
"5f0285dc9ae0b911b5f97dfe",5,"Highlight vs normal A","DARK","CAVE","Study1","B","JOL",4016,"70",2721,"cave",100,100
"5f045318065b0a04830ba148",5,"Highlight vs normal A","DARK","CAVE","Study1","B","JOL",5250,"65",4450,"night",0,0
"5f09ae1800d387244cd6a16f",5,"Highlight vs normal A","DARK","CAVE","Study1","B","JOL_H",3559,"85",3214,"",0,0
"w968356_cj",5,"Highlight vs normal A","DARK","CAVE","Study1","B","JOL",2111,"87",2176,"bright",0,0
"5dcd935ebc9b97000b9d506d",5,"Highlight vs normal A","DEATH","BUSINESS","Study1","U","JOL",2196,"50",1232,"",0,0
"5dfeb647c0b81fb457299d05",5,"Highlight vs normal A","DEATH","BUSINESS","Study1","U","JOL_H",3630,"60",3574,"LIFE",33.333333333333,0
"5e65408fdf313c2bcfa6e24f",5,"Highlight vs normal A","DEATH","BUSINESS","Study1","U","JOL_H",1464,"0",1108,"",0,0
"5e8fe6a309881f2ee83521f5",5,"Highlight vs normal A","DEATH","BUSINESS","Study1","U","JOL",8596,"27",2991,"",0,0
"5eb47a217761382d66d1fe63",5,"Highlight vs normal A","DEATH","BUSINESS","Study1","U","JOL",508,"5",7298,"Mort",0,0
"5ebc466264fea60774387e75",5,"Highlight vs normal A","DEATH","BUSINESS","Study1","U","JOL_H",2886,"20",4465,"",0,0
"5ebd841ddea21b08a0aa3057",5,"Highlight vs normal A","DEATH","BUSINESS","Study1","U","JOL",18320,"16",7589,"",0,0
"5f021571f119a138b3f33aab",5,"Highlight vs normal A","DEATH","BUSINESS","Study1","U","JOL",3829,"5",1768,"",0,0
"5f0285dc9ae0b911b5f97dfe",5,"Highlight vs normal A","DEATH","BUSINESS","Study1","U","JOL_H",6017,"5",1221,"",0,0
"5f045318065b0a04830ba148",5,"Highlight vs normal A","DEATH","BUSINESS","Study1","U","JOL_H",7095,"0",2053,"",0,0
"5f09ae1800d387244cd6a16f",5,"Highlight vs normal A","DEATH","BUSINESS","Study1","U","JOL",7464,"15",4069,"life",33.333333333333,0
"w968356_cj",5,"Highlight vs normal A","DEATH","BUSINESS","Study1","U","JOL",1194,"67",2185,"alive",30.769230769231,0
"5dcd935ebc9b97000b9d506d",5,"Highlight vs normal A","DEBATE","SIGHT","Study1","U","JOL",4559,"60",4682,"",0,0
"5dfeb647c0b81fb457299d05",5,"Highlight vs normal A","DEBATE","SIGHT","Study1","U","JOL_H",7996,"10",4342,"HEAR",22.222222222222,0
"5e65408fdf313c2bcfa6e24f",5,"Highlight vs normal A","DEBATE","SIGHT","Study1","U","JOL_H",2284,"0",3323,"",0,0
"5e8fe6a309881f2ee83521f5",5,"Highlight vs normal A","DEBATE","SIGHT","Study1","U","JOL",7474,"23",7061," ",0,0
"5eb47a217761382d66d1fe63",5,"Highlight vs normal A","DEBATE","SIGHT","Study1","U","JOL_H",2074,"4",4607,"Argue",20,0
"5ebc466264fea60774387e75",5,"Highlight vs normal A","DEBATE","SIGHT","Study1","U","JOL_H",2915,"20",2365,"",0,0
"5ebd841ddea21b08a0aa3057",5,"Highlight vs normal A","DEBATE","SIGHT","Study1","U","JOL",5378,"12",6476,"",0,0
"5f021571f119a138b3f33aab",5,"Highlight vs normal A","DEBATE","SIGHT","Study1","U","JOL",3630,"10",3808,"TALK",22.222222222222,0
"5f0285dc9ae0b911b5f97dfe",5,"Highlight vs normal A","DEBATE","SIGHT","Study1","U","JOL_H",4156,"35",1453,"",0,0
"5f045318065b0a04830ba148",5,"Highlight vs normal A","DEBATE","SIGHT","Study1","U","JOL_H",2378,"0",1520,"",0,0
"5f09ae1800d387244cd6a16f",5,"Highlight vs normal A","DEBATE","SIGHT","Study1","U","JOL",2695,"0",6815,"talk",22.222222222222,0
"w968356_cj",5,"Highlight vs normal A","DEBATE","SIGHT","Study1","U","JOL_H",2836,"65",5672,"ponder",0,0
"5dcd935ebc9b97000b9d506d",5,"Highlight vs normal A","DELINQUENT","BAD","Study1","F","JOL",2026,"70",4900,"Bad",100,100
"5dfeb647c0b81fb457299d05",5,"Highlight vs normal A","DELINQUENT","BAD","Study1","F","JOL",3766,"100",2455,"BAD",100,100
"5e65408fdf313c2bcfa6e24f",5,"Highlight vs normal A","DELINQUENT","BAD","Study1","F","JOL",9213,"0",16824,"crime",0,0
"5e8fe6a309881f2ee83521f5",5,"Highlight vs normal A","DELINQUENT","BAD","Study1","F","JOL",5265,"100",3634,"Bad",100,100
"5eb47a217761382d66d1fe63",5,"Highlight vs normal A","DELINQUENT","BAD","Study1","F","JOL",832,"78",4065,"Bad",100,100
"5ebc466264fea60774387e75",5,"Highlight vs normal A","DELINQUENT","BAD","Study1","F","JOL_H",2931,"10",3128,"bad",100,100
"5ebd841ddea21b08a0aa3057",5,"Highlight vs normal A","DELINQUENT","BAD","Study1","F","JOL",18668,"48",1741,"BAD",100,100
"5f021571f119a138b3f33aab",5,"Highlight vs normal A","DELINQUENT","BAD","Study1","F","JOL_H",5387,"60",1997,"BAD",100,100
"5f0285dc9ae0b911b5f97dfe",5,"Highlight vs normal A","DELINQUENT","BAD","Study1","F","JOL",5505,"45",2177,"bad",100,100
"5f045318065b0a04830ba148",5,"Highlight vs normal A","DELINQUENT","BAD","Study1","F","JOL_H",7839,"30",2911,"bad",100,100
"5f09ae1800d387244cd6a16f",5,"Highlight vs normal A","DELINQUENT","BAD","Study1","F","JOL",3113,"95",7695,"bad",100,100
"w968356_cj",5,"Highlight vs normal A","DELINQUENT","BAD","Study1","F","JOL_H",1570,"98",3044,"juvenile ",0,0
"5dcd935ebc9b97000b9d506d",5,"Highlight vs normal A","DIETARY","SACKING","Study1","U","JOL_H",2590,"30",1511,"",0,0
"5dfeb647c0b81fb457299d05",5,"Highlight vs normal A","DIETARY","SACKING","Study1","U","JOL",12261,"15",3624,"FOOD",0,0
"5e65408fdf313c2bcfa6e24f",5,"Highlight vs normal A","DIETARY","SACKING","Study1","U","JOL_H",1253,"0",1722,"",0,0
"5e8fe6a309881f2ee83521f5",5,"Highlight vs normal A","DIETARY","SACKING","Study1","U","JOL",5113,"0",6463,"heart",16.666666666667,0
"5eb47a217761382d66d1fe63",5,"Highlight vs normal A","DIETARY","SACKING","Study1","U","JOL",643,"5",5677,"diet",18.181818181818,0
"5ebc466264fea60774387e75",5,"Highlight vs normal A","DIETARY","SACKING","Study1","U","JOL_H",7474,"1",1269,"",0,0
"5ebd841ddea21b08a0aa3057",5,"Highlight vs normal A","DIETARY","SACKING","Study1","U","JOL_H",9983,"11",4975,"",0,0
"5f021571f119a138b3f33aab",5,"Highlight vs normal A","DIETARY","SACKING","Study1","U","JOL_H",2670,"1",2283,"",0,0
"5f0285dc9ae0b911b5f97dfe",5,"Highlight vs normal A","DIETARY","SACKING","Study1","U","JOL_H",3770,"10",1716,"",0,0
"5f045318065b0a04830ba148",5,"Highlight vs normal A","DIETARY","SACKING","Study1","U","JOL",6360,"20",3880,"",0,0
"5f09ae1800d387244cd6a16f",5,"Highlight vs normal A","DIETARY","SACKING","Study1","U","JOL_H",3067,"0",2988,"",0,0
"w968356_cj",5,"Highlight vs normal A","DIETARY","SACKING","Study1","U","JOL",2889,"98",7264,"plan",36.363636363636,0
"5dcd935ebc9b97000b9d506d",5,"Highlight vs normal A","DIGESTION","STOMACH","Study1","F","JOL_H",3255,"70",4714,"Stomach",100,100
"5dfeb647c0b81fb457299d05",5,"Highlight vs normal A","DIGESTION","STOMACH","Study1","F","JOL_H",2639,"90",3195,"EAT",20,0
"5e65408fdf313c2bcfa6e24f",5,"Highlight vs normal A","DIGESTION","STOMACH","Study1","F","JOL",3683,"100",3724,"stomach",100,100
"5e8fe6a309881f2ee83521f5",5,"Highlight vs normal A","DIGESTION","STOMACH","Study1","F","JOL_H",4748,"75",3482,"Stomach",100,100
"5eb47a217761382d66d1fe63",5,"Highlight vs normal A","DIGESTION","STOMACH","Study1","F","JOL_H",928,"32",7511,"Excretion",12.5,0
"5ebc466264fea60774387e75",5,"Highlight vs normal A","DIGESTION","STOMACH","Study1","F","JOL",6113,"45",4027,"stomach",100,100
"5ebd841ddea21b08a0aa3057",5,"Highlight vs normal A","DIGESTION","STOMACH","Study1","F","JOL_H",8810,"77",3108,"STOMACH",100,100
"5f021571f119a138b3f33aab",5,"Highlight vs normal A","DIGESTION","STOMACH","Study1","F","JOL",3019,"30",3485,"STOMACH",100,100
"5f0285dc9ae0b911b5f97dfe",5,"Highlight vs normal A","DIGESTION","STOMACH","Study1","F","JOL_H",5761,"65",2744,"",0,0
"5f045318065b0a04830ba148",5,"Highlight vs normal A","DIGESTION","STOMACH","Study1","F","JOL",9514,"40",5667,"",0,0
"5f09ae1800d387244cd6a16f",5,"Highlight vs normal A","DIGESTION","STOMACH","Study1","F","JOL",3707,"77",2712,"food",18.181818181818,0
"w968356_cj",5,"Highlight vs normal A","DIGESTION","STOMACH","Study1","F","JOL_H",12602,"67",2501,"poop",18.181818181818,0
"5dcd935ebc9b97000b9d506d",5,"Highlight vs normal A","DISCOVER","FLOOR","Study1","U","JOL_H",3739,"60",3595,"",0,0
"5dfeb647c0b81fb457299d05",5,"Highlight vs normal A","DISCOVER","FLOOR","Study1","U","JOL_H",2886,"5",3893,"FLOOR",100,100
"5e65408fdf313c2bcfa6e24f",5,"Highlight vs normal A","DISCOVER","FLOOR","Study1","U","JOL",1765,"0",1833,"",0,0
"5e8fe6a309881f2ee83521f5",5,"Highlight vs normal A","DISCOVER","FLOOR","Study1","U","JOL",7728,"54",5839,"Find",22.222222222222,0
"5eb47a217761382d66d1fe63",5,"Highlight vs normal A","DISCOVER","FLOOR","Study1","U","JOL_H",504,"56",4814,"find",22.222222222222,0
"5ebc466264fea60774387e75",5,"Highlight vs normal A","DISCOVER","FLOOR","Study1","U","JOL",2374,"1",1124,"",0,0
"5ebd841ddea21b08a0aa3057",5,"Highlight vs normal A","DISCOVER","FLOOR","Study1","U","JOL_H",11076,"31",9009,"",0,0
"5f021571f119a138b3f33aab",5,"Highlight vs normal A","DISCOVER","FLOOR","Study1","U","JOL_H",2971,"5",1945,"",0,0
"5f0285dc9ae0b911b5f97dfe",5,"Highlight vs normal A","DISCOVER","FLOOR","Study1","U","JOL",3315,"15",1503,"",0,0
"5f045318065b0a04830ba148",5,"Highlight vs normal A","DISCOVER","FLOOR","Study1","U","JOL_H",4570,"5",3208,"",0,0
"5f09ae1800d387244cd6a16f",5,"Highlight vs normal A","DISCOVER","FLOOR","Study1","U","JOL_H",7845,"5",2453,"",0,0
"w968356_cj",5,"Highlight vs normal A","DISCOVER","FLOOR","Study1","U","JOL",1616,"6",1646,"find",22.222222222222,0
"5dcd935ebc9b97000b9d506d",5,"Highlight vs normal A","DISCUSSION","TALK","Study1","F","JOL_H",2436,"70",1194,"",0,0
"5dfeb647c0b81fb457299d05",5,"Highlight vs normal A","DISCUSSION","TALK","Study1","F","JOL_H",2124,"90",3683,"DEBATE",20,0
"5e65408fdf313c2bcfa6e24f",5,"Highlight vs normal A","DISCUSSION","TALK","Study1","F","JOL",1388,"100",3884,"talk",100,100
"5e8fe6a309881f2ee83521f5",5,"Highlight vs normal A","DISCUSSION","TALK","Study1","F","JOL_H",5540,"92",6883,"",0,0
"5eb47a217761382d66d1fe63",5,"Highlight vs normal A","DISCUSSION","TALK","Study1","F","JOL_H",2903,"78",5287,"Conversation",12.5,0
"5ebc466264fea60774387e75",5,"Highlight vs normal A","DISCUSSION","TALK","Study1","F","JOL",2422,"50",2370,"talk",100,100
"5ebd841ddea21b08a0aa3057",5,"Highlight vs normal A","DISCUSSION","TALK","Study1","F","JOL_H",10691,"76",4561,"TALK",100,100
"5f021571f119a138b3f33aab",5,"Highlight vs normal A","DISCUSSION","TALK","Study1","F","JOL_H",2037,"50",2441,"TALK",100,100
"5f0285dc9ae0b911b5f97dfe",5,"Highlight vs normal A","DISCUSSION","TALK","Study1","F","JOL",7404,"70",1575,"",0,0
"5f045318065b0a04830ba148",5,"Highlight vs normal A","DISCUSSION","TALK","Study1","F","JOL_H",6876,"20",4530,"",0,0
"5f09ae1800d387244cd6a16f",5,"Highlight vs normal A","DISCUSSION","TALK","Study1","F","JOL",3660,"95",13528,"talk",100,100
"w968356_cj",5,"Highlight vs normal A","DISCUSSION","TALK","Study1","F","JOL",1601,"100",4128,"board",22.222222222222,0
"5dcd935ebc9b97000b9d506d",5,"Highlight vs normal A","DRINK","SIP","Study1","B","JOL",11894,"80",1273,"",0,0
"5dfeb647c0b81fb457299d05",5,"Highlight vs normal A","DRINK","SIP","Study1","B","JOL",3890,"55",1488,"SIP",100,100
"5e65408fdf313c2bcfa6e24f",5,"Highlight vs normal A","DRINK","SIP","Study1","B","JOL",1540,"100",2245,"sip",100,100
"5e8fe6a309881f2ee83521f5",5,"Highlight vs normal A","DRINK","SIP","Study1","B","JOL",4535,"54",7298,"water",0,0
"5eb47a217761382d66d1fe63",5,"Highlight vs normal A","DRINK","SIP","Study1","B","JOL",4145,"90",5111,"water",0,0
"5ebc466264fea60774387e75",5,"Highlight vs normal A","DRINK","SIP","Study1","B","JOL",5047,"70",1353,"",0,0
"5ebd841ddea21b08a0aa3057",5,"Highlight vs normal A","DRINK","SIP","Study1","B","JOL_H",12366,"36",4026,"SIP",100,100
"5f021571f119a138b3f33aab",5,"Highlight vs normal A","DRINK","SIP","Study1","B","JOL_H",2934,"40",2593,"",0,0
"5f0285dc9ae0b911b5f97dfe",5,"Highlight vs normal A","DRINK","SIP","Study1","B","JOL",6775,"60",2131,"",0,0
"5f045318065b0a04830ba148",5,"Highlight vs normal A","DRINK","SIP","Study1","B","JOL",3618,"35",9302,"",0,0
"5f09ae1800d387244cd6a16f",5,"Highlight vs normal A","DRINK","SIP","Study1","B","JOL_H",3581,"45",4388,"",0,0
"w968356_cj",5,"Highlight vs normal A","DRINK","SIP","Study1","B","JOL",932,"34",4111,"beverage",0,0
"5dcd935ebc9b97000b9d506d",5,"Highlight vs normal A","DUE","ASSIGNMENT","Study1","S","JOL_H",6652,"50",2071,"",0,0
"5dfeb647c0b81fb457299d05",5,"Highlight vs normal A","DUE","ASSIGNMENT","Study1","S","JOL_H",5838,"90",3405,"ASSIGNMENT",100,100
"5e65408fdf313c2bcfa6e24f",5,"Highlight vs normal A","DUE","ASSIGNMENT","Study1","S","JOL_H",2894,"0",4658,"assaignment",95.238095238095,100
"5e8fe6a309881f2ee83521f5",5,"Highlight vs normal A","DUE","ASSIGNMENT","Study1","S","JOL",6023,"100",4456,"Assignment",100,100
"5eb47a217761382d66d1fe63",5,"Highlight vs normal A","DUE","ASSIGNMENT","Study1","S","JOL_H",589,"34",5437,"Assignment",100,100
"5ebc466264fea60774387e75",5,"Highlight vs normal A","DUE","ASSIGNMENT","Study1","S","JOL",3840,"30",956,"",0,0
"5ebd841ddea21b08a0aa3057",5,"Highlight vs normal A","DUE","ASSIGNMENT","Study1","S","JOL_H",16465,"60",4937,"ASSIGNMENT ",100,100
"5f021571f119a138b3f33aab",5,"Highlight vs normal A","DUE","ASSIGNMENT","Study1","S","JOL_H",1905,"80",6043,"ASSIGNMENT",100,100
"5f0285dc9ae0b911b5f97dfe",5,"Highlight vs normal A","DUE","ASSIGNMENT","Study1","S","JOL_H",3083,"100",5660,"assignment",100,100
"5f045318065b0a04830ba148",5,"Highlight vs normal A","DUE","ASSIGNMENT","Study1","S","JOL",6765,"35",1320,"",0,0
"5f09ae1800d387244cd6a16f",5,"Highlight vs normal A","DUE","ASSIGNMENT","Study1","S","JOL_H",2511,"90",5992,"assingment",90,100
"w968356_cj",5,"Highlight vs normal A","DUE","ASSIGNMENT","Study1","S","JOL_H",1221,"8",3675,"assignment",100,100
"5dcd935ebc9b97000b9d506d",5,"Highlight vs normal A","DUMP","WASTE","Study1","S","JOL",2309,"70",27293,"",0,0
"5dfeb647c0b81fb457299d05",5,"Highlight vs normal A","DUMP","WASTE","Study1","S","JOL_H",5027,"35",7600,"RUBBISH",16.666666666667,0
"5e65408fdf313c2bcfa6e24f",5,"Highlight vs normal A","DUMP","WASTE","Study1","S","JOL_H",1879,"0",3791,"",0,0
"5e8fe6a309881f2ee83521f5",5,"Highlight vs normal A","DUMP","WASTE","Study1","S","JOL",22400,"94",5191,"Fire",22.222222222222,0
"5eb47a217761382d66d1fe63",5,"Highlight vs normal A","DUMP","WASTE","Study1","S","JOL_H",909,"23",8085,"upcycle",16.666666666667,0
"5ebc466264fea60774387e75",5,"Highlight vs normal A","DUMP","WASTE","Study1","S","JOL_H",2439,"60",1252,"",0,0
"5ebd841ddea21b08a0aa3057",5,"Highlight vs normal A","DUMP","WASTE","Study1","S","JOL_H",13772,"76",2705,"WASTE",100,100
"5f021571f119a138b3f33aab",5,"Highlight vs normal A","DUMP","WASTE","Study1","S","JOL_H",3842,"30",2350,"WASTE",100,100
"5f0285dc9ae0b911b5f97dfe",5,"Highlight vs normal A","DUMP","WASTE","Study1","S","JOL_H",12442,"40",3018,"waste",100,100
"5f045318065b0a04830ba148",5,"Highlight vs normal A","DUMP","WASTE","Study1","S","JOL_H",4945,"15",8915,"bin",0,0
"5f09ae1800d387244cd6a16f",5,"Highlight vs normal A","DUMP","WASTE","Study1","S","JOL_H",3872,"95",5262,"",0,0
"w968356_cj",5,"Highlight vs normal A","DUMP","WASTE","Study1","S","JOL_H",71,NA,2272,"truck",20,0
"5dcd935ebc9b97000b9d506d",5,"Highlight vs normal A","EDITOR","NEWS","Study1","F","JOL_H",34737,"60",1279,"",0,0
"5dfeb647c0b81fb457299d05",5,"Highlight vs normal A","EDITOR","NEWS","Study1","F","JOL",4994,"40",3817,"DIRECTOR",16.666666666667,0
"5e65408fdf313c2bcfa6e24f",5,"Highlight vs normal A","EDITOR","NEWS","Study1","F","JOL_H",7470,"0",1026,"",0,0
"5e8fe6a309881f2ee83521f5",5,"Highlight vs normal A","EDITOR","NEWS","Study1","F","JOL",8505,"89",5449,"magazine",33.333333333333,0
"5eb47a217761382d66d1fe63",5,"Highlight vs normal A","EDITOR","NEWS","Study1","F","JOL_H",1903,"78",13718,"producer",16.666666666667,0
"5ebc466264fea60774387e75",5,"Highlight vs normal A","EDITOR","NEWS","Study1","F","JOL",3435,"30",5646,"",0,0
"5ebd841ddea21b08a0aa3057",5,"Highlight vs normal A","EDITOR","NEWS","Study1","F","JOL",8958,"41",2690,"NEWS",100,100
"5f021571f119a138b3f33aab",5,"Highlight vs normal A","EDITOR","NEWS","Study1","F","JOL_H",1771,"90",3603,"NEWSPAPER",61.538461538462,0
"5f0285dc9ae0b911b5f97dfe",5,"Highlight vs normal A","EDITOR","NEWS","Study1","F","JOL_H",5187,"40",1810,"",0,0
"5f045318065b0a04830ba148",5,"Highlight vs normal A","EDITOR","NEWS","Study1","F","JOL_H",3870,"5",8518,"newspaper",61.538461538462,0
"5f09ae1800d387244cd6a16f",5,"Highlight vs normal A","EDITOR","NEWS","Study1","F","JOL",7553,"55",10068,"",0,0
"w968356_cj",5,"Highlight vs normal A","EDITOR","NEWS","Study1","F","JOL_H",1737,"6",2286,"writer",20,0
"5dcd935ebc9b97000b9d506d",5,"Highlight vs normal A","FIRE","BLAZE","Study1","B","JOL",2980,"70",2107,"",0,0
"5dfeb647c0b81fb457299d05",5,"Highlight vs normal A","FIRE","BLAZE","Study1","B","JOL",2432,"50",5158,"BLAZE",100,100
"5e65408fdf313c2bcfa6e24f",5,"Highlight vs normal A","FIRE","BLAZE","Study1","B","JOL",1520,"100",4148,"hot",0,0
"5e8fe6a309881f2ee83521f5",5,"Highlight vs normal A","FIRE","BLAZE","Study1","B","JOL_H",4804,"100",2965,"spread",18.181818181818,0
"5eb47a217761382d66d1fe63",5,"Highlight vs normal A","FIRE","BLAZE","Study1","B","JOL_H",1674,"90",5691,"blaze",100,100
"5ebc466264fea60774387e75",5,"Highlight vs normal A","FIRE","BLAZE","Study1","B","JOL",3507,"50",6726,"",0,0
"5ebd841ddea21b08a0aa3057",5,"Highlight vs normal A","FIRE","BLAZE","Study1","B","JOL_H",9926,"68",2908,"BLAZE",100,100
"5f021571f119a138b3f33aab",5,"Highlight vs normal A","FIRE","BLAZE","Study1","B","JOL_H",4069,"50",2347,"",0,0
"5f0285dc9ae0b911b5f97dfe",5,"Highlight vs normal A","FIRE","BLAZE","Study1","B","JOL_H",4154,"80",2752,"blaze",100,100
"5f045318065b0a04830ba148",5,"Highlight vs normal A","FIRE","BLAZE","Study1","B","JOL",4835,"40",5175,"blaze",100,100
"5f09ae1800d387244cd6a16f",5,"Highlight vs normal A","FIRE","BLAZE","Study1","B","JOL_H",2357,"85",7019,"",0,0
"w968356_cj",5,"Highlight vs normal A","FIRE","BLAZE","Study1","B","JOL",6877,"7",2090,"house",20,0
"5dcd935ebc9b97000b9d506d",5,"Highlight vs normal A","FIX","HAND","Study1","U","JOL_H",4345,"50",1077,"",0,0
"5dfeb647c0b81fb457299d05",5,"Highlight vs normal A","FIX","HAND","Study1","U","JOL",2026,"20",3808,"STRONG",20,0
"5e65408fdf313c2bcfa6e24f",5,"Highlight vs normal A","FIX","HAND","Study1","U","JOL",1130,"0",2191,"hand",100,100
"5e8fe6a309881f2ee83521f5",5,"Highlight vs normal A","FIX","HAND","Study1","U","JOL",15838,"2",4852,"break",22.222222222222,0
"5eb47a217761382d66d1fe63",5,"Highlight vs normal A","FIX","HAND","Study1","U","JOL",1468,"34",2295,"it",0,0
"5ebc466264fea60774387e75",5,"Highlight vs normal A","FIX","HAND","Study1","U","JOL_H",5653,"30",970,"",0,0
"5ebd841ddea21b08a0aa3057",5,"Highlight vs normal A","FIX","HAND","Study1","U","JOL",10686,"19",1981,"HAND",100,100
"5f021571f119a138b3f33aab",5,"Highlight vs normal A","FIX","HAND","Study1","U","JOL",2290,"20",1164,"",0,0
"5f0285dc9ae0b911b5f97dfe",5,"Highlight vs normal A","FIX","HAND","Study1","U","JOL",5043,"35",1491,"",0,0
"5f045318065b0a04830ba148",5,"Highlight vs normal A","FIX","HAND","Study1","U","JOL_H",4838,"5",1249,"",0,0
"5f09ae1800d387244cd6a16f",5,"Highlight vs normal A","FIX","HAND","Study1","U","JOL_H",3723,"20",3706,"",0,0
"w968356_cj",5,"Highlight vs normal A","FIX","HAND","Study1","U","JOL_H",1323,"23",1765,"broke",0,0
"5dcd935ebc9b97000b9d506d",5,"Highlight vs normal A","FULL","ENOUGH","Study1","B","JOL",3056,"6",654,"",0,0
"5dfeb647c0b81fb457299d05",5,"Highlight vs normal A","FULL","ENOUGH","Study1","B","JOL_H",2433,"30",2655,"ENOUGH",100,100
"5e65408fdf313c2bcfa6e24f",5,"Highlight vs normal A","FULL","ENOUGH","Study1","B","JOL_H",1435,"0",3025,"enough",100,100
"5e8fe6a309881f2ee83521f5",5,"Highlight vs normal A","FULL","ENOUGH","Study1","B","JOL",10484,"93",8619,"empty",18.181818181818,0
"5eb47a217761382d66d1fe63",5,"Highlight vs normal A","FULL","ENOUGH","Study1","B","JOL",985,"97",4598,"Empty",18.181818181818,0
"5ebc466264fea60774387e75",5,"Highlight vs normal A","FULL","ENOUGH","Study1","B","JOL_H",7004,"10",2918,"enough",100,100
"5ebd841ddea21b08a0aa3057",5,"Highlight vs normal A","FULL","ENOUGH","Study1","B","JOL",21613,"42",3367,"ENOUGH",100,100
"5f021571f119a138b3f33aab",5,"Highlight vs normal A","FULL","ENOUGH","Study1","B","JOL",3786,"40",3592,"STOMACH",30.769230769231,0
"5f0285dc9ae0b911b5f97dfe",5,"Highlight vs normal A","FULL","ENOUGH","Study1","B","JOL_H",3642,"20",2154,"",0,0
"5f045318065b0a04830ba148",5,"Highlight vs normal A","FULL","ENOUGH","Study1","B","JOL",5229,"10",1681,"",0,0
"5f09ae1800d387244cd6a16f",5,"Highlight vs normal A","FULL","ENOUGH","Study1","B","JOL_H",2961,"99",3214,"",0,0
"w968356_cj",5,"Highlight vs normal A","FULL","ENOUGH","Study1","B","JOL_H",1380,"98",3692,"empty",18.181818181818,0
"5dcd935ebc9b97000b9d506d",5,"Highlight vs normal A","GEOLOGY","ROCK","Study1","F","JOL",4073,"90",2168,"ROCK",100,100
"5dfeb647c0b81fb457299d05",5,"Highlight vs normal A","GEOLOGY","ROCK","Study1","F","JOL_H",5193,"90",1529,"ROCK",100,100
"5e65408fdf313c2bcfa6e24f",5,"Highlight vs normal A","GEOLOGY","ROCK","Study1","F","JOL_H",1438,"0",944,"",0,0
"5e8fe6a309881f2ee83521f5",5,"Highlight vs normal A","GEOLOGY","ROCK","Study1","F","JOL_H",22681,"88",3581,"Rock",100,100
"5eb47a217761382d66d1fe63",5,"Highlight vs normal A","GEOLOGY","ROCK","Study1","F","JOL",525,"67",2899,"rocks",88.888888888889,100
"5ebc466264fea60774387e75",5,"Highlight vs normal A","GEOLOGY","ROCK","Study1","F","JOL_H",3770,"50",3409,"rock",100,100
"5ebd841ddea21b08a0aa3057",5,"Highlight vs normal A","GEOLOGY","ROCK","Study1","F","JOL_H",10047,"39",2520,"ROCK",100,100
"5f021571f119a138b3f33aab",5,"Highlight vs normal A","GEOLOGY","ROCK","Study1","F","JOL",2219,"90",2628,"ROCK",100,100
"5f0285dc9ae0b911b5f97dfe",5,"Highlight vs normal A","GEOLOGY","ROCK","Study1","F","JOL",4159,"85",3856,"rock",100,100
"5f045318065b0a04830ba148",5,"Highlight vs normal A","GEOLOGY","ROCK","Study1","F","JOL",7517,"75",2917,"rock",100,100
"5f09ae1800d387244cd6a16f",5,"Highlight vs normal A","GEOLOGY","ROCK","Study1","F","JOL_H",3250,"95",2399,"rock",100,100
"w968356_cj",5,"Highlight vs normal A","GEOLOGY","ROCK","Study1","F","JOL_H",1737,"66",4241,"rock",100,100
"5dcd935ebc9b97000b9d506d",5,"Highlight vs normal A","GREAT","FANTASTIC","Study1","B","JOL",2191,"80",1491,"",0,0
"5dfeb647c0b81fb457299d05",5,"Highlight vs normal A","GREAT","FANTASTIC","Study1","B","JOL",3126,"90",7598,"FANTASTIC",100,100
"5e65408fdf313c2bcfa6e24f",5,"Highlight vs normal A","GREAT","FANTASTIC","Study1","B","JOL",2400,"0",4517,"fantastic",100,100
"5e8fe6a309881f2ee83521f5",5,"Highlight vs normal A","GREAT","FANTASTIC","Study1","B","JOL_H",8243,"92",6766,"Fantastic",100,100
"5eb47a217761382d66d1fe63",5,"Highlight vs normal A","GREAT","FANTASTIC","Study1","B","JOL",4781,"32",4378,"Super",14.285714285714,0
"5ebc466264fea60774387e75",5,"Highlight vs normal A","GREAT","FANTASTIC","Study1","B","JOL",3887,"45",1845,"",0,0
"5ebd841ddea21b08a0aa3057",5,"Highlight vs normal A","GREAT","FANTASTIC","Study1","B","JOL",10290,"66",5254,"FANTASTIC",100,100
"5f021571f119a138b3f33aab",5,"Highlight vs normal A","GREAT","FANTASTIC","Study1","B","JOL",3094,"65",1866,"",0,0
"5f0285dc9ae0b911b5f97dfe",5,"Highlight vs normal A","GREAT","FANTASTIC","Study1","B","JOL_H",6198,"65",5635,"fantastic",100,100
"5f045318065b0a04830ba148",5,"Highlight vs normal A","GREAT","FANTASTIC","Study1","B","JOL_H",9194,"30",2382,"",0,0
"5f09ae1800d387244cd6a16f",5,"Highlight vs normal A","GREAT","FANTASTIC","Study1","B","JOL",3554,"80",4228,"",0,0
"w968356_cj",5,"Highlight vs normal A","GREAT","FANTASTIC","Study1","B","JOL_H",2944,"45",14319,"rumor",0,0
"5dcd935ebc9b97000b9d506d",5,"Highlight vs normal A","GRILL","BAR","Study1","S","JOL_H",3662,"70",3485,"",0,0
"5dfeb647c0b81fb457299d05",5,"Highlight vs normal A","GRILL","BAR","Study1","S","JOL",2353,"5",2696,"HOT",0,0
"5e65408fdf313c2bcfa6e24f",5,"Highlight vs normal A","GRILL","BAR","Study1","S","JOL",5944,"0",2127,"bar",100,100
"5e8fe6a309881f2ee83521f5",5,"Highlight vs normal A","GRILL","BAR","Study1","S","JOL",7796,"36",2065,"bar",100,100
"5eb47a217761382d66d1fe63",5,"Highlight vs normal A","GRILL","BAR","Study1","S","JOL",600,"76",10867,"Burger",44.444444444444,0
"5ebc466264fea60774387e75",5,"Highlight vs normal A","GRILL","BAR","Study1","S","JOL",1642,"1",3942,"",0,0
"5ebd841ddea21b08a0aa3057",5,"Highlight vs normal A","GRILL","BAR","Study1","S","JOL",9787,"74",1982,"BAR",100,100
"5f021571f119a138b3f33aab",5,"Highlight vs normal A","GRILL","BAR","Study1","S","JOL",2193,"40",1973,"",0,0
"5f0285dc9ae0b911b5f97dfe",5,"Highlight vs normal A","GRILL","BAR","Study1","S","JOL_H",3962,"55",1193,"",0,0
"5f045318065b0a04830ba148",5,"Highlight vs normal A","GRILL","BAR","Study1","S","JOL_H",3151,"15",4214,"bar",100,100
"5f09ae1800d387244cd6a16f",5,"Highlight vs normal A","GRILL","BAR","Study1","S","JOL_H",3533,"15",10300,"food?",0,0
"w968356_cj",5,"Highlight vs normal A","GRILL","BAR","Study1","S","JOL",2069,"7",1882,"mate",28.571428571429,0
"5dcd935ebc9b97000b9d506d",5,"Highlight vs normal A","HAPPY","CAR","Study1","U","JOL_H",1880,"50",2708,"",0,0
"5dfeb647c0b81fb457299d05",5,"Highlight vs normal A","HAPPY","CAR","Study1","U","JOL",4228,"60",2402,"SAD",33.333333333333,0
"5e65408fdf313c2bcfa6e24f",5,"Highlight vs normal A","HAPPY","CAR","Study1","U","JOL",2013,"0",2361,"",0,0
"5e8fe6a309881f2ee83521f5",5,"Highlight vs normal A","HAPPY","CAR","Study1","U","JOL_H",6577,"15",5277,"",0,0
"5eb47a217761382d66d1fe63",5,"Highlight vs normal A","HAPPY","CAR","Study1","U","JOL",756,"67",3069,"sad",33.333333333333,0
"5ebc466264fea60774387e75",5,"Highlight vs normal A","HAPPY","CAR","Study1","U","JOL",1958,"1",2719,"",0,0
"5ebd841ddea21b08a0aa3057",5,"Highlight vs normal A","HAPPY","CAR","Study1","U","JOL_H",10381,"44",4782,"CAR",100,100
"5f021571f119a138b3f33aab",5,"Highlight vs normal A","HAPPY","CAR","Study1","U","JOL",1846,"5",1698,"CA",80,0
"5f0285dc9ae0b911b5f97dfe",5,"Highlight vs normal A","HAPPY","CAR","Study1","U","JOL",5083,"35",2153,"car",100,100
"5f045318065b0a04830ba148",5,"Highlight vs normal A","HAPPY","CAR","Study1","U","JOL",6255,"1",1087,"",0,0
"5f09ae1800d387244cd6a16f",5,"Highlight vs normal A","HAPPY","CAR","Study1","U","JOL_H",3114,"20",7422,"",0,0
"w968356_cj",5,"Highlight vs normal A","HAPPY","CAR","Study1","U","JOL",2068,"88",18408,"sad",33.333333333333,0
"5dcd935ebc9b97000b9d506d",5,"Highlight vs normal A","HEIGHT","GROWTH","Study1","B","JOL_H",1906,"80",1643,"",0,0
"5dfeb647c0b81fb457299d05",5,"Highlight vs normal A","HEIGHT","GROWTH","Study1","B","JOL_H",2244,"40",2026,"WEIGHT",33.333333333333,0
"5e65408fdf313c2bcfa6e24f",5,"Highlight vs normal A","HEIGHT","GROWTH","Study1","B","JOL",1645,"100",5330,"weight",33.333333333333,0
"5e8fe6a309881f2ee83521f5",5,"Highlight vs normal A","HEIGHT","GROWTH","Study1","B","JOL_H",15346,"98",3601,"grow",80,0
"5eb47a217761382d66d1fe63",5,"Highlight vs normal A","HEIGHT","GROWTH","Study1","B","JOL_H",663,"76",2748,"weight",33.333333333333,0
"5ebc466264fea60774387e75",5,"Highlight vs normal A","HEIGHT","GROWTH","Study1","B","JOL",3316,"60",3019,"growth",100,100
"5ebd841ddea21b08a0aa3057",5,"Highlight vs normal A","HEIGHT","GROWTH","Study1","B","JOL",11712,"54",2965,"GROWTH",100,100
"5f021571f119a138b3f33aab",5,"Highlight vs normal A","HEIGHT","GROWTH","Study1","B","JOL_H",2099,"60",2219,"TALL",20,0
"5f0285dc9ae0b911b5f97dfe",5,"Highlight vs normal A","HEIGHT","GROWTH","Study1","B","JOL_H",3117,"90",3139,"growth",100,100
"5f045318065b0a04830ba148",5,"Highlight vs normal A","HEIGHT","GROWTH","Study1","B","JOL",3501,"5",2515,"",0,0
"5f09ae1800d387244cd6a16f",5,"Highlight vs normal A","HEIGHT","GROWTH","Study1","B","JOL_H",5706,"60",2186,"",0,0
"w968356_cj",5,"Highlight vs normal A","HEIGHT","GROWTH","Study1","B","JOL",2479,"78",1519,"weight",33.333333333333,0
"5dcd935ebc9b97000b9d506d",5,"Highlight vs normal A","HERD","COW","Study1","F","JOL",2297,"80",2547,"COW",100,100
"5dfeb647c0b81fb457299d05",5,"Highlight vs normal A","HERD","COW","Study1","F","JOL",2604,"10",1528,"COW",100,100
"5e65408fdf313c2bcfa6e24f",5,"Highlight vs normal A","HERD","COW","Study1","F","JOL_H",1415,"0",2024,"cow",100,100
"5e8fe6a309881f2ee83521f5",5,"Highlight vs normal A","HERD","COW","Study1","F","JOL_H",4997,"100",1678,"Cow",100,100
"5eb47a217761382d66d1fe63",5,"Highlight vs normal A","HERD","COW","Study1","F","JOL_H",667,"45",4240,"flock",25,0
"5ebc466264fea60774387e75",5,"Highlight vs normal A","HERD","COW","Study1","F","JOL_H",4726,"60",2638,"cow",100,100
"5ebd841ddea21b08a0aa3057",5,"Highlight vs normal A","HERD","COW","Study1","F","JOL",10627,"45",3151,"COW",100,100
"5f021571f119a138b3f33aab",5,"Highlight vs normal A","HERD","COW","Study1","F","JOL_H",1779,"60",1975,"COWS",85.714285714286,100
"5f0285dc9ae0b911b5f97dfe",5,"Highlight vs normal A","HERD","COW","Study1","F","JOL_H",6482,"55",4298,"cow",100,100
"5f045318065b0a04830ba148",5,"Highlight vs normal A","HERD","COW","Study1","F","JOL_H",3504,"55",4539,"cows",85.714285714286,100
"5f09ae1800d387244cd6a16f",5,"Highlight vs normal A","HERD","COW","Study1","F","JOL",4500,"55",3353,"",0,0
"w968356_cj",5,"Highlight vs normal A","HERD","COW","Study1","F","JOL",3674,"87",1430,"cow",100,100
"5dcd935ebc9b97000b9d506d",5,"Highlight vs normal A","HIDE","SICK","Study1","U","JOL_H",2306,"50",13090,"",0,0
"5dfeb647c0b81fb457299d05",5,"Highlight vs normal A","HIDE","SICK","Study1","U","JOL",4498,"15",3211,"SEEK",50,0
"5e65408fdf313c2bcfa6e24f",5,"Highlight vs normal A","HIDE","SICK","Study1","U","JOL_H",2173,"0",7451,"fear",0,0
"5e8fe6a309881f2ee83521f5",5,"Highlight vs normal A","HIDE","SICK","Study1","U","JOL_H",8035,"11",2971,"Seek",50,0
"5eb47a217761382d66d1fe63",5,"Highlight vs normal A","HIDE","SICK","Study1","U","JOL",617,"45",5684,"find",25,0
"5ebc466264fea60774387e75",5,"Highlight vs normal A","HIDE","SICK","Study1","U","JOL",5654,"2",6037,"",0,0
"5ebd841ddea21b08a0aa3057",5,"Highlight vs normal A","HIDE","SICK","Study1","U","JOL",22852,"41",5568,"SICK",100,100
"5f021571f119a138b3f33aab",5,"Highlight vs normal A","HIDE","SICK","Study1","U","JOL_H",4505,"10",2900,"SICK",100,100
"5f0285dc9ae0b911b5f97dfe",5,"Highlight vs normal A","HIDE","SICK","Study1","U","JOL",6068,"10",3136,"scare",44.444444444444,0
"5f045318065b0a04830ba148",5,"Highlight vs normal A","HIDE","SICK","Study1","U","JOL",6473,"40",1251,"",0,0
"5f09ae1800d387244cd6a16f",5,"Highlight vs normal A","HIDE","SICK","Study1","U","JOL",6998,"5",4623,"out",0,0
"w968356_cj",5,"Highlight vs normal A","HIDE","SICK","Study1","U","JOL_H",1848,"76",1678,"seek",50,0
"5dcd935ebc9b97000b9d506d",5,"Highlight vs normal A","HONEY","BEE","Study1","S","JOL_H",2136,"90",3128,"Bee",100,100
"5dfeb647c0b81fb457299d05",5,"Highlight vs normal A","HONEY","BEE","Study1","S","JOL",1926,"100",1597,"BEE",100,100
"5e65408fdf313c2bcfa6e24f",5,"Highlight vs normal A","HONEY","BEE","Study1","S","JOL",1444,"100",2033,"bee",100,100
"5e8fe6a309881f2ee83521f5",5,"Highlight vs normal A","HONEY","BEE","Study1","S","JOL_H",13159,"95",1654,"bee",100,100
"5eb47a217761382d66d1fe63",5,"Highlight vs normal A","HONEY","BEE","Study1","S","JOL",2144,"90",3420,"Bee",100,100
"5ebc466264fea60774387e75",5,"Highlight vs normal A","HONEY","BEE","Study1","S","JOL_H",3975,"80",5163,"bee",100,100
"5ebd841ddea21b08a0aa3057",5,"Highlight vs normal A","HONEY","BEE","Study1","S","JOL",7453,"83",2067,"BEE",100,100
"5f021571f119a138b3f33aab",5,"Highlight vs normal A","HONEY","BEE","Study1","S","JOL_H",2596,"100",1588,"BEE",100,100
"5f0285dc9ae0b911b5f97dfe",5,"Highlight vs normal A","HONEY","BEE","Study1","S","JOL",4586,"90",8097,"bee",100,100
"5f045318065b0a04830ba148",5,"Highlight vs normal A","HONEY","BEE","Study1","S","JOL",3722,"45",2714,"bee",100,100
"5f09ae1800d387244cd6a16f",5,"Highlight vs normal A","HONEY","BEE","Study1","S","JOL_H",2374,"95",1870,"bee",100,100
"w968356_cj",5,"Highlight vs normal A","HONEY","BEE","Study1","S","JOL_H",1760,"43",2127,"badger",44.444444444444,0
"5dcd935ebc9b97000b9d506d",5,"Highlight vs normal A","HORNET","STING","Study1","F","JOL_H",4031,"80",4022,"STING",100,100
"5dfeb647c0b81fb457299d05",5,"Highlight vs normal A","HORNET","STING","Study1","F","JOL_H",2899,"10",3013,"STING",100,100
"5e65408fdf313c2bcfa6e24f",5,"Highlight vs normal A","HORNET","STING","Study1","F","JOL_H",1711,"0",2237,"bee",0,0
"5e8fe6a309881f2ee83521f5",5,"Highlight vs normal A","HORNET","STING","Study1","F","JOL",16508,"68",9553,"Wasp",22.222222222222,0
"5eb47a217761382d66d1fe63",5,"Highlight vs normal A","HORNET","STING","Study1","F","JOL_H",1708,"65",3658,"WASP",22.222222222222,0
"5ebc466264fea60774387e75",5,"Highlight vs normal A","HORNET","STING","Study1","F","JOL_H",3576,"60",5041,"sting",100,100
"5ebd841ddea21b08a0aa3057",5,"Highlight vs normal A","HORNET","STING","Study1","F","JOL_H",10006,"68",8175,"STING",100,100
"5f021571f119a138b3f33aab",5,"Highlight vs normal A","HORNET","STING","Study1","F","JOL",2305,"80",3440,"BEE",0,0
"5f0285dc9ae0b911b5f97dfe",5,"Highlight vs normal A","HORNET","STING","Study1","F","JOL",2768,"95",4926,"sting",100,100
"5f045318065b0a04830ba148",5,"Highlight vs normal A","HORNET","STING","Study1","F","JOL_H",7208,"50",4324,"sting",100,100
"5f09ae1800d387244cd6a16f",5,"Highlight vs normal A","HORNET","STING","Study1","F","JOL",2698,"50",5458,"wasp",22.222222222222,0
"w968356_cj",5,"Highlight vs normal A","HORNET","STING","Study1","F","JOL",2901,"76",28970,"bee",0,0
"5dcd935ebc9b97000b9d506d",5,"Highlight vs normal A","HOT","CHILI","Study1","B","JOL_H",3066,"70",5107,"",0,0
"5dfeb647c0b81fb457299d05",5,"Highlight vs normal A","HOT","CHILI","Study1","B","JOL",5769,"85",1731,"CHILI",100,100
"5e65408fdf313c2bcfa6e24f",5,"Highlight vs normal A","HOT","CHILI","Study1","B","JOL_H",1401,"100",4788,"flames",18.181818181818,0
"5e8fe6a309881f2ee83521f5",5,"Highlight vs normal A","HOT","CHILI","Study1","B","JOL",5827,"93",2071,"",0,0
"5eb47a217761382d66d1fe63",5,"Highlight vs normal A","HOT","CHILI","Study1","B","JOL_H",691,"78",3010,"Cold",44.444444444444,0
"5ebc466264fea60774387e75",5,"Highlight vs normal A","HOT","CHILI","Study1","B","JOL",3263,"55",830,"",0,0
"5ebd841ddea21b08a0aa3057",5,"Highlight vs normal A","HOT","CHILI","Study1","B","JOL",13386,"86",6295,"",0,0
"5f021571f119a138b3f33aab",5,"Highlight vs normal A","HOT","CHILI","Study1","B","JOL",2176,"50",1637,"COLD",44.444444444444,0
"5f0285dc9ae0b911b5f97dfe",5,"Highlight vs normal A","HOT","CHILI","Study1","B","JOL",11193,"50",1538,"",0,0
"5f045318065b0a04830ba148",5,"Highlight vs normal A","HOT","CHILI","Study1","B","JOL",11084,"60",5006,"chili",100,100
"5f09ae1800d387244cd6a16f",5,"Highlight vs normal A","HOT","CHILI","Study1","B","JOL",3220,"70",3562,"",0,0
"w968356_cj",5,"Highlight vs normal A","HOT","CHILI","Study1","B","JOL_H",1352,"98",8473,"cold",44.444444444444,0
"5dcd935ebc9b97000b9d506d",5,"Highlight vs normal A","HUNGER","FAMINE","Study1","B","JOL_H",3253,"60",9204,"Digestion",26.666666666667,0
"5dfeb647c0b81fb457299d05",5,"Highlight vs normal A","HUNGER","FAMINE","Study1","B","JOL",2660,"100",3986,"FOOD",20,0
"5e65408fdf313c2bcfa6e24f",5,"Highlight vs normal A","HUNGER","FAMINE","Study1","B","JOL",2348,"0",2226,"",0,0
"5e8fe6a309881f2ee83521f5",5,"Highlight vs normal A","HUNGER","FAMINE","Study1","B","JOL",11198,"89",5966,"Famine ",100,100
"5eb47a217761382d66d1fe63",5,"Highlight vs normal A","HUNGER","FAMINE","Study1","B","JOL_H",644,"56",6008,"Famine",100,100
"5ebc466264fea60774387e75",5,"Highlight vs normal A","HUNGER","FAMINE","Study1","B","JOL_H",5962,"55",3613,"famine",100,100
"5ebd841ddea21b08a0aa3057",5,"Highlight vs normal A","HUNGER","FAMINE","Study1","B","JOL",11522,"28",3491,"FAMINE",100,100
"5f021571f119a138b3f33aab",5,"Highlight vs normal A","HUNGER","FAMINE","Study1","B","JOL_H",2707,"65",2397,"STOMACH",15.384615384615,0
"5f0285dc9ae0b911b5f97dfe",5,"Highlight vs normal A","HUNGER","FAMINE","Study1","B","JOL",3636,"85",2703,"",0,0
"5f045318065b0a04830ba148",5,"Highlight vs normal A","HUNGER","FAMINE","Study1","B","JOL_H",5058,"20",12045,"famine",100,100
"5f09ae1800d387244cd6a16f",5,"Highlight vs normal A","HUNGER","FAMINE","Study1","B","JOL_H",13218,"90",4586,"famine",100,100
"w968356_cj",5,"Highlight vs normal A","HUNGER","FAMINE","Study1","B","JOL",25813,"45",2418,"eat",22.222222222222,0
"5dcd935ebc9b97000b9d506d",5,"Highlight vs normal A","HYGIENE","CLEAN","Study1","F","JOL",2164,"80",1476,"",0,0
"5dfeb647c0b81fb457299d05",5,"Highlight vs normal A","HYGIENE","CLEAN","Study1","F","JOL_H",3880,"80",1696,"CLEAN",100,100
"5e65408fdf313c2bcfa6e24f",5,"Highlight vs normal A","HYGIENE","CLEAN","Study1","F","JOL",10584,"100",2807,"clean",100,100
"5e8fe6a309881f2ee83521f5",5,"Highlight vs normal A","HYGIENE","CLEAN","Study1","F","JOL",12085,"78",3401,"Clean",100,100
"5eb47a217761382d66d1fe63",5,"Highlight vs normal A","HYGIENE","CLEAN","Study1","F","JOL_H",4904,"90",6381,"clean",100,100
"5ebc466264fea60774387e75",5,"Highlight vs normal A","HYGIENE","CLEAN","Study1","F","JOL_H",3692,"40",3521,"",0,0
"5ebd841ddea21b08a0aa3057",5,"Highlight vs normal A","HYGIENE","CLEAN","Study1","F","JOL_H",17480,"61",3148,"CLEAN",100,100
"5f021571f119a138b3f33aab",5,"Highlight vs normal A","HYGIENE","CLEAN","Study1","F","JOL_H",3007,"80",2591,"CLEAN",100,100
"5f0285dc9ae0b911b5f97dfe",5,"Highlight vs normal A","HYGIENE","CLEAN","Study1","F","JOL",4946,"75",3515,"clean",100,100
"5f045318065b0a04830ba148",5,"Highlight vs normal A","HYGIENE","CLEAN","Study1","F","JOL_H",5832,"30",2612,"",0,0
"5f09ae1800d387244cd6a16f",5,"Highlight vs normal A","HYGIENE","CLEAN","Study1","F","JOL_H",2202,"95",2281,"clean",100,100
"w968356_cj",5,"Highlight vs normal A","HYGIENE","CLEAN","Study1","F","JOL",1490,"86",2859,"bath",22.222222222222,0
"5dcd935ebc9b97000b9d506d",5,"Highlight vs normal A","KEY","LATCH","Study1","B","JOL_H",3406,"50",3407,"",0,0
"5dfeb647c0b81fb457299d05",5,"Highlight vs normal A","KEY","LATCH","Study1","B","JOL",5305,"20",3124,"LATCH",100,100
"5e65408fdf313c2bcfa6e24f",5,"Highlight vs normal A","KEY","LATCH","Study1","B","JOL",13285,"0",1105,"",0,0
"5e8fe6a309881f2ee83521f5",5,"Highlight vs normal A","KEY","LATCH","Study1","B","JOL_H",5770,"43",3774,"latch",100,100
"5eb47a217761382d66d1fe63",5,"Highlight vs normal A","KEY","LATCH","Study1","B","JOL",2228,"87",3839,"DOOR",0,0
"5ebc466264fea60774387e75",5,"Highlight vs normal A","KEY","LATCH","Study1","B","JOL",2976,"40",2722,"latch",100,100
"5ebd841ddea21b08a0aa3057",5,"Highlight vs normal A","KEY","LATCH","Study1","B","JOL_H",11827,"46",2363,"LATCH",100,100
"5f021571f119a138b3f33aab",5,"Highlight vs normal A","KEY","LATCH","Study1","B","JOL_H",4100,"40",992,"",0,0
"5f0285dc9ae0b911b5f97dfe",5,"Highlight vs normal A","KEY","LATCH","Study1","B","JOL_H",5680,"55",3546,"",0,0
"5f045318065b0a04830ba148",5,"Highlight vs normal A","KEY","LATCH","Study1","B","JOL",5636,"5",4906,"door",0,0
"5f09ae1800d387244cd6a16f",5,"Highlight vs normal A","KEY","LATCH","Study1","B","JOL_H",4951,"60",5128,"card",22.222222222222,0
"w968356_cj",5,"Highlight vs normal A","KEY","LATCH","Study1","B","JOL",1390,"98",3270,"lock",44.444444444444,0
"5dcd935ebc9b97000b9d506d",5,"Highlight vs normal A","KIDNEY","LIVER","Study1","S","JOL",2161,"70",2973,"LIVER",100,100
"5dfeb647c0b81fb457299d05",5,"Highlight vs normal A","KIDNEY","LIVER","Study1","S","JOL",3023,"50",2123,"LIVER",100,100
"5e65408fdf313c2bcfa6e24f",5,"Highlight vs normal A","KIDNEY","LIVER","Study1","S","JOL_H",2643,"100",2155,"liver",100,100
"5e8fe6a309881f2ee83521f5",5,"Highlight vs normal A","KIDNEY","LIVER","Study1","S","JOL",4438,"77",3380,"Liver",100,100
"5eb47a217761382d66d1fe63",5,"Highlight vs normal A","KIDNEY","LIVER","Study1","S","JOL_H",2698,"2",2672,"bean",22.222222222222,0
"5ebc466264fea60774387e75",5,"Highlight vs normal A","KIDNEY","LIVER","Study1","S","JOL",4700,"50",3239,"liver",100,100
"5ebd841ddea21b08a0aa3057",5,"Highlight vs normal A","KIDNEY","LIVER","Study1","S","JOL",10451,"60",2382,"LIVER",100,100
"5f021571f119a138b3f33aab",5,"Highlight vs normal A","KIDNEY","LIVER","Study1","S","JOL",6459,"60",3486,"LIVER",100,100
"5f0285dc9ae0b911b5f97dfe",5,"Highlight vs normal A","KIDNEY","LIVER","Study1","S","JOL",7643,"75",3850,"digestion",28.571428571429,0
"5f045318065b0a04830ba148",5,"Highlight vs normal A","KIDNEY","LIVER","Study1","S","JOL",4821,"25",4867,"liver",100,100
"5f09ae1800d387244cd6a16f",5,"Highlight vs normal A","KIDNEY","LIVER","Study1","S","JOL",7167,"88",6285,"liver",100,100
"w968356_cj",5,"Highlight vs normal A","KIDNEY","LIVER","Study1","S","JOL_H",8657,"67",2923,"stone",20,0
"5dcd935ebc9b97000b9d506d",5,"Highlight vs normal A","KING","VASE","Study1","U","JOL_H",19479,"60",2158,"",0,0
"5dfeb647c0b81fb457299d05",5,"Highlight vs normal A","KING","VASE","Study1","U","JOL",2770,"5",1858,"VASE",100,100
"5e65408fdf313c2bcfa6e24f",5,"Highlight vs normal A","KING","VASE","Study1","U","JOL_H",1134,"0",3233,"",0,0
"5e8fe6a309881f2ee83521f5",5,"Highlight vs normal A","KING","VASE","Study1","U","JOL",9943,"1",8742,"",0,0
"5eb47a217761382d66d1fe63",5,"Highlight vs normal A","KING","VASE","Study1","U","JOL",632,"65",4997,"Prince",20,0
"5ebc466264fea60774387e75",5,"Highlight vs normal A","KING","VASE","Study1","U","JOL_H",1685,"1",2382,"",0,0
"5ebd841ddea21b08a0aa3057",5,"Highlight vs normal A","KING","VASE","Study1","U","JOL_H",14444,"24",2211,"VASE",100,100
"5f021571f119a138b3f33aab",5,"Highlight vs normal A","KING","VASE","Study1","U","JOL_H",2458,"10",2833,"VASE",100,100
"5f0285dc9ae0b911b5f97dfe",5,"Highlight vs normal A","KING","VASE","Study1","U","JOL",4755,"25",4417,"vase",100,100
"5f045318065b0a04830ba148",5,"Highlight vs normal A","KING","VASE","Study1","U","JOL_H",6776,"20",1337,"",0,0
"5f09ae1800d387244cd6a16f",5,"Highlight vs normal A","KING","VASE","Study1","U","JOL_H",5122,"0",3294,"",0,0
"w968356_cj",5,"Highlight vs normal A","KING","VASE","Study1","U","JOL_H",3906,"95",1540,"wueen",22.222222222222,0
"5dcd935ebc9b97000b9d506d",5,"Highlight vs normal A","LAW","ATTORNEY","Study1","B","JOL_H",4113,"70",5837,"Attorney",100,100
"5dfeb647c0b81fb457299d05",5,"Highlight vs normal A","LAW","ATTORNEY","Study1","B","JOL_H",4383,"10",2701,"ATTORNEY",100,100
"5e65408fdf313c2bcfa6e24f",5,"Highlight vs normal A","LAW","ATTORNEY","Study1","B","JOL",1414,"100",1626,"",0,0
"5e8fe6a309881f2ee83521f5",5,"Highlight vs normal A","LAW","ATTORNEY","Study1","B","JOL",6680,"95",6251,"Police",28.571428571429,0
"5eb47a217761382d66d1fe63",5,"Highlight vs normal A","LAW","ATTORNEY","Study1","B","JOL",1755,"89",6742,"illegal",13.333333333333,0
"5ebc466264fea60774387e75",5,"Highlight vs normal A","LAW","ATTORNEY","Study1","B","JOL",5366,"50",2142,"",0,0
"5ebd841ddea21b08a0aa3057",5,"Highlight vs normal A","LAW","ATTORNEY","Study1","B","JOL_H",10445,"69",5537,"ATTORNEY",100,100
"5f021571f119a138b3f33aab",5,"Highlight vs normal A","LAW","ATTORNEY","Study1","B","JOL",2108,"60",8326,"SHERIF",14.285714285714,0
"5f0285dc9ae0b911b5f97dfe",5,"Highlight vs normal A","LAW","ATTORNEY","Study1","B","JOL",4968,"60",3827,"attorney",100,100
"5f045318065b0a04830ba148",5,"Highlight vs normal A","LAW","ATTORNEY","Study1","B","JOL_H",26875,"45",6736,"atterny",80,100
"5f09ae1800d387244cd6a16f",5,"Highlight vs normal A","LAW","ATTORNEY","Study1","B","JOL",4371,"90",5029,"force",46.153846153846,0
"w968356_cj",5,"Highlight vs normal A","LAW","ATTORNEY","Study1","B","JOL_H",21126,"67",3182,"school",14.285714285714,0
"5dcd935ebc9b97000b9d506d",5,"Highlight vs normal A","LETTUCE","SALAD","Study1","S","JOL_H",3758,"80",9384,"",0,0
"5dfeb647c0b81fb457299d05",5,"Highlight vs normal A","LETTUCE","SALAD","Study1","S","JOL_H",5281,"90",1497,"SALAD",100,100
"5e65408fdf313c2bcfa6e24f",5,"Highlight vs normal A","LETTUCE","SALAD","Study1","S","JOL",2023,"100",4129,"salad",100,100
"5e8fe6a309881f2ee83521f5",5,"Highlight vs normal A","LETTUCE","SALAD","Study1","S","JOL",6302,"99",3042,"Salad",100,100
"5eb47a217761382d66d1fe63",5,"Highlight vs normal A","LETTUCE","SALAD","Study1","S","JOL",596,"76",5059,"leaf",44.444444444444,0
"5ebc466264fea60774387e75",5,"Highlight vs normal A","LETTUCE","SALAD","Study1","S","JOL_H",4796,"30",2173,"salad",100,100
"5ebd841ddea21b08a0aa3057",5,"Highlight vs normal A","LETTUCE","SALAD","Study1","S","JOL_H",7325,"87",4952,"SALAD",100,100
"5f021571f119a138b3f33aab",5,"Highlight vs normal A","LETTUCE","SALAD","Study1","S","JOL",2552,"80",2613,"SALAD",100,100
"5f0285dc9ae0b911b5f97dfe",5,"Highlight vs normal A","LETTUCE","SALAD","Study1","S","JOL_H",3857,"90",2689,"salad",100,100
"5f045318065b0a04830ba148",5,"Highlight vs normal A","LETTUCE","SALAD","Study1","S","JOL_H",8245,"34",6301,"",0,0
"5f09ae1800d387244cd6a16f",5,"Highlight vs normal A","LETTUCE","SALAD","Study1","S","JOL_H",3035,"80",13231,"salad",100,100
"w968356_cj",5,"Highlight vs normal A","LETTUCE","SALAD","Study1","S","JOL_H",1433,"23",1848,"salad",100,100
"5dcd935ebc9b97000b9d506d",5,"Highlight vs normal A","LIFT","WOMAN","Study1","U","JOL_H",11617,"40",1015,"",0,0
"5dfeb647c0b81fb457299d05",5,"Highlight vs normal A","LIFT","WOMAN","Study1","U","JOL",2861,"20",1519,"WOMAN",100,100
"5e65408fdf313c2bcfa6e24f",5,"Highlight vs normal A","LIFT","WOMAN","Study1","U","JOL_H",3843,"0",4458,"woman",100,100
"5e8fe6a309881f2ee83521f5",5,"Highlight vs normal A","LIFT","WOMAN","Study1","U","JOL_H",3071,"0",12341,"Bench",20,0
"5eb47a217761382d66d1fe63",5,"Highlight vs normal A","LIFT","WOMAN","Study1","U","JOL_H",271,NA,12589,"Elavator",15.384615384615,0
"5ebc466264fea60774387e75",5,"Highlight vs normal A","LIFT","WOMAN","Study1","U","JOL",3962,"20",1251,"",0,0
"5ebd841ddea21b08a0aa3057",5,"Highlight vs normal A","LIFT","WOMAN","Study1","U","JOL_H",13260,"38",6364,"WOMAN",100,100
"5f021571f119a138b3f33aab",5,"Highlight vs normal A","LIFT","WOMAN","Study1","U","JOL_H",2502,"10",2033,"WOMAN",100,100
"5f0285dc9ae0b911b5f97dfe",5,"Highlight vs normal A","LIFT","WOMAN","Study1","U","JOL",4676,"70",1188,"",0,0
"5f045318065b0a04830ba148",5,"Highlight vs normal A","LIFT","WOMAN","Study1","U","JOL",3632,"5",2593,"",0,0
"5f09ae1800d387244cd6a16f",5,"Highlight vs normal A","LIFT","WOMAN","Study1","U","JOL_H",4773,"5",2692,"",0,0
"w968356_cj",5,"Highlight vs normal A","LIFT","WOMAN","Study1","U","JOL_H",5618,"87",1732,"ride",0,0
"5dcd935ebc9b97000b9d506d",5,"Highlight vs normal A","LOCATION","SITE","Study1","S","JOL",3397,"70",2269,"",0,0
"5dfeb647c0b81fb457299d05",5,"Highlight vs normal A","LOCATION","SITE","Study1","S","JOL",5845,"70",9268,"MAP",0,0
"5e65408fdf313c2bcfa6e24f",5,"Highlight vs normal A","LOCATION","SITE","Study1","S","JOL",1646,"0",7932,"scenery",36.363636363636,0
"5e8fe6a309881f2ee83521f5",5,"Highlight vs normal A","LOCATION","SITE","Study1","S","JOL_H",5376,"64",7779,"",0,0
"5eb47a217761382d66d1fe63",5,"Highlight vs normal A","LOCATION","SITE","Study1","S","JOL",2501,"78",4033,"PLACE",22.222222222222,0
"5ebc466264fea60774387e75",5,"Highlight vs normal A","LOCATION","SITE","Study1","S","JOL_H",2938,"40",1304,"",0,0
"5ebd841ddea21b08a0aa3057",5,"Highlight vs normal A","LOCATION","SITE","Study1","S","JOL",12893,"49",2333,"SITE",100,100
"5f021571f119a138b3f33aab",5,"Highlight vs normal A","LOCATION","SITE","Study1","S","JOL",1957,"30",1559,"",0,0
"5f0285dc9ae0b911b5f97dfe",5,"Highlight vs normal A","LOCATION","SITE","Study1","S","JOL",11028,"65",4782,"",0,0
"5f045318065b0a04830ba148",5,"Highlight vs normal A","LOCATION","SITE","Study1","S","JOL_H",3322,"20",1757,"",0,0
"5f09ae1800d387244cd6a16f",5,"Highlight vs normal A","LOCATION","SITE","Study1","S","JOL_H",6842,"50",3580,"",0,0
"w968356_cj",5,"Highlight vs normal A","LOCATION","SITE","Study1","S","JOL_H",1069,"98",2896,"direction",30.769230769231,0
"5dcd935ebc9b97000b9d506d",5,"Highlight vs normal A","MACHINE","POSITION","Study1","U","JOL_H",2526,"50",1143,"",0,0
"5dfeb647c0b81fb457299d05",5,"Highlight vs normal A","MACHINE","POSITION","Study1","U","JOL",7714,"15",2117,"POSITION",100,100
"5e65408fdf313c2bcfa6e24f",5,"Highlight vs normal A","MACHINE","POSITION","Study1","U","JOL",1345,"0",1336,"",0,0
"5e8fe6a309881f2ee83521f5",5,"Highlight vs normal A","MACHINE","POSITION","Study1","U","JOL",5735,"28",4187,"Made",0,0
"5eb47a217761382d66d1fe63",5,"Highlight vs normal A","MACHINE","POSITION","Study1","U","JOL_H",646,"67",4157,"maker",0,0
"5ebc466264fea60774387e75",5,"Highlight vs normal A","MACHINE","POSITION","Study1","U","JOL_H",1721,"1",949,"",0,0
"5ebd841ddea21b08a0aa3057",5,"Highlight vs normal A","MACHINE","POSITION","Study1","U","JOL_H",9712,"36",7647,"",0,0
"5f021571f119a138b3f33aab",5,"Highlight vs normal A","MACHINE","POSITION","Study1","U","JOL",1982,"40",4659,"LEARNING",12.5,0
"5f0285dc9ae0b911b5f97dfe",5,"Highlight vs normal A","MACHINE","POSITION","Study1","U","JOL_H",3157,"20",4094,"position",100,100
"5f045318065b0a04830ba148",5,"Highlight vs normal A","MACHINE","POSITION","Study1","U","JOL",3536,"1",3072,"",0,0
"5f09ae1800d387244cd6a16f",5,"Highlight vs normal A","MACHINE","POSITION","Study1","U","JOL_H",4326,"14",3903,"mask",16.666666666667,0
"w968356_cj",5,"Highlight vs normal A","MACHINE","POSITION","Study1","U","JOL",1085,"98",1798,"water",15.384615384615,0
"5dcd935ebc9b97000b9d506d",5,"Highlight vs normal A","MATH","DIVISION","Study1","B","JOL_H",2684,"60",1367,"",0,0
"5dfeb647c0b81fb457299d05",5,"Highlight vs normal A","MATH","DIVISION","Study1","B","JOL",3694,"70",3050,"QUESTION",50,0
"5e65408fdf313c2bcfa6e24f",5,"Highlight vs normal A","MATH","DIVISION","Study1","B","JOL",1871,"100",3112,"division",100,100
"5e8fe6a309881f2ee83521f5",5,"Highlight vs normal A","MATH","DIVISION","Study1","B","JOL_H",5764,"56",3496,"solve",30.769230769231,0
"5eb47a217761382d66d1fe63",5,"Highlight vs normal A","MATH","DIVISION","Study1","B","JOL_H",1142,"89",5091,"Divide",57.142857142857,0
"5ebc466264fea60774387e75",5,"Highlight vs normal A","MATH","DIVISION","Study1","B","JOL",2897,"20",3101,"numbers",13.333333333333,0
"5ebd841ddea21b08a0aa3057",5,"Highlight vs normal A","MATH","DIVISION","Study1","B","JOL_H",8256,"43",3835,"DIVISION",100,100
"5f021571f119a138b3f33aab",5,"Highlight vs normal A","MATH","DIVISION","Study1","B","JOL",3280,"60",3616,"ALGEBRA",0,0
"5f0285dc9ae0b911b5f97dfe",5,"Highlight vs normal A","MATH","DIVISION","Study1","B","JOL",5988,"75",1350,"",0,0
"5f045318065b0a04830ba148",5,"Highlight vs normal A","MATH","DIVISION","Study1","B","JOL",3337,"25",11295,"numeric",13.333333333333,0
"5f09ae1800d387244cd6a16f",5,"Highlight vs normal A","MATH","DIVISION","Study1","B","JOL_H",2030,"50",2225,"",0,0
"w968356_cj",5,"Highlight vs normal A","MATH","DIVISION","Study1","B","JOL_H",3244,"97",5061,"science",40,0
"5dcd935ebc9b97000b9d506d",5,"Highlight vs normal A","MEANING","DEFINITION","Study1","S","JOL",14039,"60",5461,"Detail",50,0
"5dfeb647c0b81fb457299d05",5,"Highlight vs normal A","MEANING","DEFINITION","Study1","S","JOL_H",2213,"100",3447,"DEFINITION",100,100
"5e65408fdf313c2bcfa6e24f",5,"Highlight vs normal A","MEANING","DEFINITION","Study1","S","JOL",2167,"100",5749,"definition",100,100
"5e8fe6a309881f2ee83521f5",5,"Highlight vs normal A","MEANING","DEFINITION","Study1","S","JOL",8553,"100",8703,"Definition ",100,100
"5eb47a217761382d66d1fe63",5,"Highlight vs normal A","MEANING","DEFINITION","Study1","S","JOL",746,"67",6243,"Definition",100,100
"5ebc466264fea60774387e75",5,"Highlight vs normal A","MEANING","DEFINITION","Study1","S","JOL_H",4674,"80",2817,"definition",100,100
"5ebd841ddea21b08a0aa3057",5,"Highlight vs normal A","MEANING","DEFINITION","Study1","S","JOL_H",10451,"82",6758,"DEFINITION ",100,100
"5f021571f119a138b3f33aab",5,"Highlight vs normal A","MEANING","DEFINITION","Study1","S","JOL",2731,"60",1015,"",0,0
"5f0285dc9ae0b911b5f97dfe",5,"Highlight vs normal A","MEANING","DEFINITION","Study1","S","JOL_H",3936,"65",2308,"",0,0
"5f045318065b0a04830ba148",5,"Highlight vs normal A","MEANING","DEFINITION","Study1","S","JOL_H",5293,"10",5555,"definition",100,100
"5f09ae1800d387244cd6a16f",5,"Highlight vs normal A","MEANING","DEFINITION","Study1","S","JOL",6899,"100",5607,"",0,0
"w968356_cj",5,"Highlight vs normal A","MEANING","DEFINITION","Study1","S","JOL_H",5074,"87",3155,"beautiful",31.578947368421,0
"5dcd935ebc9b97000b9d506d",5,"Highlight vs normal A","NUMBER","AMOUNT","Study1","S","JOL",1598,"60",2018,"",0,0
"5dfeb647c0b81fb457299d05",5,"Highlight vs normal A","NUMBER","AMOUNT","Study1","S","JOL_H",2459,"50",3606,"AMOUNT",100,100
"5e65408fdf313c2bcfa6e24f",5,"Highlight vs normal A","NUMBER","AMOUNT","Study1","S","JOL",1637,"0",5553,"",0,0
"5e8fe6a309881f2ee83521f5",5,"Highlight vs normal A","NUMBER","AMOUNT","Study1","S","JOL_H",4770,"76",8807,"",0,0
"5eb47a217761382d66d1fe63",5,"Highlight vs normal A","NUMBER","AMOUNT","Study1","S","JOL_H",1234,"36",7338,"letter",16.666666666667,0
"5ebc466264fea60774387e75",5,"Highlight vs normal A","NUMBER","AMOUNT","Study1","S","JOL",4650,"50",6248,"figure",16.666666666667,0
"5ebd841ddea21b08a0aa3057",5,"Highlight vs normal A","NUMBER","AMOUNT","Study1","S","JOL_H",11982,"55",6913,"AMOUNT",100,100
"5f021571f119a138b3f33aab",5,"Highlight vs normal A","NUMBER","AMOUNT","Study1","S","JOL_H",2333,"60",1237,"",0,0
"5f0285dc9ae0b911b5f97dfe",5,"Highlight vs normal A","NUMBER","AMOUNT","Study1","S","JOL_H",5794,"70",6492,"",0,0
"5f045318065b0a04830ba148",5,"Highlight vs normal A","NUMBER","AMOUNT","Study1","S","JOL_H",3460,"15",6115,"digit",18.181818181818,0
"5f09ae1800d387244cd6a16f",5,"Highlight vs normal A","NUMBER","AMOUNT","Study1","S","JOL_H",10970,"55",6038,"game",40,0
"w968356_cj",5,"Highlight vs normal A","NUMBER","AMOUNT","Study1","S","JOL_H",1564,"76",2249,"time",20,0
"5dcd935ebc9b97000b9d506d",5,"Highlight vs normal A","ORCHID","FLOWER","Study1","F","JOL",2502,"90",2774,"FLOWER",100,100
"5dfeb647c0b81fb457299d05",5,"Highlight vs normal A","ORCHID","FLOWER","Study1","F","JOL_H",2327,"100",1819,"FLOWER",100,100
"5e65408fdf313c2bcfa6e24f",5,"Highlight vs normal A","ORCHID","FLOWER","Study1","F","JOL_H",2582,"100",2769,"flower",100,100
"5e8fe6a309881f2ee83521f5",5,"Highlight vs normal A","ORCHID","FLOWER","Study1","F","JOL_H",9912,"85",2493,"Flower",100,100
"5eb47a217761382d66d1fe63",5,"Highlight vs normal A","ORCHID","FLOWER","Study1","F","JOL",554,"67",4146,"apples",33.333333333333,0
"5ebc466264fea60774387e75",5,"Highlight vs normal A","ORCHID","FLOWER","Study1","F","JOL_H",3302,"45",4769,"flower",100,100
"5ebd841ddea21b08a0aa3057",5,"Highlight vs normal A","ORCHID","FLOWER","Study1","F","JOL_H",8268,"76",2170,"FLOWER",100,100
"5f021571f119a138b3f33aab",5,"Highlight vs normal A","ORCHID","FLOWER","Study1","F","JOL",1633,"80",4171,"FLOWER",100,100
"5f0285dc9ae0b911b5f97dfe",5,"Highlight vs normal A","ORCHID","FLOWER","Study1","F","JOL_H",6056,"60",3336,"flower",100,100
"5f045318065b0a04830ba148",5,"Highlight vs normal A","ORCHID","FLOWER","Study1","F","JOL",4767,"75",3693,"flower",100,100
"5f09ae1800d387244cd6a16f",5,"Highlight vs normal A","ORCHID","FLOWER","Study1","F","JOL_H",3101,"60",5834,"flower",100,100
"w968356_cj",5,"Highlight vs normal A","ORCHID","FLOWER","Study1","F","JOL",1458,"78",2358,"flower",100,100
"5dcd935ebc9b97000b9d506d",5,"Highlight vs normal A","PARK","HUNGRY","Study1","U","JOL",3178,"50",1245,"",0,0
"5dfeb647c0b81fb457299d05",5,"Highlight vs normal A","PARK","HUNGRY","Study1","U","JOL_H",5087,"20",3577,"LIVE",0,0
"5e65408fdf313c2bcfa6e24f",5,"Highlight vs normal A","PARK","HUNGRY","Study1","U","JOL",1929,"0",1305,"",0,0
"5e8fe6a309881f2ee83521f5",5,"Highlight vs normal A","PARK","HUNGRY","Study1","U","JOL",3672,"0",3712,"",0,0
"5eb47a217761382d66d1fe63",5,"Highlight vs normal A","PARK","HUNGRY","Study1","U","JOL",856,"87",3097,"play",20,0
"5ebc466264fea60774387e75",5,"Highlight vs normal A","PARK","HUNGRY","Study1","U","JOL_H",4892,"5",3324,"",0,0
"5ebd841ddea21b08a0aa3057",5,"Highlight vs normal A","PARK","HUNGRY","Study1","U","JOL_H",13225,"26",3868,"",0,0
"5f021571f119a138b3f33aab",5,"Highlight vs normal A","PARK","HUNGRY","Study1","U","JOL_H",1713,"5",883,"",0,0
"5f0285dc9ae0b911b5f97dfe",5,"Highlight vs normal A","PARK","HUNGRY","Study1","U","JOL",3721,"25",1451,"",0,0
"5f045318065b0a04830ba148",5,"Highlight vs normal A","PARK","HUNGRY","Study1","U","JOL_H",5986,"5",12908,"",0,0
"5f09ae1800d387244cd6a16f",5,"Highlight vs normal A","PARK","HUNGRY","Study1","U","JOL_H",3885,"15",2409,"",0,0
"w968356_cj",5,"Highlight vs normal A","PARK","HUNGRY","Study1","U","JOL_H",1832,"44",2039,"hungry ",100,100
"5dcd935ebc9b97000b9d506d",5,"Highlight vs normal A","PAST","FUTURE","Study1","S","JOL_H",24827,"80",1960,"",0,0
"5dfeb647c0b81fb457299d05",5,"Highlight vs normal A","PAST","FUTURE","Study1","S","JOL_H",2865,"100",1954,"FUTURE",100,100
"5e65408fdf313c2bcfa6e24f",5,"Highlight vs normal A","PAST","FUTURE","Study1","S","JOL_H",3590,"100",3512,"future",100,100
"5e8fe6a309881f2ee83521f5",5,"Highlight vs normal A","PAST","FUTURE","Study1","S","JOL_H",8519,"90",3508,"Future",100,100
"5eb47a217761382d66d1fe63",5,"Highlight vs normal A","PAST","FUTURE","Study1","S","JOL",1139,"57",2496,"present",30.769230769231,0
"5ebc466264fea60774387e75",5,"Highlight vs normal A","PAST","FUTURE","Study1","S","JOL",3422,"55",4788,"future",100,100
"5ebd841ddea21b08a0aa3057",5,"Highlight vs normal A","PAST","FUTURE","Study1","S","JOL_H",15322,"70",2677,"FUTURE",100,100
"5f021571f119a138b3f33aab",5,"Highlight vs normal A","PAST","FUTURE","Study1","S","JOL_H",1867,"60",2412,"",0,0
"5f0285dc9ae0b911b5f97dfe",5,"Highlight vs normal A","PAST","FUTURE","Study1","S","JOL_H",3825,"100",2492,"future",100,100
"5f045318065b0a04830ba148",5,"Highlight vs normal A","PAST","FUTURE","Study1","S","JOL",4031,"65",4700,"future",100,100
"5f09ae1800d387244cd6a16f",5,"Highlight vs normal A","PAST","FUTURE","Study1","S","JOL",2288,"85",6690,"",0,0
"w968356_cj",5,"Highlight vs normal A","PAST","FUTURE","Study1","S","JOL_H",1492,"99",1888,"present",30.769230769231,0
"5dcd935ebc9b97000b9d506d",5,"Highlight vs normal A","PAW","DOG","Study1","F","JOL",3159,"80",2830,"Dog",100,100
"5dfeb647c0b81fb457299d05",5,"Highlight vs normal A","PAW","DOG","Study1","F","JOL",3469,"100",1429,"DOG",100,100
"5e65408fdf313c2bcfa6e24f",5,"Highlight vs normal A","PAW","DOG","Study1","F","JOL_H",2441,"100",2812,"dog",100,100
"5e8fe6a309881f2ee83521f5",5,"Highlight vs normal A","PAW","DOG","Study1","F","JOL",8365,"100",2526,"Dog",100,100
"5eb47a217761382d66d1fe63",5,"Highlight vs normal A","PAW","DOG","Study1","F","JOL_H",843,"34",3542,"hand",28.571428571429,0
"5ebc466264fea60774387e75",5,"Highlight vs normal A","PAW","DOG","Study1","F","JOL",3458,"45",3084,"dog",100,100
"5ebd841ddea21b08a0aa3057",5,"Highlight vs normal A","PAW","DOG","Study1","F","JOL",13601,"48",2191,"DOG",100,100
"5f021571f119a138b3f33aab",5,"Highlight vs normal A","PAW","DOG","Study1","F","JOL_H",1696,"90",1618,"DOG",100,100
"5f0285dc9ae0b911b5f97dfe",5,"Highlight vs normal A","PAW","DOG","Study1","F","JOL_H",6803,"85",2524,"dog",100,100
"5f045318065b0a04830ba148",5,"Highlight vs normal A","PAW","DOG","Study1","F","JOL_H",6419,"35",3035,"dog",100,100
"5f09ae1800d387244cd6a16f",5,"Highlight vs normal A","PAW","DOG","Study1","F","JOL",2638,"99",4640,"dog",100,100
"w968356_cj",5,"Highlight vs normal A","PAW","DOG","Study1","F","JOL",1287,"7",5118,"pup",0,0
"5dcd935ebc9b97000b9d506d",5,"Highlight vs normal A","PLANE","PILOT","Study1","B","JOL",2068,"80",1307,"",0,0
"5dfeb647c0b81fb457299d05",5,"Highlight vs normal A","PLANE","PILOT","Study1","B","JOL_H",2053,"100",1679,"PILOT",100,100
"5e65408fdf313c2bcfa6e24f",5,"Highlight vs normal A","PLANE","PILOT","Study1","B","JOL_H",1874,"100",2649,"",0,0
"5e8fe6a309881f2ee83521f5",5,"Highlight vs normal A","PLANE","PILOT","Study1","B","JOL",7203,"85",3672,"crash",0,0
"5eb47a217761382d66d1fe63",5,"Highlight vs normal A","PLANE","PILOT","Study1","B","JOL",949,"34",5159,"crash",0,0
"5ebc466264fea60774387e75",5,"Highlight vs normal A","PLANE","PILOT","Study1","B","JOL",5988,"45",4884,"pilot",100,100
"5ebd841ddea21b08a0aa3057",5,"Highlight vs normal A","PLANE","PILOT","Study1","B","JOL",8769,"77",43413,"PILOT",100,100
"5f021571f119a138b3f33aab",5,"Highlight vs normal A","PLANE","PILOT","Study1","B","JOL_H",2149,"70",2167,"PILOT",100,100
"5f0285dc9ae0b911b5f97dfe",5,"Highlight vs normal A","PLANE","PILOT","Study1","B","JOL_H",4837,"85",2248,"",0,0
"5f045318065b0a04830ba148",5,"Highlight vs normal A","PLANE","PILOT","Study1","B","JOL_H",3970,"60",4502,"pilot",100,100
"5f09ae1800d387244cd6a16f",5,"Highlight vs normal A","PLANE","PILOT","Study1","B","JOL",3003,"90",2779,"",0,0
"w968356_cj",5,"Highlight vs normal A","PLANE","PILOT","Study1","B","JOL",1434,"88",2150,"pilot",100,100
"5dcd935ebc9b97000b9d506d",5,"Highlight vs normal A","POP","SODA","Study1","S","JOL",3035,"80",3594,"Soda",100,100
"5dfeb647c0b81fb457299d05",5,"Highlight vs normal A","POP","SODA","Study1","S","JOL",5234,"85",5035,"LOUD",50,0
"5e65408fdf313c2bcfa6e24f",5,"Highlight vs normal A","POP","SODA","Study1","S","JOL_H",2498,"100",2271,"soda",100,100
"5e8fe6a309881f2ee83521f5",5,"Highlight vs normal A","POP","SODA","Study1","S","JOL_H",7304,"81",2279,"soda",100,100
"5eb47a217761382d66d1fe63",5,"Highlight vs normal A","POP","SODA","Study1","S","JOL_H",2334,"23",2846,"quiz",0,0
"5ebc466264fea60774387e75",5,"Highlight vs normal A","POP","SODA","Study1","S","JOL_H",3934,"60",2114,"soda",100,100
"5ebd841ddea21b08a0aa3057",5,"Highlight vs normal A","POP","SODA","Study1","S","JOL_H",6644,"87",2553,"SODA",100,100
"5f021571f119a138b3f33aab",5,"Highlight vs normal A","POP","SODA","Study1","S","JOL_H",2309,"80",1380,"",0,0
"5f0285dc9ae0b911b5f97dfe",5,"Highlight vs normal A","POP","SODA","Study1","S","JOL_H",6865,"100",2335,"soda",100,100
"5f045318065b0a04830ba148",5,"Highlight vs normal A","POP","SODA","Study1","S","JOL_H",9545,"65",13652,"soure",44.444444444444,0
"5f09ae1800d387244cd6a16f",5,"Highlight vs normal A","POP","SODA","Study1","S","JOL_H",5665,"95",2488,"",0,0
"w968356_cj",5,"Highlight vs normal A","POP","SODA","Study1","S","JOL",12519,"78",2304,"socket",40,0
"5dcd935ebc9b97000b9d506d",5,"Highlight vs normal A","PUSHER","CLUTTER","Study1","U","JOL_H",9522,"70",1107,"",0,0
"5dfeb647c0b81fb457299d05",5,"Highlight vs normal A","PUSHER","CLUTTER","Study1","U","JOL",8189,"3",3338,"CLICKER",57.142857142857,0
"5e65408fdf313c2bcfa6e24f",5,"Highlight vs normal A","PUSHER","CLUTTER","Study1","U","JOL",974,"0",1301,"",0,0
"5e8fe6a309881f2ee83521f5",5,"Highlight vs normal A","PUSHER","CLUTTER","Study1","U","JOL",8909,"0",9352,"Clutter",100,100
"5eb47a217761382d66d1fe63",5,"Highlight vs normal A","PUSHER","CLUTTER","Study1","U","JOL",998,"78",2721,"puller",46.153846153846,0
"5ebc466264fea60774387e75",5,"Highlight vs normal A","PUSHER","CLUTTER","Study1","U","JOL",1528,"1",3003,"cutter",92.307692307692,100
"5ebd841ddea21b08a0aa3057",5,"Highlight vs normal A","PUSHER","CLUTTER","Study1","U","JOL_H",7869,"7",6892,"",0,0
"5f021571f119a138b3f33aab",5,"Highlight vs normal A","PUSHER","CLUTTER","Study1","U","JOL",1341,"5",1295,"",0,0
"5f0285dc9ae0b911b5f97dfe",5,"Highlight vs normal A","PUSHER","CLUTTER","Study1","U","JOL_H",3030,"15",1387,"",0,0
"5f045318065b0a04830ba148",5,"Highlight vs normal A","PUSHER","CLUTTER","Study1","U","JOL_H",9218,"0",6656,"",0,0
"5f09ae1800d387244cd6a16f",5,"Highlight vs normal A","PUSHER","CLUTTER","Study1","U","JOL_H",3899,"0",2623,"",0,0
"w968356_cj",5,"Highlight vs normal A","PUSHER","CLUTTER","Study1","U","JOL_H",1412,"87",3004,"",0,0
"5dcd935ebc9b97000b9d506d",5,"Highlight vs normal A","REVOLUTION","WAR","Study1","F","JOL_H",2593,"60",2404,"WAR",100,100
"5dfeb647c0b81fb457299d05",5,"Highlight vs normal A","REVOLUTION","WAR","Study1","F","JOL",3537,"5",1891,"WAR",100,100
"5e65408fdf313c2bcfa6e24f",5,"Highlight vs normal A","REVOLUTION","WAR","Study1","F","JOL",1573,"0",2197,"war",100,100
"5e8fe6a309881f2ee83521f5",5,"Highlight vs normal A","REVOLUTION","WAR","Study1","F","JOL",4255,"100",2160,"War",100,100
"5eb47a217761382d66d1fe63",5,"Highlight vs normal A","REVOLUTION","WAR","Study1","F","JOL_H",8453,"15",7954,"dystopia",18.181818181818,0
"5ebc466264fea60774387e75",5,"Highlight vs normal A","REVOLUTION","WAR","Study1","F","JOL",3607,"50",1964,"war",100,100
"5ebd841ddea21b08a0aa3057",5,"Highlight vs normal A","REVOLUTION","WAR","Study1","F","JOL",12471,"66",2135,"WAR",100,100
"5f021571f119a138b3f33aab",5,"Highlight vs normal A","REVOLUTION","WAR","Study1","F","JOL_H",2057,"50",1530,"WAR",100,100
"5f0285dc9ae0b911b5f97dfe",5,"Highlight vs normal A","REVOLUTION","WAR","Study1","F","JOL",5139,"35",1916,"war",100,100
"5f045318065b0a04830ba148",5,"Highlight vs normal A","REVOLUTION","WAR","Study1","F","JOL",4047,"25",3336,"war",100,100
"5f09ae1800d387244cd6a16f",5,"Highlight vs normal A","REVOLUTION","WAR","Study1","F","JOL",4406,"70",8889,"fight",0,0
"w968356_cj",5,"Highlight vs normal A","REVOLUTION","WAR","Study1","F","JOL",1922,"7",3365,"war",100,100
"5dcd935ebc9b97000b9d506d",5,"Highlight vs normal A","ROOT","PLANT","Study1","F","JOL_H",3321,"70",788,"",0,0
"5dfeb647c0b81fb457299d05",5,"Highlight vs normal A","ROOT","PLANT","Study1","F","JOL_H",5880,"70",1747,"SOIL",22.222222222222,0
"5e65408fdf313c2bcfa6e24f",5,"Highlight vs normal A","ROOT","PLANT","Study1","F","JOL_H",1855,"100",2714,"tree",22.222222222222,0
"5e8fe6a309881f2ee83521f5",5,"Highlight vs normal A","ROOT","PLANT","Study1","F","JOL",6828,"89",7322,"Word",0,0
"5eb47a217761382d66d1fe63",5,"Highlight vs normal A","ROOT","PLANT","Study1","F","JOL_H",895,"45",7066,"Plant",100,100
"5ebc466264fea60774387e75",5,"Highlight vs normal A","ROOT","PLANT","Study1","F","JOL_H",3470,"50",2581,"plant",100,100
"5ebd841ddea21b08a0aa3057",5,"Highlight vs normal A","ROOT","PLANT","Study1","F","JOL_H",12813,"46",2625,"PLANT",100,100
"5f021571f119a138b3f33aab",5,"Highlight vs normal A","ROOT","PLANT","Study1","F","JOL",2339,"40",2361,"PLANT",100,100
"5f0285dc9ae0b911b5f97dfe",5,"Highlight vs normal A","ROOT","PLANT","Study1","F","JOL_H",6882,"30",5901,"plant",100,100
"5f045318065b0a04830ba148",5,"Highlight vs normal A","ROOT","PLANT","Study1","F","JOL_H",7959,"7",5134,"",0,0
"5f09ae1800d387244cd6a16f",5,"Highlight vs normal A","ROOT","PLANT","Study1","F","JOL_H",3360,"85",4348,"plant",100,100
"w968356_cj",5,"Highlight vs normal A","ROOT","PLANT","Study1","F","JOL",1591,"22",1646,"plant",100,100
"5dcd935ebc9b97000b9d506d",5,"Highlight vs normal A","SENTENCE","WORD","Study1","B","JOL",5460,"75",4506,"Word",100,100
"5dfeb647c0b81fb457299d05",5,"Highlight vs normal A","SENTENCE","WORD","Study1","B","JOL_H",4035,"90",4770,"LENGTH",0,0
"5e65408fdf313c2bcfa6e24f",5,"Highlight vs normal A","SENTENCE","WORD","Study1","B","JOL_H",2206,"0",2518,"word",100,100
"5e8fe6a309881f2ee83521f5",5,"Highlight vs normal A","SENTENCE","WORD","Study1","B","JOL",7463,"81",5250,"word",100,100
"5eb47a217761382d66d1fe63",5,"Highlight vs normal A","SENTENCE","WORD","Study1","B","JOL_H",477,"4",9019,"Paragraph",15.384615384615,0
"5ebc466264fea60774387e75",5,"Highlight vs normal A","SENTENCE","WORD","Study1","B","JOL_H",5173,"4",1870,"word",100,100
"5ebd841ddea21b08a0aa3057",5,"Highlight vs normal A","SENTENCE","WORD","Study1","B","JOL",5427,"51",2609,"WORD",100,100
"5f021571f119a138b3f33aab",5,"Highlight vs normal A","SENTENCE","WORD","Study1","B","JOL_H",3087,"60",2990,"WORD",100,100
"5f0285dc9ae0b911b5f97dfe",5,"Highlight vs normal A","SENTENCE","WORD","Study1","B","JOL",3503,"80",4464,"words",88.888888888889,100
"5f045318065b0a04830ba148",5,"Highlight vs normal A","SENTENCE","WORD","Study1","B","JOL",9326,"65",2954,"word",100,100
"5f09ae1800d387244cd6a16f",5,"Highlight vs normal A","SENTENCE","WORD","Study1","B","JOL",3577,"88",4167,"word",100,100
"w968356_cj",5,"Highlight vs normal A","SENTENCE","WORD","Study1","B","JOL_H",2055,"10",2902,"phrase ",20,0
"5dcd935ebc9b97000b9d506d",5,"Highlight vs normal A","SHOE","FOOT","Study1","S","JOL",2639,"70",1323,"",0,0
"5dfeb647c0b81fb457299d05",5,"Highlight vs normal A","SHOE","FOOT","Study1","S","JOL",4925,"95",2145,"FOOT",100,100
"5e65408fdf313c2bcfa6e24f",5,"Highlight vs normal A","SHOE","FOOT","Study1","S","JOL",1253,"100",6842,"foot",100,100
"5e8fe6a309881f2ee83521f5",5,"Highlight vs normal A","SHOE","FOOT","Study1","S","JOL",21526,"83",4203,"Rack",0,0
"5eb47a217761382d66d1fe63",5,"Highlight vs normal A","SHOE","FOOT","Study1","S","JOL",2351,"79",17726,"sock",25,0
"5ebc466264fea60774387e75",5,"Highlight vs normal A","SHOE","FOOT","Study1","S","JOL_H",2954,"70",2895,"foot",100,100
"5ebd841ddea21b08a0aa3057",5,"Highlight vs normal A","SHOE","FOOT","Study1","S","JOL",14518,"81",7406,"FOOT",100,100
"5f021571f119a138b3f33aab",5,"Highlight vs normal A","SHOE","FOOT","Study1","S","JOL",2113,"80",1580,"",0,0
"5f0285dc9ae0b911b5f97dfe",5,"Highlight vs normal A","SHOE","FOOT","Study1","S","JOL",3782,"95",1233,"",0,0
"5f045318065b0a04830ba148",5,"Highlight vs normal A","SHOE","FOOT","Study1","S","JOL",4050,"55",5168,"foot",100,100
"5f09ae1800d387244cd6a16f",5,"Highlight vs normal A","SHOE","FOOT","Study1","S","JOL",3280,"90",7263,"",0,0
"w968356_cj",5,"Highlight vs normal A","SHOE","FOOT","Study1","S","JOL_H",5502,"67",1665,"game",0,0
"5dcd935ebc9b97000b9d506d",5,"Highlight vs normal A","SLEEP","DROWSY","Study1","B","JOL_H",3008,"60",1431,"",0,0
"5dfeb647c0b81fb457299d05",5,"Highlight vs normal A","SLEEP","DROWSY","Study1","B","JOL_H",7516,"35",5879,"BED",22.222222222222,0
"5e65408fdf313c2bcfa6e24f",5,"Highlight vs normal A","SLEEP","DROWSY","Study1","B","JOL",4541,"100",1684,"",0,0
"5e8fe6a309881f2ee83521f5",5,"Highlight vs normal A","SLEEP","DROWSY","Study1","B","JOL_H",6559,"67",9092,"Drowsy",100,100
"5eb47a217761382d66d1fe63",5,"Highlight vs normal A","SLEEP","DROWSY","Study1","B","JOL",1465,"56",4975,"awake",18.181818181818,0
"5ebc466264fea60774387e75",5,"Highlight vs normal A","SLEEP","DROWSY","Study1","B","JOL",5160,"60",3422,"",0,0
"5ebd841ddea21b08a0aa3057",5,"Highlight vs normal A","SLEEP","DROWSY","Study1","B","JOL_H",9071,"65",5515,"DROWSY",100,100
"5f021571f119a138b3f33aab",5,"Highlight vs normal A","SLEEP","DROWSY","Study1","B","JOL",1713,"80",1436,"",0,0
"5f0285dc9ae0b911b5f97dfe",5,"Highlight vs normal A","SLEEP","DROWSY","Study1","B","JOL_H",3319,"95",8021,"drowsiness",62.5,0
"5f045318065b0a04830ba148",5,"Highlight vs normal A","SLEEP","DROWSY","Study1","B","JOL",5871,"30",1484,"",0,0
"5f09ae1800d387244cd6a16f",5,"Highlight vs normal A","SLEEP","DROWSY","Study1","B","JOL",2641,"88",5545,"",0,0
"w968356_cj",5,"Highlight vs normal A","SLEEP","DROWSY","Study1","B","JOL",1296,"9",2459,"wake",20,0
"5dcd935ebc9b97000b9d506d",5,"Highlight vs normal A","SMELL","STENCH","Study1","B","JOL",3106,"70",1717,"",0,0
"5dfeb647c0b81fb457299d05",5,"Highlight vs normal A","SMELL","STENCH","Study1","B","JOL",3263,"20",6915,"SOUND",36.363636363636,0
"5e65408fdf313c2bcfa6e24f",5,"Highlight vs normal A","SMELL","STENCH","Study1","B","JOL_H",1546,"0",2151,"",0,0
"5e8fe6a309881f2ee83521f5",5,"Highlight vs normal A","SMELL","STENCH","Study1","B","JOL_H",5152,"100",3033,"Stench",100,100
"5eb47a217761382d66d1fe63",5,"Highlight vs normal A","SMELL","STENCH","Study1","B","JOL",1664,"46",7751,"Scent",54.545454545455,100
"5ebc466264fea60774387e75",5,"Highlight vs normal A","SMELL","STENCH","Study1","B","JOL_H",3315,"50",2720,"",0,0
"5ebd841ddea21b08a0aa3057",5,"Highlight vs normal A","SMELL","STENCH","Study1","B","JOL",17548,"28",2614,"STENCH",100,100
"5f021571f119a138b3f33aab",5,"Highlight vs normal A","SMELL","STENCH","Study1","B","JOL",2886,"30",2503,"BAD",0,0
"5f0285dc9ae0b911b5f97dfe",5,"Highlight vs normal A","SMELL","STENCH","Study1","B","JOL",3141,"80",3845,"",0,0
"5f045318065b0a04830ba148",5,"Highlight vs normal A","SMELL","STENCH","Study1","B","JOL_H",3063,"5",8306,"",0,0
"5f09ae1800d387244cd6a16f",5,"Highlight vs normal A","SMELL","STENCH","Study1","B","JOL",5302,"88",3136,"scent",54.545454545455,100
"w968356_cj",5,"Highlight vs normal A","SMELL","STENCH","Study1","B","JOL",1672,"4",2063,"sene",60,0
"5dcd935ebc9b97000b9d506d",5,"Highlight vs normal A","SOON","BELT","Study1","U","JOL_H",3726,"40",852,"",0,0
"5dfeb647c0b81fb457299d05",5,"Highlight vs normal A","SOON","BELT","Study1","U","JOL_H",5725,"5",3781,"FAR",0,0
"5e65408fdf313c2bcfa6e24f",5,"Highlight vs normal A","SOON","BELT","Study1","U","JOL_H",1416,"0",2358,"",0,0
"5e8fe6a309881f2ee83521f5",5,"Highlight vs normal A","SOON","BELT","Study1","U","JOL_H",10777,"22",2810,"gone",25,0
"5eb47a217761382d66d1fe63",5,"Highlight vs normal A","SOON","BELT","Study1","U","JOL_H",9846,"56",4512,"never",22.222222222222,0
"5ebc466264fea60774387e75",5,"Highlight vs normal A","SOON","BELT","Study1","U","JOL",1857,"1",1231,"",0,0
"5ebd841ddea21b08a0aa3057",5,"Highlight vs normal A","SOON","BELT","Study1","U","JOL_H",10017,"35",17648,"",0,0
"5f021571f119a138b3f33aab",5,"Highlight vs normal A","SOON","BELT","Study1","U","JOL_H",3181,"2",1354,"",0,0
"5f0285dc9ae0b911b5f97dfe",5,"Highlight vs normal A","SOON","BELT","Study1","U","JOL_H",4448,"30",1250,"",0,0
"5f045318065b0a04830ba148",5,"Highlight vs normal A","SOON","BELT","Study1","U","JOL_H",2424,"0",7547,"end",28.571428571429,0
"5f09ae1800d387244cd6a16f",5,"Highlight vs normal A","SOON","BELT","Study1","U","JOL_H",4417,"3",9078,"",0,0
"w968356_cj",5,"Highlight vs normal A","SOON","BELT","Study1","U","JOL_H",1021,"54",2383,"enough",20,0
"5dcd935ebc9b97000b9d506d",5,"Highlight vs normal A","STRONG","ACCIDENT","Study1","U","JOL_H",22051,"50",1412,"",0,0
"5dfeb647c0b81fb457299d05",5,"Highlight vs normal A","STRONG","ACCIDENT","Study1","U","JOL",9842,"5",3649,"WOMAN",30.769230769231,0
"5e65408fdf313c2bcfa6e24f",5,"Highlight vs normal A","STRONG","ACCIDENT","Study1","U","JOL_H",1802,"0",2449,"",0,0
"5e8fe6a309881f2ee83521f5",5,"Highlight vs normal A","STRONG","ACCIDENT","Study1","U","JOL",9513,"87",3247,"Will",16.666666666667,0
"5eb47a217761382d66d1fe63",5,"Highlight vs normal A","STRONG","ACCIDENT","Study1","U","JOL_H",815,"45",2580,"weak",16.666666666667,0
"5ebc466264fea60774387e75",5,"Highlight vs normal A","STRONG","ACCIDENT","Study1","U","JOL",3598,"40",2242,"",0,0
"5ebd841ddea21b08a0aa3057",5,"Highlight vs normal A","STRONG","ACCIDENT","Study1","U","JOL_H",9292,"33",3224,"ACCIDENT",100,100
"5f021571f119a138b3f33aab",5,"Highlight vs normal A","STRONG","ACCIDENT","Study1","U","JOL_H",2351,"5",3181,"",0,0
"5f0285dc9ae0b911b5f97dfe",5,"Highlight vs normal A","STRONG","ACCIDENT","Study1","U","JOL_H",3660,"20",1304,"",0,0
"5f045318065b0a04830ba148",5,"Highlight vs normal A","STRONG","ACCIDENT","Study1","U","JOL_H",4429,"0",5337,"",0,0
"5f09ae1800d387244cd6a16f",5,"Highlight vs normal A","STRONG","ACCIDENT","Study1","U","JOL_H",3905,"5",2741,"",0,0
"w968356_cj",5,"Highlight vs normal A","STRONG","ACCIDENT","Study1","U","JOL",4742,"45",2758,"weak",16.666666666667,0
"5dcd935ebc9b97000b9d506d",5,"Highlight vs normal A","SUGAR","RIDDLE","Study1","U","JOL",5392,"40",2186,"",0,0
"5dfeb647c0b81fb457299d05",5,"Highlight vs normal A","SUGAR","RIDDLE","Study1","U","JOL",3530,"5",2145,"RUSH",20,0
"5e65408fdf313c2bcfa6e24f",5,"Highlight vs normal A","SUGAR","RIDDLE","Study1","U","JOL_H",2174,"0",2773,"",0,0
"5e8fe6a309881f2ee83521f5",5,"Highlight vs normal A","SUGAR","RIDDLE","Study1","U","JOL",3539,"0",1422,"",0,0
"5eb47a217761382d66d1fe63",5,"Highlight vs normal A","SUGAR","RIDDLE","Study1","U","JOL_H",1234,"43",6667,"sweet",18.181818181818,0
"5ebc466264fea60774387e75",5,"Highlight vs normal A","SUGAR","RIDDLE","Study1","U","JOL",2224,"1",1286,"",0,0
"5ebd841ddea21b08a0aa3057",5,"Highlight vs normal A","SUGAR","RIDDLE","Study1","U","JOL",8985,"8",9515,"RIDDLE",100,100
