Username,ID,ExperimentName,Session,Trial,Date,TimeDif,"Condition Number","Stimuli File","Order File","Condition Description","Condition Notes",Stimuli*Cue,Stimuli*Answer,Stimuli*Shuffle,"Stimuli*Stimuli Notes",Stimuli*Value,Procedure*Item,"Procedure*Trial Type","Procedure*Max Time","Procedure*Min Time",Procedure*Text,"Procedure*Procedure Notes",Procedure*Shuffle,Response*RT,Response*Response,Response*Accuracy,Response*RTfirst,Response*RTlast,Response*strictAcc,Response*lenientAcc,Response*focus,Response*JOL,Response*Focus
5ea964a32f7b3304bb975a05,kj96ytstpq,Trevor_EX2,1,1,2020-07-23T14:25:58-07:00,11.742161989212,1,Pure_Unrelated.csv,JOL_S_VersionA.csv,"Size U A","Size U A",,,,,,0,Instruct,-,5,"In this section, you will be presented with a series of word pairs.",Initial_Instruct,Instruct1,11548,,,-1,-1,,,,,1
5ea964a32f7b3304bb975a05,kj96ytstpq,Trevor_EX2,1,2,2020-07-23T14:26:21-07:00,22.133681058884,1,Pure_Unrelated.csv,JOL_S_VersionA.csv,"Size U A","Size U A",,,,,,0,Instruct,-,5,"As you study, you will be asked to rate your ability to remember the second item in the pair if you were only shown the first at test. You will make these ratings using a 0 to 100 Scale.",,Instruct13,21795,,,-1,-1,,,,,1
5ea964a32f7b3304bb975a05,kj96ytstpq,Trevor_EX2,1,3,2020-07-23T14:26:42-07:00,21.552391052246,1,Pure_Unrelated.csv,JOL_S_VersionA.csv,"Size U A","Size U A",,,,,,0,Instruct,-,10,"For example, if you are given the pair CAT - DOG, a rating of 0 indicates that you would not remember DOG at test, while a rating of 100 indicates full certainty that you would remember the word DOG at test.",,Instruct14,21252,,,-1,-1,,,,,1
5ea964a32f7b3304bb975a05,kj96ytstpq,Trevor_EX2,1,4,2020-07-23T14:27:00-07:00,17.391108989716,1,Pure_Unrelated.csv,JOL_S_VersionA.csv,"Size U A","Size U A",,,,,,0,Instruct,-,10,"When making your ratings, it is criticial that you use the full range of the scale. You will be disqualified for only giving ratings of 0 or 100! After making your rating, press Enter to advance to the next pair.",,Instruct15,17092,,,-1,-1,,,,,1
5ea964a32f7b3304bb975a05,kj96ytstpq,Trevor_EX2,1,5,2020-07-23T14:27:06-07:00,6.3305578231812,1,Pure_Unrelated.csv,JOL_S_VersionA.csv,"Size U A","Size U A",,,,,,0,Instruct,User,-,"You will now begin the study. Press Enter when you are ready to begin.",,Instruct16,5887,,,-1,-1,,,,,1
5ea964a32f7b3304bb975a05,kj96ytstpq,Trevor_EX2,1,6,2020-07-23T14:27:26-07:00,20.596595048904,1,Pure_Unrelated.csv,JOL_S_VersionA.csv,"Size U A","Size U A",TREES,GREEN,BUFFER1,Buffer,1,6,JOL_Large,User,-,"How likely are you to correctly recall the second item in the pair?|Type your response on a scale from 0-100 and then press Enter.",Study/JOL,BUFFER,20218,,,13560,18229,,,,60,1
5ea964a32f7b3304bb975a05,kj96ytstpq,Trevor_EX2,1,7,2020-07-23T14:27:46-07:00,19.027281045914,1,Pure_Unrelated.csv,JOL_S_VersionA.csv,"Size U A","Size U A",BASEBALL,CATCHER,BUFFER1,Buffer,2,4,JOL_Small,User,-,"How likely are you to correctly recall the second item in the pair?|Type your response on a scale from 0-100 and then press Enter.",Study/JOL,BUFFER,18670,,,15480,16383,,,,60,1
5ea964a32f7b3304bb975a05,kj96ytstpq,Trevor_EX2,1,8,2020-07-23T14:28:01-07:00,15.205919027328,1,Pure_Unrelated.csv,JOL_S_VersionA.csv,"Size U A","Size U A",SCARE,HIDE,BUFFER1,Buffer,4,3,JOL_Small,User,-,"How likely are you to correctly recall the second item in the pair?|Type your response on a scale from 0-100 and then press Enter.",Study/JOL,BUFFER,14910,,,10301,11325,,,,60,1
5ea964a32f7b3304bb975a05,kj96ytstpq,Trevor_EX2,1,9,2020-07-23T14:28:13-07:00,12.434962034225,1,Pure_Unrelated.csv,JOL_S_VersionA.csv,"Size U A","Size U A",SPACE,JAM,BUFFER1,Buffer,5,2,JOL_Small,User,-,"How likely are you to correctly recall the second item in the pair?|Type your response on a scale from 0-100 and then press Enter.",Study/JOL,BUFFER,12119,,,10479,11411,,,,60,1
5ea964a32f7b3304bb975a05,kj96ytstpq,Trevor_EX2,1,10,2020-07-23T14:28:32-07:00,18.479075908661,1,Pure_Unrelated.csv,JOL_S_VersionA.csv,"Size U A","Size U A",PEANUT,BUTTER,BUFFER1,Buffer,3,5,JOL_Large,User,-,"How likely are you to correctly recall the second item in the pair?|Type your response on a scale from 0-100 and then press Enter.",Study/JOL,BUFFER,18139,,,16948,17238,,,,70,1
5ea964a32f7b3304bb975a05,kj96ytstpq,Trevor_EX2,1,11,2020-07-23T14:28:40-07:00,8.0046401023865,1,Pure_Unrelated.csv,JOL_S_VersionA.csv,"Size U A","Size U A",DEGREE,CHAIR,Study1,U,71,39,JOL_Small,User,-,"How likely are you to correctly recall the second item in the pair?|Type your response on a scale from 0-100 and then press Enter.",Study/JOL,"Study Phase",7700,,,6303,6557,,,,50,1
5ea964a32f7b3304bb975a05,kj96ytstpq,Trevor_EX2,1,12,2020-07-23T14:29:01-07:00,21.461413860321,1,Pure_Unrelated.csv,JOL_S_VersionA.csv,"Size U A","Size U A",WARN,SEA,Study1,U,80,24,JOL_Large,User,-,"How likely are you to correctly recall the second item in the pair?|Type your response on a scale from 0-100 and then press Enter.",Study/JOL,"Study Phase",21028,,,7352,19837,,,,50,1
5ea964a32f7b3304bb975a05,kj96ytstpq,Trevor_EX2,1,13,2020-07-23T14:29:10-07:00,8.8887619972229,1,Pure_Unrelated.csv,JOL_S_VersionA.csv,"Size U A","Size U A",FUZZY,BANG,Study1,U,18,28,JOL_Small,User,-,"How likely are you to correctly recall the second item in the pair?|Type your response on a scale from 0-100 and then press Enter.",Study/JOL,"Study Phase",8524,,,7528,7742,,,,50,1
5ea964a32f7b3304bb975a05,kj96ytstpq,Trevor_EX2,1,14,2020-07-23T14:29:18-07:00,7.8267991542816,1,Pure_Unrelated.csv,JOL_S_VersionA.csv,"Size U A","Size U A",TAX,OWL,Study1,U,72,18,JOL_Large,User,-,"How likely are you to correctly recall the second item in the pair?|Type your response on a scale from 0-100 and then press Enter.",Study/JOL,"Study Phase",7207,,,5732,6053,,,,40,1
5ea964a32f7b3304bb975a05,kj96ytstpq,Trevor_EX2,1,15,2020-07-23T14:29:46-07:00,27.825438976288,1,Pure_Unrelated.csv,JOL_S_VersionA.csv,"Size U A","Size U A",MAIN,SCAR,Study1,U,25,43,JOL_Small,User,-,"How likely are you to correctly recall the second item in the pair?|Type your response on a scale from 0-100 and then press Enter.",Study/JOL,"Study Phase",27494,,,15724,15986,,,,40,1
5ea964a32f7b3304bb975a05,kj96ytstpq,Trevor_EX2,1,16,2020-07-23T14:29:56-07:00,10.3008248806,1,Pure_Unrelated.csv,JOL_S_VersionA.csv,"Size U A","Size U A",STRETCH,CLOTH,Study1,U,7,22,JOL_Large,User,-,"How likely are you to correctly recall the second item in the pair?|Type your response on a scale from 0-100 and then press Enter.",Study/JOL,"Study Phase",9937,,,8265,8637,,,,50,1
5ea964a32f7b3304bb975a05,kj96ytstpq,Trevor_EX2,1,17,2020-07-23T14:30:12-07:00,15.742946147919,1,Pure_Unrelated.csv,JOL_S_VersionA.csv,"Size U A","Size U A",LEASE,TOIL,Study1,U,20,27,JOL_Small,User,-,"How likely are you to correctly recall the second item in the pair?|Type your response on a scale from 0-100 and then press Enter.",Study/JOL,"Study Phase",15425,,,8365,14433,,,,30,1
5ea964a32f7b3304bb975a05,kj96ytstpq,Trevor_EX2,1,18,2020-07-23T14:30:31-07:00,18.947232961655,1,Pure_Unrelated.csv,JOL_S_VersionA.csv,"Size U A","Size U A",MOAT,CLEAR,Study1,U,19,38,JOL_Small,User,-,"How likely are you to correctly recall the second item in the pair?|Type your response on a scale from 0-100 and then press Enter.",Study/JOL,"Study Phase",18594,,,5593,15252,,,,30,1
5ea964a32f7b3304bb975a05,kj96ytstpq,Trevor_EX2,1,19,2020-07-23T14:30:43-07:00,12.739403009415,1,Pure_Unrelated.csv,JOL_S_VersionA.csv,"Size U A","Size U A",STRESS,YAM,Study1,U,68,29,JOL_Small,User,-,"How likely are you to correctly recall the second item in the pair?|Type your response on a scale from 0-100 and then press Enter.",Study/JOL,"Study Phase",12416,,,10065,10305,,,,30,1
5ea964a32f7b3304bb975a05,kj96ytstpq,Trevor_EX2,1,20,2020-07-23T14:30:52-07:00,8.8868479728699,1,Pure_Unrelated.csv,JOL_S_VersionA.csv,"Size U A","Size U A",CRAYON,RATE,Study1,U,79,37,JOL_Small,User,-,"How likely are you to correctly recall the second item in the pair?|Type your response on a scale from 0-100 and then press Enter.",Study/JOL,"Study Phase",8503,,,6311,6528,,,,20,1
5ea964a32f7b3304bb975a05,kj96ytstpq,Trevor_EX2,1,21,2020-07-23T14:31:02-07:00,9.7466430664062,1,Pure_Unrelated.csv,JOL_S_VersionA.csv,"Size U A","Size U A",DONKEY,LUSH,Study1,U,84,30,JOL_Small,User,-,"How likely are you to correctly recall the second item in the pair?|Type your response on a scale from 0-100 and then press Enter.",Study/JOL,"Study Phase",8567,,,6646,6843,,,,20,1
5ea964a32f7b3304bb975a05,kj96ytstpq,Trevor_EX2,1,22,2020-07-23T14:31:12-07:00,9.7312858104706,1,Pure_Unrelated.csv,JOL_S_VersionA.csv,"Size U A","Size U A",VEHICLE,CHARM,Study1,U,10,32,JOL_Small,User,-,"How likely are you to correctly recall the second item in the pair?|Type your response on a scale from 0-100 and then press Enter.",Study/JOL,"Study Phase",8304,,,6233,6479,,,,20,1
5ea964a32f7b3304bb975a05,kj96ytstpq,Trevor_EX2,1,23,2020-07-23T14:31:18-07:00,6.0716671943665,1,Pure_Unrelated.csv,JOL_S_VersionA.csv,"Size U A","Size U A",MEAT,OBTAIN,Study1,U,11,45,JOL_Small,User,-,"How likely are you to correctly recall the second item in the pair?|Type your response on a scale from 0-100 and then press Enter.",Study/JOL,"Study Phase",5683,,,3887,4137,,,,20,1
5ea964a32f7b3304bb975a05,kj96ytstpq,Trevor_EX2,1,24,2020-07-23T14:31:25-07:00,7.2468748092651,1,Pure_Unrelated.csv,JOL_S_VersionA.csv,"Size U A","Size U A",KEYS,JOKE,Study1,U,15,10,JOL_Large,User,-,"How likely are you to correctly recall the second item in the pair?|Type your response on a scale from 0-100 and then press Enter.",Study/JOL,"Study Phase",6902,,,5016,5312,,,,30,1
5ea964a32f7b3304bb975a05,kj96ytstpq,Trevor_EX2,1,25,2020-07-23T14:31:33-07:00,7.6300141811371,1,Pure_Unrelated.csv,JOL_S_VersionA.csv,"Size U A","Size U A",BROAD,INFECT,Study1,U,75,44,JOL_Small,User,-,"How likely are you to correctly recall the second item in the pair?|Type your response on a scale from 0-100 and then press Enter.",Study/JOL,"Study Phase",7240,,,5359,5628,,,,20,1
5ea964a32f7b3304bb975a05,kj96ytstpq,Trevor_EX2,1,26,2020-07-23T14:31:38-07:00,5.1193900108337,1,Pure_Unrelated.csv,JOL_S_VersionA.csv,"Size U A","Size U A",CRACKLE,ABLE,Study1,U,12,46,JOL_Small,User,-,"How likely are you to correctly recall the second item in the pair?|Type your response on a scale from 0-100 and then press Enter.",Study/JOL,"Study Phase",4811,,,3149,3380,,,,20,1
5ea964a32f7b3304bb975a05,kj96ytstpq,Trevor_EX2,1,27,2020-07-23T14:31:43-07:00,5.6198558807373,1,Pure_Unrelated.csv,JOL_S_VersionA.csv,"Size U A","Size U A",DIZZY,SWEATER,Study1,U,77,25,JOL_Large,User,-,"How likely are you to correctly recall the second item in the pair?|Type your response on a scale from 0-100 and then press Enter.",Study/JOL,"Study Phase",5284,,,3574,3809,,,,30,1
5ea964a32f7b3304bb975a05,kj96ytstpq,Trevor_EX2,1,28,2020-07-23T14:31:49-07:00,6.0585660934448,1,Pure_Unrelated.csv,JOL_S_VersionA.csv,"Size U A","Size U A",INFLATE,DISGUST,Study1,U,76,19,JOL_Large,User,-,"How likely are you to correctly recall the second item in the pair?|Type your response on a scale from 0-100 and then press Enter.",Study/JOL,"Study Phase",5724,,,3966,4185,,,,30,1
5ea964a32f7b3304bb975a05,kj96ytstpq,Trevor_EX2,1,29,2020-07-23T14:31:54-07:00,4.1612319946289,1,Pure_Unrelated.csv,JOL_S_VersionA.csv,"Size U A","Size U A",PET,MOON,Study1,U,74,33,JOL_Small,User,-,"How likely are you to correctly recall the second item in the pair?|Type your response on a scale from 0-100 and then press Enter.",Study/JOL,"Study Phase",3846,,,2066,2325,,,,20,1
5ea964a32f7b3304bb975a05,kj96ytstpq,Trevor_EX2,1,30,2020-07-23T14:32:00-07:00,5.8884539604187,1,Pure_Unrelated.csv,JOL_S_VersionA.csv,"Size U A","Size U A",BOTH,OUNCE,Study1,U,22,14,JOL_Large,User,-,"How likely are you to correctly recall the second item in the pair?|Type your response on a scale from 0-100 and then press Enter.",Study/JOL,"Study Phase",5527,,,3770,3990,,,,30,1
5ea964a32f7b3304bb975a05,kj96ytstpq,Trevor_EX2,1,31,2020-07-23T14:32:05-07:00,5.0036189556122,1,Pure_Unrelated.csv,JOL_S_VersionA.csv,"Size U A","Size U A",DIFFICULT,POOR,Study1,U,81,40,JOL_Small,User,-,"How likely are you to correctly recall the second item in the pair?|Type your response on a scale from 0-100 and then press Enter.",Study/JOL,"Study Phase",4583,,,2949,3160,,,,20,1
5ea964a32f7b3304bb975a05,kj96ytstpq,Trevor_EX2,1,32,2020-07-23T14:32:08-07:00,3.8340120315552,1,Pure_Unrelated.csv,JOL_S_VersionA.csv,"Size U A","Size U A",NAME,HATE,Study1,U,17,34,JOL_Small,User,-,"How likely are you to correctly recall the second item in the pair?|Type your response on a scale from 0-100 and then press Enter.",Study/JOL,"Study Phase",3521,,,1856,2139,,,,20,1
5ea964a32f7b3304bb975a05,kj96ytstpq,Trevor_EX2,1,33,2020-07-23T14:32:13-07:00,4.3593928813934,1,Pure_Unrelated.csv,JOL_S_VersionA.csv,"Size U A","Size U A",BAT,SHAKY,Study1,U,66,12,JOL_Large,User,-,"How likely are you to correctly recall the second item in the pair?|Type your response on a scale from 0-100 and then press Enter.",Study/JOL,"Study Phase",3987,,,2305,2567,,,,30,1
5ea964a32f7b3304bb975a05,kj96ytstpq,Trevor_EX2,1,34,2020-07-23T14:32:19-07:00,5.815526008606,1,Pure_Unrelated.csv,JOL_S_VersionA.csv,"Size U A","Size U A",MAZE,ELECTION,Study1,U,9,41,JOL_Small,User,-,"How likely are you to correctly recall the second item in the pair?|Type your response on a scale from 0-100 and then press Enter.",Study/JOL,"Study Phase",5513,,,3693,3968,,,,20,1
5ea964a32f7b3304bb975a05,kj96ytstpq,Trevor_EX2,1,35,2020-07-23T14:32:22-07:00,3.5750331878662,1,Pure_Unrelated.csv,JOL_S_VersionA.csv,"Size U A","Size U A",ROSE,NEGLECT,Study1,U,82,11,JOL_Large,User,-,"How likely are you to correctly recall the second item in the pair?|Type your response on a scale from 0-100 and then press Enter.",Study/JOL,"Study Phase",3227,,,1651,1911,,,,30,1
5ea964a32f7b3304bb975a05,kj96ytstpq,Trevor_EX2,1,36,2020-07-23T14:32:29-07:00,6.9711549282074,1,Pure_Unrelated.csv,JOL_S_VersionA.csv,"Size U A","Size U A",RIPE,VERIFY,Study1,U,83,16,JOL_Large,User,-,"How likely are you to correctly recall the second item in the pair?|Type your response on a scale from 0-100 and then press Enter.",Study/JOL,"Study Phase",6622,,,4971,5190,,,,30,1
5ea964a32f7b3304bb975a05,kj96ytstpq,Trevor_EX2,1,37,2020-07-23T14:32:38-07:00,9.1874299049377,1,Pure_Unrelated.csv,JOL_S_VersionA.csv,"Size U A","Size U A",CAKE,CLOTHES,Study1,U,16,21,JOL_Large,User,-,"How likely are you to correctly recall the second item in the pair?|Type your response on a scale from 0-100 and then press Enter.",Study/JOL,"Study Phase",8836,,,1826,2097,,,,30,1
5ea964a32f7b3304bb975a05,kj96ytstpq,Trevor_EX2,1,38,2020-07-23T14:32:42-07:00,4.0147130489349,1,Pure_Unrelated.csv,JOL_S_VersionA.csv,"Size U A","Size U A",THICK,CONTEST,Study1,U,73,35,JOL_Small,User,-,"How likely are you to correctly recall the second item in the pair?|Type your response on a scale from 0-100 and then press Enter.",Study/JOL,"Study Phase",3700,,,2228,2461,,,,20,1
5ea964a32f7b3304bb975a05,kj96ytstpq,Trevor_EX2,1,39,2020-07-23T14:32:46-07:00,3.8695590496063,1,Pure_Unrelated.csv,JOL_S_VersionA.csv,"Size U A","Size U A",GRIND,STAND,Study1,U,85,7,JOL_Large,User,-,"How likely are you to correctly recall the second item in the pair?|Type your response on a scale from 0-100 and then press Enter.",Study/JOL,"Study Phase",3564,,,2061,2289,,,,30,1
5ea964a32f7b3304bb975a05,kj96ytstpq,Trevor_EX2,1,40,2020-07-23T14:32:50-07:00,3.8045768737793,1,Pure_Unrelated.csv,JOL_S_VersionA.csv,"Size U A","Size U A",MIRROR,CHILDREN,Study1,U,24,15,JOL_Large,User,-,"How likely are you to correctly recall the second item in the pair?|Type your response on a scale from 0-100 and then press Enter.",Study/JOL,"Study Phase",3504,,,1698,1925,,,,30,1
5ea964a32f7b3304bb975a05,kj96ytstpq,Trevor_EX2,1,41,2020-07-23T14:32:53-07:00,3.3070111274719,1,Pure_Unrelated.csv,JOL_S_VersionA.csv,"Size U A","Size U A",NUMBER,HARD,Study1,U,78,8,JOL_Large,User,-,"How likely are you to correctly recall the second item in the pair?|Type your response on a scale from 0-100 and then press Enter.",Study/JOL,"Study Phase",2947,,,1229,1464,,,,30,1
5ea964a32f7b3304bb975a05,kj96ytstpq,Trevor_EX2,1,42,2020-07-23T14:32:57-07:00,3.4837520122528,1,Pure_Unrelated.csv,JOL_S_VersionA.csv,"Size U A","Size U A",LOAN,SIGN,Study1,U,21,9,JOL_Large,User,-,"How likely are you to correctly recall the second item in the pair?|Type your response on a scale from 0-100 and then press Enter.",Study/JOL,"Study Phase",3165,,,1682,1875,,,,40,1
5ea964a32f7b3304bb975a05,kj96ytstpq,Trevor_EX2,1,43,2020-07-23T14:33:09-07:00,12.26908493042,1,Pure_Unrelated.csv,JOL_S_VersionA.csv,"Size U A","Size U A",TEMPERATURE,MORNING,Study1,U,23,26,JOL_Large,User,-,"How likely are you to correctly recall the second item in the pair?|Type your response on a scale from 0-100 and then press Enter.",Study/JOL,"Study Phase",11856,,,10184,10422,,,,30,1
5ea964a32f7b3304bb975a05,kj96ytstpq,Trevor_EX2,1,44,2020-07-23T14:33:13-07:00,4.2167830467224,1,Pure_Unrelated.csv,JOL_S_VersionA.csv,"Size U A","Size U A",LISTEN,FICTION,Study1,U,14,42,JOL_Small,User,-,"How likely are you to correctly recall the second item in the pair?|Type your response on a scale from 0-100 and then press Enter.",Study/JOL,"Study Phase",3871,,,2224,2463,,,,20,1
5ea964a32f7b3304bb975a05,kj96ytstpq,Trevor_EX2,1,45,2020-07-23T14:33:17-07:00,3.3685390949249,1,Pure_Unrelated.csv,JOL_S_VersionA.csv,"Size U A","Size U A",RESIST,GLUE,Study1,U,69,31,JOL_Small,User,-,"How likely are you to correctly recall the second item in the pair?|Type your response on a scale from 0-100 and then press Enter.",Study/JOL,"Study Phase",3064,,,1688,1883,,,,20,1
5ea964a32f7b3304bb975a05,kj96ytstpq,Trevor_EX2,1,46,2020-07-23T14:33:21-07:00,4.5497889518738,1,Pure_Unrelated.csv,JOL_S_VersionA.csv,"Size U A","Size U A",GIVE,STEAK,Study1,U,8,20,JOL_Large,User,-,"How likely are you to correctly recall the second item in the pair?|Type your response on a scale from 0-100 and then press Enter.",Study/JOL,"Study Phase",4224,,,2601,2805,,,,30,1
5ea964a32f7b3304bb975a05,kj96ytstpq,Trevor_EX2,1,47,2020-07-23T14:33:25-07:00,3.7708230018616,1,Pure_Unrelated.csv,JOL_S_VersionA.csv,"Size U A","Size U A",JUSTICE,MAROON,Study1,U,6,13,JOL_Large,User,-,"How likely are you to correctly recall the second item in the pair?|Type your response on a scale from 0-100 and then press Enter.",Study/JOL,"Study Phase",3458,,,1891,2154,,,,30,1
5ea964a32f7b3304bb975a05,kj96ytstpq,Trevor_EX2,1,48,2020-07-23T14:33:29-07:00,4.3605799674988,1,Pure_Unrelated.csv,JOL_S_VersionA.csv,"Size U A","Size U A",FUTURE,SINCERE,Study1,U,70,36,JOL_Small,User,-,"How likely are you to correctly recall the second item in the pair?|Type your response on a scale from 0-100 and then press Enter.",Study/JOL,"Study Phase",3947,,,2179,2501,,,,20,1
5ea964a32f7b3304bb975a05,kj96ytstpq,Trevor_EX2,1,49,2020-07-23T14:33:35-07:00,5.2456429004669,1,Pure_Unrelated.csv,JOL_S_VersionA.csv,"Size U A","Size U A",PARCEL,THROAT,Study1,U,67,17,JOL_Large,User,-,"How likely are you to correctly recall the second item in the pair?|Type your response on a scale from 0-100 and then press Enter.",Study/JOL,"Study Phase",4895,,,2947,3197,,,,20,1
5ea964a32f7b3304bb975a05,kj96ytstpq,Trevor_EX2,1,50,2020-07-23T14:33:38-07:00,3.2800099849701,1,Pure_Unrelated.csv,JOL_S_VersionA.csv,"Size U A","Size U A",SHELL,SHAKE,Study1,U,13,23,JOL_Large,User,-,"How likely are you to correctly recall the second item in the pair?|Type your response on a scale from 0-100 and then press Enter.",Study/JOL,"Study Phase",2945,,,1525,1744,,,,30,1
5ea964a32f7b3304bb975a05,kj96ytstpq,Trevor_EX2,1,51,2020-07-23T14:33:43-07:00,5.2390899658203,1,Pure_Unrelated.csv,JOL_S_VersionA.csv,"Size U A","Size U A",THING,STUFF,BUFFER2,Buffer,90,51,JOL_Large,User,-,"How likely are you to correctly recall the second item in the pair?|Type your response on a scale from 0-100 and then press Enter.",Study/JOL,BUFFER2,4914,,,1060,1464,,,,30,1
5ea964a32f7b3304bb975a05,kj96ytstpq,Trevor_EX2,1,52,2020-07-23T14:33:47-07:00,3.6907420158386,1,Pure_Unrelated.csv,JOL_S_VersionA.csv,"Size U A","Size U A",GEESE,GOOSE,BUFFER2,Buffer,86,47,JOL_Large,User,-,"How likely are you to correctly recall the second item in the pair?|Type your response on a scale from 0-100 and then press Enter.",Study/JOL,BUFFER2,3267,,,1787,2000,,,,30,1
5ea964a32f7b3304bb975a05,kj96ytstpq,Trevor_EX2,1,53,2020-07-23T14:33:51-07:00,4.4586710929871,1,Pure_Unrelated.csv,JOL_S_VersionA.csv,"Size U A","Size U A",MALT,CHOCOLATE,BUFFER2,Buffer,88,50,JOL_Small,User,-,"How likely are you to correctly recall the second item in the pair?|Type your response on a scale from 0-100 and then press Enter.",Study/JOL,BUFFER2,4142,,,2509,2747,,,,30,1
5ea964a32f7b3304bb975a05,kj96ytstpq,Trevor_EX2,1,54,2020-07-23T14:33:56-07:00,4.6004710197449,1,Pure_Unrelated.csv,JOL_S_VersionA.csv,"Size U A","Size U A",MOON,SPACE,BUFFER2,Buffer,89,49,JOL_Small,User,-,"How likely are you to correctly recall the second item in the pair?|Type your response on a scale from 0-100 and then press Enter.",Study/JOL,BUFFER2,4260,,,2799,2979,,,,20,1
5ea964a32f7b3304bb975a05,kj96ytstpq,Trevor_EX2,1,55,2020-07-23T14:33:59-07:00,3.6789059638977,1,Pure_Unrelated.csv,JOL_S_VersionA.csv,"Size U A","Size U A",SHERRIF,POLICE,BUFFER2,Buffer,87,48,JOL_Large,User,-,"How likely are you to correctly recall the second item in the pair?|Type your response on a scale from 0-100 and then press Enter.",Study/JOL,BUFFER2,3281,,,1664,1869,,,,30,1
5ea964a32f7b3304bb975a05,kj96ytstpq,Trevor_EX2,1,56,2020-07-23T14:34:03-07:00,3.7548680305481,1,Pure_Unrelated.csv,JOL_S_VersionA.csv,"Size U A","Size U A",,,,,,0,Instruct,User,-,"You have completed this section. Please press Enter.",Filler_Instruction,Instruct2,3455,,,-1,-1,,,,,1
5ea964a32f7b3304bb975a05,kj96ytstpq,Trevor_EX2,1,57,2020-07-23T14:36:04-07:00,120.35750102997,1,Pure_Unrelated.csv,JOL_S_VersionA.csv,"Size U A","Size U A",,,,,,0,FreeRecall,120,120,"Please list the 50 US states in alphabetical order. The task will automatically advance to the next screen after two minutes.",,Filler1,120002,"Alabama California calarado delaware florida",0,45915,114430,0,0,,,1
5ea964a32f7b3304bb975a05,kj96ytstpq,Trevor_EX2,1,58,2020-07-23T14:36:21-07:00,17.399785041809,1,Pure_Unrelated.csv,JOL_S_VersionA.csv,"Size U A","Size U A",,,,,,0,Instruct,-,10,"You will now be presented with the first word from each of the previously studied item pairs. Please type the missing word. If you do not know the word, you may guess or press Enter to skip forward to the next pair.",,Instruct3,17096,,,-1,-1,,,,,1
5ea964a32f7b3304bb975a05,kj96ytstpq,Trevor_EX2,1,59,2020-07-23T14:36:35-07:00,13.938792943954,1,Pure_Unrelated.csv,JOL_S_VersionA.csv,"Size U A","Size U A",NUMBER,HARD,Study1,U,78,8,Test,User,-,,Recall,Recall1,13562,ten,0,9747,10969,0,0,,,1
5ea964a32f7b3304bb975a05,kj96ytstpq,Trevor_EX2,1,60,2020-07-23T14:36:44-07:00,9.0778470039368,1,Pure_Unrelated.csv,JOL_S_VersionA.csv,"Size U A","Size U A",DONKEY,LUSH,Study1,U,84,30,Test,User,-,,Recall,Recall1,8757,ass,28.571428571429,6902,7500,0,0,,,1
5ea964a32f7b3304bb975a05,kj96ytstpq,Trevor_EX2,1,61,2020-07-23T14:36:52-07:00,7.9972259998322,1,Pure_Unrelated.csv,JOL_S_VersionA.csv,"Size U A","Size U A",MOAT,CLEAR,Study1,U,19,38,Test,User,-,,Recall,Recall1,7513,boat,22.222222222222,3959,5347,0,0,,,1
5ea964a32f7b3304bb975a05,kj96ytstpq,Trevor_EX2,1,62,2020-07-23T14:37:00-07:00,8.3654589653015,1,Pure_Unrelated.csv,JOL_S_VersionA.csv,"Size U A","Size U A",NAME,HATE,Study1,U,17,34,Test,User,-,,Recall,Recall1,7989,,0,-1,-1,0,0,,,1
5ea964a32f7b3304bb975a05,kj96ytstpq,Trevor_EX2,1,63,2020-07-23T14:37:04-07:00,3.5165729522705,1,Pure_Unrelated.csv,JOL_S_VersionA.csv,"Size U A","Size U A",RESIST,GLUE,Study1,U,69,31,Test,User,-,,Recall,Recall1,3098,,0,-1,-1,0,0,,,1
5ea964a32f7b3304bb975a05,kj96ytstpq,Trevor_EX2,1,64,2020-07-23T14:37:08-07:00,4.0213119983673,1,Pure_Unrelated.csv,JOL_S_VersionA.csv,"Size U A","Size U A",VEHICLE,CHARM,Study1,U,10,32,Test,User,-,,Recall,Recall1,3630,car,75,1855,2389,0,1,,,1
5ea964a32f7b3304bb975a05,kj96ytstpq,Trevor_EX2,1,65,2020-07-23T14:37:12-07:00,4.3282699584961,1,Pure_Unrelated.csv,JOL_S_VersionA.csv,"Size U A","Size U A",MAIN,SCAR,Study1,U,25,43,Test,User,-,,Recall,Recall1,3974,man,28.571428571429,2274,2720,0,0,,,1
5ea964a32f7b3304bb975a05,kj96ytstpq,Trevor_EX2,1,66,2020-07-23T14:37:19-07:00,6.9404850006104,1,Pure_Unrelated.csv,JOL_S_VersionA.csv,"Size U A","Size U A",RIPE,VERIFY,Study1,U,83,16,Test,User,-,,Recall,Recall1,6589,fruit,18.181818181818,3833,5389,0,0,,,1
5ea964a32f7b3304bb975a05,kj96ytstpq,Trevor_EX2,1,67,2020-07-23T14:37:30-07:00,10.551998138428,1,Pure_Unrelated.csv,JOL_S_VersionA.csv,"Size U A","Size U A",MIRROR,CHILDREN,Study1,U,24,15,Test,User,-,,Recall,Recall1,10216,man,18.181818181818,8285,8757,0,0,,,1
5ea964a32f7b3304bb975a05,kj96ytstpq,Trevor_EX2,1,68,2020-07-23T14:37:40-07:00,10.150995969772,1,Pure_Unrelated.csv,JOL_S_VersionA.csv,"Size U A","Size U A",DEGREE,CHAIR,Study1,U,71,39,Test,User,-,,Recall,Recall1,9806,,0,-1,-1,0,0,,,1
5ea964a32f7b3304bb975a05,kj96ytstpq,Trevor_EX2,1,69,2020-07-23T14:37:45-07:00,5.0226318836212,1,Pure_Unrelated.csv,JOL_S_VersionA.csv,"Size U A","Size U A",BROAD,INFECT,Study1,U,75,44,Test,User,-,,Recall,Recall1,4709,wide,40,2301,3466,0,0,,,1
5ea964a32f7b3304bb975a05,kj96ytstpq,Trevor_EX2,1,70,2020-07-23T14:37:48-07:00,3.0730872154236,1,Pure_Unrelated.csv,JOL_S_VersionA.csv,"Size U A","Size U A",TAX,OWL,Study1,U,72,18,Test,User,-,,Recall,Recall1,2745,,0,-1,-1,0,0,,,1
5ea964a32f7b3304bb975a05,kj96ytstpq,Trevor_EX2,1,71,2020-07-23T14:37:54-07:00,5.6542448997498,1,Pure_Unrelated.csv,JOL_S_VersionA.csv,"Size U A","Size U A",MEAT,OBTAIN,Study1,U,11,45,Test,User,-,,Recall,Recall1,5331,,0,-1,-1,0,0,,,1
5ea964a32f7b3304bb975a05,kj96ytstpq,Trevor_EX2,1,72,2020-07-23T14:38:06-07:00,12.578988075256,1,Pure_Unrelated.csv,JOL_S_VersionA.csv,"Size U A","Size U A",JUSTICE,MAROON,Study1,U,6,13,Test,User,-,,Recall,Recall1,12169,judge,0,8939,10627,0,0,,,1
5ea964a32f7b3304bb975a05,kj96ytstpq,Trevor_EX2,1,73,2020-07-23T14:38:12-07:00,6.0222029685974,1,Pure_Unrelated.csv,JOL_S_VersionA.csv,"Size U A","Size U A",STRETCH,CLOTH,Study1,U,7,22,Test,User,-,,Recall,Recall1,5592,long,44.444444444444,3134,4326,0,0,,,1
5ea964a32f7b3304bb975a05,kj96ytstpq,Trevor_EX2,1,74,2020-07-23T14:38:19-07:00,6.6555359363556,1,Pure_Unrelated.csv,JOL_S_VersionA.csv,"Size U A","Size U A",KEYS,JOKE,Study1,U,15,10,Test,User,-,,Recall,Recall1,6319,house,44.444444444444,2447,4708,0,0,,,1
5ea964a32f7b3304bb975a05,kj96ytstpq,Trevor_EX2,1,75,2020-07-23T14:38:26-07:00,7.4911839962006,1,Pure_Unrelated.csv,JOL_S_VersionA.csv,"Size U A","Size U A",CAKE,CLOTHES,Study1,U,16,21,Test,User,-,,Recall,Recall1,7152,birthday,26.666666666667,2577,5895,0,0,,,1
5ea964a32f7b3304bb975a05,kj96ytstpq,Trevor_EX2,1,76,2020-07-23T14:38:32-07:00,5.3448050022125,1,Pure_Unrelated.csv,JOL_S_VersionA.csv,"Size U A","Size U A",MAZE,ELECTION,Study1,U,9,41,Test,User,-,,Recall,Recall1,5025,hide,16.666666666667,2524,3730,0,0,,,1
5ea964a32f7b3304bb975a05,kj96ytstpq,Trevor_EX2,1,77,2020-07-23T14:38:39-07:00,6.7784199714661,1,Pure_Unrelated.csv,JOL_S_VersionA.csv,"Size U A","Size U A",DIFFICULT,POOR,Study1,U,81,40,Test,User,-,,Recall,Recall1,5250,easy,0,2601,3885,0,0,,,1
5ea964a32f7b3304bb975a05,kj96ytstpq,Trevor_EX2,1,78,2020-07-23T14:38:45-07:00,6.3181829452515,1,Pure_Unrelated.csv,JOL_S_VersionA.csv,"Size U A","Size U A",BAT,SHAKY,Study1,U,66,12,Test,User,-,,Recall,Recall1,5930,ball,22.222222222222,3737,4755,0,0,,,1
5ea964a32f7b3304bb975a05,kj96ytstpq,Trevor_EX2,1,79,2020-07-23T14:38:49-07:00,4.2620351314545,1,Pure_Unrelated.csv,JOL_S_VersionA.csv,"Size U A","Size U A",CRACKLE,ABLE,Study1,U,12,46,Test,User,-,,Recall,Recall1,3842,pop,0,2068,2572,0,0,,,1
5ea964a32f7b3304bb975a05,kj96ytstpq,Trevor_EX2,1,80,2020-07-23T14:38:52-07:00,2.9107449054718,1,Pure_Unrelated.csv,JOL_S_VersionA.csv,"Size U A","Size U A",DIZZY,SWEATER,Study1,U,77,25,Test,User,-,,Recall,Recall1,2569,,0,-1,-1,0,0,,,1
5ea964a32f7b3304bb975a05,kj96ytstpq,Trevor_EX2,1,81,2020-07-23T14:38:58-07:00,6.5053541660309,1,Pure_Unrelated.csv,JOL_S_VersionA.csv,"Size U A","Size U A",CRAYON,RATE,Study1,U,79,37,Test,User,-,,Recall,Recall1,6098,paper,44.444444444444,3759,4986,0,0,,,1
5ea964a32f7b3304bb975a05,kj96ytstpq,Trevor_EX2,1,82,2020-07-23T14:39:01-07:00,2.706934928894,1,Pure_Unrelated.csv,JOL_S_VersionA.csv,"Size U A","Size U A",LEASE,TOIL,Study1,U,20,27,Test,User,-,,Recall,Recall1,2346,,0,-1,-1,0,0,,,1
5ea964a32f7b3304bb975a05,kj96ytstpq,Trevor_EX2,1,83,2020-07-23T14:39:08-07:00,6.8958668708801,1,Pure_Unrelated.csv,JOL_S_VersionA.csv,"Size U A","Size U A",LOAN,SIGN,Study1,U,21,9,Test,User,-,,Recall,Recall1,6496,borrow,0,3538,5422,0,0,,,1
5ea964a32f7b3304bb975a05,kj96ytstpq,Trevor_EX2,1,84,2020-07-23T14:39:15-07:00,6.7366511821747,1,Pure_Unrelated.csv,JOL_S_VersionA.csv,"Size U A","Size U A",FUTURE,SINCERE,Study1,U,70,36,Test,User,-,,Recall,Recall1,6350,bright,15.384615384615,3319,5174,0,0,,,1
5ea964a32f7b3304bb975a05,kj96ytstpq,Trevor_EX2,1,85,2020-07-23T14:39:17-07:00,2.2697379589081,1,Pure_Unrelated.csv,JOL_S_VersionA.csv,"Size U A","Size U A",GRIND,STAND,Study1,U,85,7,Test,User,-,,Recall,Recall1,1866,,0,-1,-1,0,0,,,1
5ea964a32f7b3304bb975a05,kj96ytstpq,Trevor_EX2,1,86,2020-07-23T14:39:24-07:00,6.46808385849,1,Pure_Unrelated.csv,JOL_S_VersionA.csv,"Size U A","Size U A",LISTEN,FICTION,Study1,U,14,42,Test,User,-,,Recall,Recall1,6070,ears,0,2763,4759,0,0,,,1
5ea964a32f7b3304bb975a05,kj96ytstpq,Trevor_EX2,1,87,2020-07-23T14:39:34-07:00,10.47229719162,1,Pure_Unrelated.csv,JOL_S_VersionA.csv,"Size U A","Size U A",STRESS,YAM,Study1,U,68,29,Test,User,-,,Recall,Recall1,10110,relief,0,6960,8974,0,0,,,1
5ea964a32f7b3304bb975a05,kj96ytstpq,Trevor_EX2,1,88,2020-07-23T14:39:40-07:00,5.8205687999725,1,Pure_Unrelated.csv,JOL_S_VersionA.csv,"Size U A","Size U A",PET,MOON,Study1,U,74,33,Test,User,-,,Recall,Recall1,5478,cat,0,3136,4034,0,0,,,1
5ea964a32f7b3304bb975a05,kj96ytstpq,Trevor_EX2,1,89,2020-07-23T14:39:45-07:00,5.0509140491486,1,Pure_Unrelated.csv,JOL_S_VersionA.csv,"Size U A","Size U A",ROSE,NEGLECT,Study1,U,82,11,Test,User,-,,Recall,Recall1,4696,petal,33.333333333333,1917,3424,0,0,,,1
5ea964a32f7b3304bb975a05,kj96ytstpq,Trevor_EX2,1,90,2020-07-23T14:40:09-07:00,24.347732067108,1,Pure_Unrelated.csv,JOL_S_VersionA.csv,"Size U A","Size U A",TEMPERATURE,MORNING,Study1,U,23,26,Test,User,-,,Recall,Recall1,24024,,0,-1,-1,0,0,,,1
5ea964a32f7b3304bb975a05,kj96ytstpq,Trevor_EX2,1,91,2020-07-23T14:40:18-07:00,8.4971699714661,1,Pure_Unrelated.csv,JOL_S_VersionA.csv,"Size U A","Size U A",FUZZY,BANG,Study1,U,18,28,Test,User,-,,Recall,Recall1,8153,fluffy,0,3616,6837,0,0,,,1
5ea964a32f7b3304bb975a05,kj96ytstpq,Trevor_EX2,1,92,2020-07-23T14:40:24-07:00,5.9643630981445,1,Pure_Unrelated.csv,JOL_S_VersionA.csv,"Size U A","Size U A",BOTH,OUNCE,Study1,U,22,14,Test,User,-,,Recall,Recall1,5618,pair,0,2990,4346,0,0,,,1
5ea964a32f7b3304bb975a05,kj96ytstpq,Trevor_EX2,1,93,2020-07-23T14:40:30-07:00,6.2830328941345,1,Pure_Unrelated.csv,JOL_S_VersionA.csv,"Size U A","Size U A",INFLATE,DISGUST,Study1,U,76,19,Test,User,-,,Recall,Recall1,5966,ball,0,3818,4702,0,0,,,1
5ea964a32f7b3304bb975a05,kj96ytstpq,Trevor_EX2,1,94,2020-07-23T14:40:34-07:00,3.7926731109619,1,Pure_Unrelated.csv,JOL_S_VersionA.csv,"Size U A","Size U A",WARN,SEA,Study1,U,80,24,Test,User,-,,Recall,Recall1,3413,,0,-1,-1,0,0,,,1
5ea964a32f7b3304bb975a05,kj96ytstpq,Trevor_EX2,1,95,2020-07-23T14:40:41-07:00,7.5585649013519,1,Pure_Unrelated.csv,JOL_S_VersionA.csv,"Size U A","Size U A",GIVE,STEAK,Study1,U,8,20,Test,User,-,,Recall,Recall1,7167,,0,-1,-1,0,0,,,1
5ea964a32f7b3304bb975a05,kj96ytstpq,Trevor_EX2,1,96,2020-07-23T14:40:48-07:00,6.258740901947,1,Pure_Unrelated.csv,JOL_S_VersionA.csv,"Size U A","Size U A",SHELL,SHAKE,Study1,U,13,23,Test,User,-,,Recall,Recall1,5850,sea,50,2554,4823,0,0,,,1
5ea964a32f7b3304bb975a05,kj96ytstpq,Trevor_EX2,1,97,2020-07-23T14:40:54-07:00,6.0643050670624,1,Pure_Unrelated.csv,JOL_S_VersionA.csv,"Size U A","Size U A",THICK,CONTEST,Study1,U,73,35,Test,User,-,,Recall,Recall1,5666,thin,18.181818181818,3069,4327,0,0,,,1
5ea964a32f7b3304bb975a05,kj96ytstpq,Trevor_EX2,1,98,2020-07-23T14:41:00-07:00,6.2865591049194,1,Pure_Unrelated.csv,JOL_S_VersionA.csv,"Size U A","Size U A",PARCEL,THROAT,Study1,U,67,17,Test,User,-,,Recall,Recall1,5923,post,40,3082,4286,0,0,,,1
5ea964a32f7b3304bb975a05,kj96ytstpq,Trevor_EX2,1,99,2020-07-23T14:41:11-07:00,10.999034881592,1,Pure_Unrelated.csv,JOL_S_VersionA.csv,"Size U A","Size U A",,,,,,0,Instruct,-,10,"You will now be presented with a new set of word pairs. Please study each pair. Remember that your memory will be tested! When finished, press Enter to move to the next pair.",Initial_Instruct,Instruct4,10700,,,-1,-1,,,,,1
5ea964a32f7b3304bb975a05,kj96ytstpq,Trevor_EX2,1,100,2020-07-23T14:41:23-07:00,12.220638990402,1,Pure_Unrelated.csv,JOL_S_VersionA.csv,"Size U A","Size U A",,,,,,0,Instruct,,10,"You will again be asked to rate your ability to remember these items using a 0 to 100 scale. Remember to use the full range of the scale!",,Instruct10,11832,,,-1,-1,,,,,1
5ea964a32f7b3304bb975a05,kj96ytstpq,Trevor_EX2,1,101,2020-07-23T14:41:35-07:00,11.721878051758,1,Pure_Unrelated.csv,JOL_S_VersionA.csv,"Size U A","Size U A",,,,,,0,Instruct,User,-,"Press Enter when you are readty to begin",,Instruct11,11414,,,-1,-1,,,,,1
5ea964a32f7b3304bb975a05,kj96ytstpq,Trevor_EX2,1,102,2020-07-23T14:41:47-07:00,11.769748926163,1,Pure_Unrelated.csv,JOL_S_VersionA.csv,"Size U A","Size U A",SHRIMP,FISH,BUFFER3,Buffer,93,55,JOL_Large,User,-,"How likely are you to correctly recall the second item in the pair?|Type your response on a scale from 0-100 and then press Enter.",Study/JOL,BUFFER3,11456,,,8684,9352,,,,60,1
5ea964a32f7b3304bb975a05,kj96ytstpq,Trevor_EX2,1,103,2020-07-23T14:41:57-07:00,9.8531541824341,1,Pure_Unrelated.csv,JOL_S_VersionA.csv,"Size U A","Size U A",NOODLE,STRING,BUFFER3,Buffer,92,54,JOL_Small,User,-,"How likely are you to correctly recall the second item in the pair?|Type your response on a scale from 0-100 and then press Enter.",Study/JOL,BUFFER3,8422,,,5512,6471,,,,30,1
5ea964a32f7b3304bb975a05,kj96ytstpq,Trevor_EX2,1,104,2020-07-23T14:42:05-07:00,8.4743859767914,1,Pure_Unrelated.csv,JOL_S_VersionA.csv,"Size U A","Size U A",CAMP,ADVENTURE,BUFFER3,Buffer,95,52,JOL_Small,User,-,"How likely are you to correctly recall the second item in the pair?|Type your response on a scale from 0-100 and then press Enter.",Study/JOL,BUFFER3,8073,,,5399,6124,,,,30,1
5ea964a32f7b3304bb975a05,kj96ytstpq,Trevor_EX2,1,105,2020-07-23T14:42:13-07:00,8.0515079498291,1,Pure_Unrelated.csv,JOL_S_VersionA.csv,"Size U A","Size U A",ICE,FROZEN,BUFFER3,Buffer,94,56,JOL_Large,User,-,"How likely are you to correctly recall the second item in the pair?|Type your response on a scale from 0-100 and then press Enter.",Study/JOL,BUFFER3,7638,,,5420,6125,,,,60,1
5ea964a32f7b3304bb975a05,kj96ytstpq,Trevor_EX2,1,106,2020-07-23T14:42:21-07:00,7.6148109436035,1,Pure_Unrelated.csv,JOL_S_VersionA.csv,"Size U A","Size U A",CARROT,POTATO,BUFFER3,Buffer,91,53,JOL_Small,User,-,"How likely are you to correctly recall the second item in the pair?|Type your response on a scale from 0-100 and then press Enter.",Study/JOL,BUFFER3,7257,,,5207,5958,,,,30,1
5ea964a32f7b3304bb975a05,kj96ytstpq,Trevor_EX2,1,107,2020-07-23T14:42:29-07:00,8.680860042572,1,Pure_Unrelated.csv,JOL_S_VersionA.csv,"Size U A","Size U A",DETECT,FREE,Study2,U,162,59,JOL_Large,User,-,"How likely are you to correctly recall the second item in the pair?|Type your response on a scale from 0-100 and then press Enter.",Study/JOL,"Study Phase2",8257,,,4983,5712,,,,50,1
5ea964a32f7b3304bb975a05,kj96ytstpq,Trevor_EX2,1,108,2020-07-23T14:42:37-07:00,7.6545760631561,1,Pure_Unrelated.csv,JOL_S_VersionA.csv,"Size U A","Size U A",PUFF,NUMBER,Study2,U,171,90,JOL_Small,User,-,"How likely are you to correctly recall the second item in the pair?|Type your response on a scale from 0-100 and then press Enter.",Study/JOL,"Study Phase2",7315,,,4791,5528,,,,20,1
5ea964a32f7b3304bb975a05,kj96ytstpq,Trevor_EX2,1,109,2020-07-23T14:42:44-07:00,6.7828090190887,1,Pure_Unrelated.csv,JOL_S_VersionA.csv,"Size U A","Size U A",SMOOTH,OMIT,Study2,U,157,69,JOL_Large,User,-,"How likely are you to correctly recall the second item in the pair?|Type your response on a scale from 0-100 and then press Enter.",Study/JOL,"Study Phase2",6314,,,3927,4581,,,,50,1
5ea964a32f7b3304bb975a05,kj96ytstpq,Trevor_EX2,1,110,2020-07-23T14:42:51-07:00,7.6879408359528,1,Pure_Unrelated.csv,JOL_S_VersionA.csv,"Size U A","Size U A",WASTE,SEDATE,Study2,U,165,67,JOL_Large,User,-,"How likely are you to correctly recall the second item in the pair?|Type your response on a scale from 0-100 and then press Enter.",Study/JOL,"Study Phase2",7354,,,5212,5878,,,,30,1
5ea964a32f7b3304bb975a05,kj96ytstpq,Trevor_EX2,1,111,2020-07-23T14:42:59-07:00,7.8766560554504,1,Pure_Unrelated.csv,JOL_S_VersionA.csv,"Size U A","Size U A",POSITION,MACHINE,Study2,U,106,71,JOL_Large,User,-,"How likely are you to correctly recall the second item in the pair?|Type your response on a scale from 0-100 and then press Enter.",Study/JOL,"Study Phase2",7556,,,5369,6087,,,,30,1
5ea964a32f7b3304bb975a05,kj96ytstpq,Trevor_EX2,1,112,2020-07-23T14:43:07-07:00,7.5591959953308,1,Pure_Unrelated.csv,JOL_S_VersionA.csv,"Size U A","Size U A",READY,CORN,Study2,U,158,65,JOL_Large,User,-,"How likely are you to correctly recall the second item in the pair?|Type your response on a scale from 0-100 and then press Enter.",Study/JOL,"Study Phase2",6086,,,4032,4631,,,,50,1
5ea964a32f7b3304bb975a05,kj96ytstpq,Trevor_EX2,1,113,2020-07-23T14:43:14-07:00,7.0959389209747,1,Pure_Unrelated.csv,JOL_S_VersionA.csv,"Size U A","Size U A",LAKE,OPINION,Study2,U,160,77,JOL_Small,User,-,"How likely are you to correctly recall the second item in the pair?|Type your response on a scale from 0-100 and then press Enter.",Study/JOL,"Study Phase2",6793,,,4778,5505,,,,20,1
5ea964a32f7b3304bb975a05,kj96ytstpq,Trevor_EX2,1,114,2020-07-23T14:43:24-07:00,9.5380690097809,1,Pure_Unrelated.csv,JOL_S_VersionA.csv,"Size U A","Size U A",BRONZE,ARTERY,Study2,U,104,62,JOL_Large,User,-,"How likely are you to correctly recall the second item in the pair?|Type your response on a scale from 0-100 and then press Enter.",Study/JOL,"Study Phase2",7979,,,5827,6552,,,,30,1
5ea964a32f7b3304bb975a05,kj96ytstpq,Trevor_EX2,1,115,2020-07-23T14:43:31-07:00,7.0007569789886,1,Pure_Unrelated.csv,JOL_S_VersionA.csv,"Size U A","Size U A",ADD,VALLEY,Study2,U,112,79,JOL_Small,User,-,"How likely are you to correctly recall the second item in the pair?|Type your response on a scale from 0-100 and then press Enter.",Study/JOL,"Study Phase2",6576,,,4543,5280,,,,20,1
5ea964a32f7b3304bb975a05,kj96ytstpq,Trevor_EX2,1,116,2020-07-23T14:43:40-07:00,9.0169651508331,1,Pure_Unrelated.csv,JOL_S_VersionA.csv,"Size U A","Size U A",VASE,KING,Study2,U,115,68,JOL_Large,User,-,"How likely are you to correctly recall the second item in the pair?|Type your response on a scale from 0-100 and then press Enter.",Study/JOL,"Study Phase2",8639,,,6969,7695,,,,30,1
5ea964a32f7b3304bb975a05,kj96ytstpq,Trevor_EX2,1,117,2020-07-23T14:43:46-07:00,6.4299409389496,1,Pure_Unrelated.csv,JOL_S_VersionA.csv,"Size U A","Size U A",Business,Death,Study2,U,102,70,JOL_Large,User,-,"How likely are you to correctly recall the second item in the pair?|Type your response on a scale from 0-100 and then press Enter.",Study/JOL,"Study Phase2",6067,,,3924,4567,,,,30,1
5ea964a32f7b3304bb975a05,kj96ytstpq,Trevor_EX2,1,118,2020-07-23T14:43:53-07:00,6.6225061416626,1,Pure_Unrelated.csv,JOL_S_VersionA.csv,"Size U A","Size U A",GUARD,WHEEL,Study2,U,170,73,JOL_Large,User,-,"How likely are you to correctly recall the second item in the pair?|Type your response on a scale from 0-100 and then press Enter.",Study/JOL,"Study Phase2",6235,,,3958,4666,,,,30,1
5ea964a32f7b3304bb975a05,kj96ytstpq,Trevor_EX2,1,119,2020-07-23T14:43:59-07:00,6.101536989212,1,Pure_Unrelated.csv,JOL_S_VersionA.csv,"Size U A","Size U A",JELLY,NAUGHTY,Study2,U,172,96,JOL_Small,User,-,"How likely are you to correctly recall the second item in the pair?|Type your response on a scale from 0-100 and then press Enter.",Study/JOL,"Study Phase2",5777,,,3818,4550,,,,20,1
5ea964a32f7b3304bb975a05,kj96ytstpq,Trevor_EX2,1,120,2020-07-23T14:44:05-07:00,6.4118368625641,1,Pure_Unrelated.csv,JOL_S_VersionA.csv,"Size U A","Size U A",SACKING,DIETARY,Study2,U,97,64,JOL_Large,User,-,"How likely are you to correctly recall the second item in the pair?|Type your response on a scale from 0-100 and then press Enter.",Study/JOL,"Study Phase2",6102,,,4100,4776,,,,30,1
5ea964a32f7b3304bb975a05,kj96ytstpq,Trevor_EX2,1,121,2020-07-23T14:44:14-07:00,8.4637989997864,1,Pure_Unrelated.csv,JOL_S_VersionA.csv,"Size U A","Size U A",DESIRE,NOISE,Study2,U,169,60,JOL_Large,User,-,"How likely are you to correctly recall the second item in the pair?|Type your response on a scale from 0-100 and then press Enter.",Study/JOL,"Study Phase2",8144,,,6061,6696,,,,40,1
5ea964a32f7b3304bb975a05,kj96ytstpq,Trevor_EX2,1,122,2020-07-23T14:44:22-07:00,8.2104859352112,1,Pure_Unrelated.csv,JOL_S_VersionA.csv,"Size U A","Size U A",SHELL,SHAKE,Study1,U,13,23,JOL_Small,User,-,"How likely are you to correctly recall the second item in the pair?|Type your response on a scale from 0-100 and then press Enter.",Study/JOL,"Study Phase2",7895,,,5139,5858,,,,20,1
5ea964a32f7b3304bb975a05,kj96ytstpq,Trevor_EX2,1,123,2020-07-23T14:44:27-07:00,5.4915909767151,1,Pure_Unrelated.csv,JOL_S_VersionA.csv,"Size U A","Size U A",MUTE,WAVE,Study2,U,173,85,JOL_Small,User,-,"How likely are you to correctly recall the second item in the pair?|Type your response on a scale from 0-100 and then press Enter.",Study/JOL,"Study Phase2",5169,,,3156,3861,,,,20,1
5ea964a32f7b3304bb975a05,kj96ytstpq,Trevor_EX2,1,124,2020-07-23T14:44:33-07:00,5.847617149353,1,Pure_Unrelated.csv,JOL_S_VersionA.csv,"Size U A","Size U A",FLOOR,DISCOVER,Study2,U,101,91,JOL_Small,User,-,"How likely are you to correctly recall the second item in the pair?|Type your response on a scale from 0-100 and then press Enter.",Study/JOL,"Study Phase2",5494,,,3311,4133,,,,20,1
5ea964a32f7b3304bb975a05,kj96ytstpq,Trevor_EX2,1,125,2020-07-23T14:44:41-07:00,8.3280639648438,1,Pure_Unrelated.csv,JOL_S_VersionA.csv,"Size U A","Size U A",WOMAN,LIFT,Study2,U,99,72,JOL_Large,User,-,"How likely are you to correctly recall the second item in the pair?|Type your response on a scale from 0-100 and then press Enter.",Study/JOL,"Study Phase2",7967,,,6026,6717,,,,30,1
5ea964a32f7b3304bb975a05,kj96ytstpq,Trevor_EX2,1,126,2020-07-23T14:44:49-07:00,7.8546159267426,1,Pure_Unrelated.csv,JOL_S_VersionA.csv,"Size U A","Size U A",ZOO,THUMB,Study2,U,168,66,JOL_Large,User,-,"How likely are you to correctly recall the second item in the pair?|Type your response on a scale from 0-100 and then press Enter.",Study/JOL,"Study Phase2",7435,,,5588,6346,,,,20,1
5ea964a32f7b3304bb975a05,kj96ytstpq,Trevor_EX2,1,127,2020-07-23T14:44:54-07:00,4.7817721366882,1,Pure_Unrelated.csv,JOL_S_VersionA.csv,"Size U A","Size U A",WOULD,CASH,Study2,U,113,86,JOL_Small,User,-,"How likely are you to correctly recall the second item in the pair?|Type your response on a scale from 0-100 and then press Enter.",Study/JOL,"Study Phase2",4436,,,2158,2957,,,,20,1
5ea964a32f7b3304bb975a05,kj96ytstpq,Trevor_EX2,1,128,2020-07-23T14:45:01-07:00,6.4664678573608,1,Pure_Unrelated.csv,JOL_S_VersionA.csv,"Size U A","Size U A",ROAD,SCENT,Study2,U,166,57,JOL_Large,User,-,"How likely are you to correctly recall the second item in the pair?|Type your response on a scale from 0-100 and then press Enter.",Study/JOL,"Study Phase2",6156,,,3514,4230,,,,50,1
5ea964a32f7b3304bb975a05,kj96ytstpq,Trevor_EX2,1,129,2020-07-23T14:45:06-07:00,5.1618511676788,1,Pure_Unrelated.csv,JOL_S_VersionA.csv,"Size U A","Size U A",RIDDLE,SUGAR,Study2,U,111,78,JOL_Small,User,-,"How likely are you to correctly recall the second item in the pair?|Type your response on a scale from 0-100 and then press Enter.",Study/JOL,"Study Phase2",4806,,,2470,3210,,,,20,1
5ea964a32f7b3304bb975a05,kj96ytstpq,Trevor_EX2,1,130,2020-07-23T14:45:11-07:00,5.1664788722992,1,Pure_Unrelated.csv,JOL_S_VersionA.csv,"Size U A","Size U A",BELT,SOON,Study2,U,100,80,JOL_Small,User,-,"How likely are you to correctly recall the second item in the pair?|Type your response on a scale from 0-100 and then press Enter.",Study/JOL,"Study Phase2",4741,,,1417,2141,,,,20,1
5ea964a32f7b3304bb975a05,kj96ytstpq,Trevor_EX2,1,131,2020-07-23T14:45:17-07:00,5.6744811534882,1,Pure_Unrelated.csv,JOL_S_VersionA.csv,"Size U A","Size U A",SYSTEM,LICK,Study2,U,167,84,JOL_Small,User,-,"How likely are you to correctly recall the second item in the pair?|Type your response on a scale from 0-100 and then press Enter.",Study/JOL,"Study Phase2",5289,,,2784,3550,,,,20,1
5ea964a32f7b3304bb975a05,kj96ytstpq,Trevor_EX2,1,132,2020-07-23T14:45:23-07:00,6.6687488555908,1,Pure_Unrelated.csv,JOL_S_VersionA.csv,"Size U A","Size U A",SWING,FOG,Study2,U,175,76,JOL_Large,User,-,"How likely are you to correctly recall the second item in the pair?|Type your response on a scale from 0-100 and then press Enter.",Study/JOL,"Study Phase2",5345,,,3302,3994,,,,30,1
5ea964a32f7b3304bb975a05,kj96ytstpq,Trevor_EX2,1,133,2020-07-23T14:45:35-07:00,11.918851137161,1,Pure_Unrelated.csv,JOL_S_VersionA.csv,"Size U A","Size U A",STOMACH,TOWN,Study2,U,159,75,JOL_Large,User,-,"How likely are you to correctly recall the second item in the pair?|Type your response on a scale from 0-100 and then press Enter.",Study/JOL,"Study Phase2",11390,,,9268,10257,,,,20,1
5ea964a32f7b3304bb975a05,kj96ytstpq,Trevor_EX2,1,134,2020-07-23T14:45:41-07:00,5.3540689945221,1,Pure_Unrelated.csv,JOL_S_VersionA.csv,"Size U A","Size U A",FLOAT,HARMONY,Study2,U,161,89,JOL_Small,User,-,"How likely are you to correctly recall the second item in the pair?|Type your response on a scale from 0-100 and then press Enter.",Study/JOL,"Study Phase2",3928,,,2265,2979,,,,20,1
5ea964a32f7b3304bb975a05,kj96ytstpq,Trevor_EX2,1,135,2020-07-23T14:45:45-07:00,4.9721858501434,1,Pure_Unrelated.csv,JOL_S_VersionA.csv,"Size U A","Size U A",DETECT,FREE,Study2,U,162,59,JOL_Large,User,-,"How likely are you to correctly recall the second item in the pair?|Type your response on a scale from 0-100 and then press Enter.",Study/JOL,"Study Phase2",4622,,,2546,3237,,,,40,1
5ea964a32f7b3304bb975a05,kj96ytstpq,Trevor_EX2,1,136,2020-07-23T14:45:52-07:00,6.284786939621,1,Pure_Unrelated.csv,JOL_S_VersionA.csv,"Size U A","Size U A",HUNGRY,PARK,Study2,U,98,95,JOL_Small,User,-,"How likely are you to correctly recall the second item in the pair?|Type your response on a scale from 0-100 and then press Enter.",Study/JOL,"Study Phase2",5785,,,4123,4872,,,,20,1
5ea964a32f7b3304bb975a05,kj96ytstpq,Trevor_EX2,1,137,2020-07-23T14:45:56-07:00,3.7694981098175,1,Pure_Unrelated.csv,JOL_S_VersionA.csv,"Size U A","Size U A",SIGHT,DEBATE,Study2,U,103,88,JOL_Small,User,-,"How likely are you to correctly recall the second item in the pair?|Type your response on a scale from 0-100 and then press Enter.",Study/JOL,"Study Phase2",3408,,,1760,2478,,,,20,1
5ea964a32f7b3304bb975a05,kj96ytstpq,Trevor_EX2,1,138,2020-07-23T14:46:02-07:00,6.375433921814,1,Pure_Unrelated.csv,JOL_S_VersionA.csv,"Size U A","Size U A",SPELL,BONE,Study2,U,174,74,JOL_Large,User,-,"How likely are you to correctly recall the second item in the pair?|Type your response on a scale from 0-100 and then press Enter.",Study/JOL,"Study Phase2",5955,,,4060,4784,,,,20,1
5ea964a32f7b3304bb975a05,kj96ytstpq,Trevor_EX2,1,139,2020-07-23T14:46:03-07:00,0.91132998466492,1,Pure_Unrelated.csv,JOL_S_VersionA.csv,"Size U A","Size U A",SLIM,KNOW,Study2,U,164,87,JOL_Small,User,-,"How likely are you to correctly recall the second item in the pair?|Type your response on a scale from 0-100 and then press Enter.",Study/JOL,"Study Phase2",552,,,-1,-1,,,,,1
5ea964a32f7b3304bb975a05,kj96ytstpq,Trevor_EX2,1,140,2020-07-23T14:46:06-07:00,3.5914261341095,1,Pure_Unrelated.csv,JOL_S_VersionA.csv,"Size U A","Size U A",CAR,HAPPY,Study2,U,107,82,JOL_Small,User,-,"How likely are you to correctly recall the second item in the pair?|Type your response on a scale from 0-100 and then press Enter.",Study/JOL,"Study Phase2",3259,,,1859,2113,,,,20,1
5ea964a32f7b3304bb975a05,kj96ytstpq,Trevor_EX2,1,141,2020-07-23T14:46:09-07:00,2.9674999713898,1,Pure_Unrelated.csv,JOL_S_VersionA.csv,"Size U A","Size U A",NULL,COUGH,Study2,U,156,93,JOL_Small,User,-,"How likely are you to correctly recall the second item in the pair?|Type your response on a scale from 0-100 and then press Enter.",Study/JOL,"Study Phase2",2611,,,1254,1465,,,,20,1
5ea964a32f7b3304bb975a05,kj96ytstpq,Trevor_EX2,1,142,2020-07-23T14:46:13-07:00,3.2611539363861,1,Pure_Unrelated.csv,JOL_S_VersionA.csv,"Size U A","Size U A",PUT,ROLL,Study2,U,163,94,JOL_Small,User,-,"How likely are you to correctly recall the second item in the pair?|Type your response on a scale from 0-100 and then press Enter.",Study/JOL,"Study Phase2",2934,,,1301,1491,,,,20,1
5ea964a32f7b3304bb975a05,kj96ytstpq,Trevor_EX2,1,143,2020-07-23T14:46:17-07:00,4.1141519546509,1,Pure_Unrelated.csv,JOL_S_VersionA.csv,"Size U A","Size U A",HAND,FIX,Study2,U,105,61,JOL_Large,User,-,"How likely are you to correctly recall the second item in the pair?|Type your response on a scale from 0-100 and then press Enter.",Study/JOL,"Study Phase2",3745,,,2177,2177,,,,5,1
5ea964a32f7b3304bb975a05,kj96ytstpq,Trevor_EX2,1,144,2020-07-23T14:46:26-07:00,9.3409950733185,1,Pure_Unrelated.csv,JOL_S_VersionA.csv,"Size U A","Size U A",LION,ART,Study2,U,109,63,JOL_Large,User,-,"How likely are you to correctly recall the second item in the pair?|Type your response on a scale from 0-100 and then press Enter.",Study/JOL,"Study Phase2",8992,,,6915,7152,,,,50,1
5ea964a32f7b3304bb975a05,kj96ytstpq,Trevor_EX2,1,145,2020-07-23T14:46:33-07:00,7.0377910137177,1,Pure_Unrelated.csv,JOL_S_VersionA.csv,"Size U A","Size U A",CLUTTER,PUSHER,Study2,U,96,92,JOL_Small,User,-,"How likely are you to correctly recall the second item in the pair?|Type your response on a scale from 0-100 and then press Enter.",Study/JOL,"Study Phase2",6726,,,5841,5841,,,,5,1
5ea964a32f7b3304bb975a05,kj96ytstpq,Trevor_EX2,1,146,2020-07-23T14:46:38-07:00,4.8800311088562,1,Pure_Unrelated.csv,JOL_S_VersionA.csv,"Size U A","Size U A",SICK,HIDE,Study2,U,114,81,JOL_Small,User,-,"How likely are you to correctly recall the second item in the pair?|Type your response on a scale from 0-100 and then press Enter.",Study/JOL,"Study Phase2",4560,,,4099,4099,,,,5,1
5ea964a32f7b3304bb975a05,kj96ytstpq,Trevor_EX2,1,147,2020-07-23T14:46:46-07:00,7.5895338058472,1,Pure_Unrelated.csv,JOL_S_VersionA.csv,"Size U A","Size U A",SPRING,MARCH,BUFFER4,Buffer,179,101,JOL_Large,User,-,"How likely are you to correctly recall the second item in the pair?|Type your response on a scale from 0-100 and then press Enter.",Study/JOL,BUFFER4,7197,,,5703,5903,,,,50,1
5ea964a32f7b3304bb975a05,kj96ytstpq,Trevor_EX2,1,148,2020-07-23T14:46:55-07:00,9.0622160434723,1,Pure_Unrelated.csv,JOL_S_VersionA.csv,"Size U A","Size U A",DAYS,WEEKS,BUFFER4,Buffer,176,97,JOL_Large,User,-,"How likely are you to correctly recall the second item in the pair?|Type your response on a scale from 0-100 and then press Enter.",Study/JOL,BUFFER4,8680,,,2141,2386,,,,50,1
5ea964a32f7b3304bb975a05,kj96ytstpq,Trevor_EX2,1,149,2020-07-23T14:47:03-07:00,8.1028251647949,1,Pure_Unrelated.csv,JOL_S_VersionA.csv,"Size U A","Size U A",MONTH,YEAR,BUFFER4,Buffer,177,98,JOL_Large,User,-,"How likely are you to correctly recall the second item in the pair?|Type your response on a scale from 0-100 and then press Enter.",Study/JOL,BUFFER4,7775,,,5490,6414,,,,50,1
5ea964a32f7b3304bb975a05,kj96ytstpq,Trevor_EX2,1,150,2020-07-23T14:47:11-07:00,7.879508972168,1,Pure_Unrelated.csv,JOL_S_VersionA.csv,"Size U A","Size U A",TOOL,SHED,BUFFER4,Buffer,178,100,JOL_Small,User,-,"How likely are you to correctly recall the second item in the pair?|Type your response on a scale from 0-100 and then press Enter.",Study/JOL,BUFFER4,7267,,,5639,6242,,,,50,1
5ea964a32f7b3304bb975a05,kj96ytstpq,Trevor_EX2,1,151,2020-07-23T14:47:17-07:00,6.0616149902344,1,Pure_Unrelated.csv,JOL_S_VersionA.csv,"Size U A","Size U A",OCTOBER,SPOOKY,BUFFER4,Buffer,180,99,JOL_Small,User,-,"How likely are you to correctly recall the second item in the pair?|Type your response on a scale from 0-100 and then press Enter.",Study/JOL,BUFFER4,5664,,,3950,4646,,,,20,1
5ea964a32f7b3304bb975a05,kj96ytstpq,Trevor_EX2,1,152,2020-07-23T14:47:19-07:00,2.7469198703766,1,Pure_Unrelated.csv,JOL_S_VersionA.csv,"Size U A","Size U A",,,,,,0,Instruct,User,-,"You have completed this section. Please press Enter.",Filler_Instruction,Instruct5,2430,,,-1,-1,,,,,1
5ea964a32f7b3304bb975a05,kj96ytstpq,Trevor_EX2,1,153,2020-07-23T14:49:20-07:00,120.47025609016,1,Pure_Unrelated.csv,JOL_S_VersionA.csv,"Size U A","Size U A",,,,,,0,FreeRecall,120,120,"Please list the 50 US states in reverse alphabetical order (z - a). The task will automatically advance to the next screen after two minutes.",,Filler2,120002,"toronto san francisco new york manhattan lo",0,15615,119314,0,0,,,1
5ea964a32f7b3304bb975a05,kj96ytstpq,Trevor_EX2,1,154,2020-07-23T14:49:33-07:00,13.532068967819,1,Pure_Unrelated.csv,JOL_S_VersionA.csv,"Size U A","Size U A",,,,,,0,Instruct,-,10,"You will now be presented with the first word from each of the previously studied item pairs. Please type the missing word. If you do not know the word, you may guess or press Enter to skip forward to the next pair.",,Instruct6,13191,,,-1,-1,,,,,1
5ea964a32f7b3304bb975a05,kj96ytstpq,Trevor_EX2,1,155,2020-07-23T14:49:58-07:00,24.326575994492,1,Pure_Unrelated.csv,JOL_S_VersionA.csv,"Size U A","Size U A",VASE,KING,Study2,U,115,68,Test,User,-,,Recall,Recall2,23703,king,100,19502,21587,1,1,,,1
5ea964a32f7b3304bb975a05,kj96ytstpq,Trevor_EX2,1,156,2020-07-23T14:50:30-07:00,31.989650964737,1,Pure_Unrelated.csv,JOL_S_VersionA.csv,"Size U A","Size U A",SIGHT,DEBATE,Study2,U,103,88,Test,User,-,,Recall,Recall2,31569,eye,44.444444444444,28663,30077,0,0,,,1
5ea964a32f7b3304bb975a05,kj96ytstpq,Trevor_EX2,1,157,2020-07-23T14:50:56-07:00,25.726139068604,1,Pure_Unrelated.csv,JOL_S_VersionA.csv,"Size U A","Size U A",SACKING,DIETARY,Study2,U,97,64,Test,User,-,,Recall,Recall2,25354,,0,-1,-1,0,0,,,1
5ea964a32f7b3304bb975a05,kj96ytstpq,Trevor_EX2,1,158,2020-07-23T14:50:58-07:00,2.736517906189,1,Pure_Unrelated.csv,JOL_S_VersionA.csv,"Size U A","Size U A",PUT,ROLL,Study2,U,163,94,Test,User,-,,Recall,Recall2,1387,,0,-1,-1,0,0,,,1
5ea964a32f7b3304bb975a05,kj96ytstpq,Trevor_EX2,1,159,2020-07-23T14:51:14-07:00,16.112390041351,1,Pure_Unrelated.csv,JOL_S_VersionA.csv,"Size U A","Size U A",SMOOTH,OMIT,Study2,U,157,69,Test,User,-,,Recall,Recall2,15738,,0,-1,-1,0,0,,,1
5ea964a32f7b3304bb975a05,kj96ytstpq,Trevor_EX2,1,160,2020-07-23T14:51:35-07:00,20.713815927505,1,Pure_Unrelated.csv,JOL_S_VersionA.csv,"Size U A","Size U A",DETECT,FREE,Study2,U,162,59,Test,User,-,,Recall,Recall2,20358,,0,-1,-1,0,0,,,1
5ea964a32f7b3304bb975a05,kj96ytstpq,Trevor_EX2,1,161,2020-07-23T14:51:37-07:00,1.8379871845245,1,Pure_Unrelated.csv,JOL_S_VersionA.csv,"Size U A","Size U A",WOULD,CASH,Study2,U,113,86,Test,User,-,,Recall,Recall2,1431,,0,-1,-1,0,0,,,1
5ea964a32f7b3304bb975a05,kj96ytstpq,Trevor_EX2,1,162,2020-07-23T14:52:03-07:00,25.901630878448,1,Pure_Unrelated.csv,JOL_S_VersionA.csv,"Size U A","Size U A",GUARD,WHEEL,Study2,U,170,73,Test,User,-,,Recall,Recall2,25476,wheel,100,15227,23035,1,1,,,1
5ea964a32f7b3304bb975a05,kj96ytstpq,Trevor_EX2,1,163,2020-07-23T14:52:27-07:00,23.681138038635,1,Pure_Unrelated.csv,JOL_S_VersionA.csv,"Size U A","Size U A",ADD,VALLEY,Study2,U,112,79,Test,User,-,,Recall,Recall2,23259,total,36.363636363636,20126,21570,0,0,,,1
5ea964a32f7b3304bb975a05,kj96ytstpq,Trevor_EX2,1,164,2020-07-23T14:52:33-07:00,6.85893201828,1,Pure_Unrelated.csv,JOL_S_VersionA.csv,"Size U A","Size U A",DETECT,FREE,Study2,U,162,59,Test,User,-,,Recall,Recall2,6460,find,25,4198,5192,0,0,,,1
5ea964a32f7b3304bb975a05,kj96ytstpq,Trevor_EX2,1,165,2020-07-23T14:52:40-07:00,6.1840670108795,1,Pure_Unrelated.csv,JOL_S_VersionA.csv,"Size U A","Size U A",FLOAT,HARMONY,Study2,U,161,89,Test,User,-,,Recall,Recall2,5865,boat,18.181818181818,3053,4376,0,0,,,1
5ea964a32f7b3304bb975a05,kj96ytstpq,Trevor_EX2,1,166,2020-07-23T14:52:46-07:00,6.4946420192719,1,Pure_Unrelated.csv,JOL_S_VersionA.csv,"Size U A","Size U A",POSITION,MACHINE,Study2,U,106,71,Test,User,-,,Recall,Recall2,5138,place,50,2664,3969,0,0,,,1
5ea964a32f7b3304bb975a05,kj96ytstpq,Trevor_EX2,1,167,2020-07-23T14:52:55-07:00,8.8336670398712,1,Pure_Unrelated.csv,JOL_S_VersionA.csv,"Size U A","Size U A",LION,ART,Study2,U,109,63,Test,User,-,,Recall,Recall2,8423,art,100,4144,6606,1,1,,,1
5ea964a32f7b3304bb975a05,kj96ytstpq,Trevor_EX2,1,168,2020-07-23T14:53:03-07:00,8.385556936264,1,Pure_Unrelated.csv,JOL_S_VersionA.csv,"Size U A","Size U A",SYSTEM,LICK,Study2,U,167,84,Test,User,-,,Recall,Recall2,7992,flow,25,5159,6588,0,0,,,1
5ea964a32f7b3304bb975a05,kj96ytstpq,Trevor_EX2,1,169,2020-07-23T14:53:10-07:00,6.7813398838043,1,Pure_Unrelated.csv,JOL_S_VersionA.csv,"Size U A","Size U A",RIDDLE,SUGAR,Study2,U,111,78,Test,User,-,,Recall,Recall2,6383,rhyme,20,2755,5242,0,0,,,1
5ea964a32f7b3304bb975a05,kj96ytstpq,Trevor_EX2,1,170,2020-07-23T14:53:22-07:00,12.423335075378,1,Pure_Unrelated.csv,JOL_S_VersionA.csv,"Size U A","Size U A",JELLY,NAUGHTY,Study2,U,172,96,Test,User,-,,Recall,Recall2,12047,fish,18.181818181818,5042,10641,0,0,,,1
5ea964a32f7b3304bb975a05,kj96ytstpq,Trevor_EX2,1,171,2020-07-23T14:53:52-07:00,29.203507900238,1,Pure_Unrelated.csv,JOL_S_VersionA.csv,"Size U A","Size U A",SHELL,SHAKE,Study1,U,13,23,Test,User,-,,Recall,Recall2,28625,fish,44.444444444444,26338,27297,0,0,,,1
5ea964a32f7b3304bb975a05,kj96ytstpq,Trevor_EX2,1,172,2020-07-23T14:53:58-07:00,6.2099270820618,1,Pure_Unrelated.csv,JOL_S_VersionA.csv,"Size U A","Size U A",BELT,SOON,Study2,U,100,80,Test,User,-,,Recall,Recall2,5866,buckle,0,2522,4470,0,0,,,1
5ea964a32f7b3304bb975a05,kj96ytstpq,Trevor_EX2,1,173,2020-07-23T14:54:04-07:00,6.2084739208221,1,Pure_Unrelated.csv,JOL_S_VersionA.csv,"Size U A","Size U A",SWING,FOG,Study2,U,175,76,Test,User,-,,Recall,Recall2,5847,round,25,2717,4134,0,0,,,1
5ea964a32f7b3304bb975a05,kj96ytstpq,Trevor_EX2,1,174,2020-07-23T14:54:10-07:00,5.4530811309814,1,Pure_Unrelated.csv,JOL_S_VersionA.csv,"Size U A","Size U A",WASTE,SEDATE,Study2,U,165,67,Test,User,-,,Recall,Recall2,5049,paper,36.363636363636,2058,3470,0,0,,,1
5ea964a32f7b3304bb975a05,kj96ytstpq,Trevor_EX2,1,175,2020-07-23T14:54:29-07:00,19.700849056244,1,Pure_Unrelated.csv,JOL_S_VersionA.csv,"Size U A","Size U A",BRONZE,ARTERY,Study2,U,104,62,Test,User,-,,Recall,Recall2,19307,art,66.666666666667,16399,17833,0,0,,,1
5ea964a32f7b3304bb975a05,kj96ytstpq,Trevor_EX2,1,176,2020-07-23T14:54:32-07:00,2.8768010139465,1,Pure_Unrelated.csv,JOL_S_VersionA.csv,"Size U A","Size U A",CLUTTER,PUSHER,Study2,U,96,92,Test,User,-,,Recall,Recall2,2543,,0,-1,-1,0,0,,,1
5ea964a32f7b3304bb975a05,kj96ytstpq,Trevor_EX2,1,177,2020-07-23T14:54:40-07:00,8.025985956192,1,Pure_Unrelated.csv,JOL_S_VersionA.csv,"Size U A","Size U A",DESIRE,NOISE,Study2,U,169,60,Test,User,-,,Recall,Recall2,6522,long,22.222222222222,4149,5165,0,0,,,1
5ea964a32f7b3304bb975a05,kj96ytstpq,Trevor_EX2,1,178,2020-07-23T14:54:58-07:00,17.586578845978,1,Pure_Unrelated.csv,JOL_S_VersionA.csv,"Size U A","Size U A",WOMAN,LIFT,Study2,U,99,72,Test,User,-,,Recall,Recall2,17010,man,0,13929,15162,0,0,,,1
5ea964a32f7b3304bb975a05,kj96ytstpq,Trevor_EX2,1,179,2020-07-23T14:55:05-07:00,7.3681840896606,1,Pure_Unrelated.csv,JOL_S_VersionA.csv,"Size U A","Size U A",NULL,COUGH,Study2,U,156,93,Test,User,-,,Recall,Recall2,6945,void,22.222222222222,3078,5418,0,0,,,1
5ea964a32f7b3304bb975a05,kj96ytstpq,Trevor_EX2,1,180,2020-07-23T14:55:39-07:00,33.773539066315,1,Pure_Unrelated.csv,JOL_S_VersionA.csv,"Size U A","Size U A",HAND,FIX,Study2,U,105,61,Test,User,-,,Recall,Recall2,33332,hold,0,28253,29397,0,0,,,1
5ea964a32f7b3304bb975a05,kj96ytstpq,Trevor_EX2,1,181,2020-07-23T14:56:01-07:00,22.612658023834,1,Pure_Unrelated.csv,JOL_S_VersionA.csv,"Size U A","Size U A",ROAD,SCENT,Study2,U,166,57,Test,User,-,,Recall,Recall2,22273,safety,54.545454545455,17642,19743,0,0,,,1
5ea964a32f7b3304bb975a05,kj96ytstpq,Trevor_EX2,1,182,2020-07-23T14:56:11-07:00,9.1183788776398,1,Pure_Unrelated.csv,JOL_S_VersionA.csv,"Size U A","Size U A",SLIM,KNOW,Study2,U,164,87,Test,User,-,,Recall,Recall2,8750,slender,18.181818181818,4908,7367,0,0,,,1
5ea964a32f7b3304bb975a05,kj96ytstpq,Trevor_EX2,1,183,2020-07-23T14:56:16-07:00,5.7786281108856,1,Pure_Unrelated.csv,JOL_S_VersionA.csv,"Size U A","Size U A",MUTE,WAVE,Study2,U,173,85,Test,User,-,,Recall,Recall2,5430,still,0,2697,4228,0,0,,,1
5ea964a32f7b3304bb975a05,kj96ytstpq,Trevor_EX2,1,184,2020-07-23T14:56:33-07:00,16.46590089798,1,Pure_Unrelated.csv,JOL_S_VersionA.csv,"Size U A","Size U A",PUFF,NUMBER,Study2,U,171,90,Test,User,-,,Recall,Recall2,16150,,0,-1,-1,0,0,,,1
5ea964a32f7b3304bb975a05,kj96ytstpq,Trevor_EX2,1,185,2020-07-23T14:56:50-07:00,17.043892145157,1,Pure_Unrelated.csv,JOL_S_VersionA.csv,"Size U A","Size U A",SPELL,BONE,Study2,U,174,74,Test,User,-,,Recall,Recall2,16618,magic,0,13507,15233,0,0,,,1
5ea964a32f7b3304bb975a05,kj96ytstpq,Trevor_EX2,1,186,2020-07-23T14:56:59-07:00,9.0711009502411,1,Pure_Unrelated.csv,JOL_S_VersionA.csv,"Size U A","Size U A",READY,CORN,Study2,U,158,65,Test,User,-,,Recall,Recall2,8689,set,0,6314,7068,0,0,,,1
5ea964a32f7b3304bb975a05,kj96ytstpq,Trevor_EX2,1,187,2020-07-23T14:57:20-07:00,21.247406959534,1,Pure_Unrelated.csv,JOL_S_VersionA.csv,"Size U A","Size U A",HUNGRY,PARK,Study2,U,98,95,Test,User,-,,Recall,Recall2,20885,eat,28.571428571429,18804,19337,0,0,,,1
5ea964a32f7b3304bb975a05,kj96ytstpq,Trevor_EX2,1,188,2020-07-23T14:57:26-07:00,5.8332879543304,1,Pure_Unrelated.csv,JOL_S_VersionA.csv,"Size U A","Size U A",ZOO,THUMB,Study2,U,168,66,Test,User,-,,Recall,Recall2,5453,,0,-1,-1,0,0,,,1
5ea964a32f7b3304bb975a05,kj96ytstpq,Trevor_EX2,1,189,2020-07-23T14:57:28-07:00,1.9710381031036,1,Pure_Unrelated.csv,JOL_S_VersionA.csv,"Size U A","Size U A",LAKE,OPINION,Study2,U,160,77,Test,User,-,,Recall,Recall2,1594,,0,-1,-1,0,0,,,1
5ea964a32f7b3304bb975a05,kj96ytstpq,Trevor_EX2,1,190,2020-07-23T14:57:35-07:00,7.0722808837891,1,Pure_Unrelated.csv,JOL_S_VersionA.csv,"Size U A","Size U A",FLOOR,DISCOVER,Study2,U,101,91,Test,User,-,,Recall,Recall2,6624,covering,62.5,2734,5308,0,0,,,1
5ea964a32f7b3304bb975a05,kj96ytstpq,Trevor_EX2,1,191,2020-07-23T14:57:40-07:00,4.9726951122284,1,Pure_Unrelated.csv,JOL_S_VersionA.csv,"Size U A","Size U A",Business,Death,Study2,U,102,70,Test,User,-,,Recall,Recall2,4642,plan,22.222222222222,2505,3395,0,0,,,1
5ea964a32f7b3304bb975a05,kj96ytstpq,Trevor_EX2,1,192,2020-07-23T14:57:42-07:00,2.224457025528,1,Pure_Unrelated.csv,JOL_S_VersionA.csv,"Size U A","Size U A",SICK,HIDE,Study2,U,114,81,Test,User,-,,Recall,Recall2,1830,,0,-1,-1,0,0,,,1
5ea964a32f7b3304bb975a05,kj96ytstpq,Trevor_EX2,1,193,2020-07-23T14:57:50-07:00,7.9187378883362,1,Pure_Unrelated.csv,JOL_S_VersionA.csv,"Size U A","Size U A",CAR,HAPPY,Study2,U,107,82,Test,User,-,,Recall,Recall2,7420,wash,22.222222222222,4257,5380,0,0,,,1
5ea964a32f7b3304bb975a05,kj96ytstpq,Trevor_EX2,1,194,2020-07-23T14:57:52-07:00,2.2354938983917,1,Pure_Unrelated.csv,JOL_S_VersionA.csv,"Size U A","Size U A",STOMACH,TOWN,Study2,U,159,75,Test,User,-,,Recall,Recall2,1846,,0,-1,-1,0,0,,,1
5ea964a32f7b3304bb975a05,kj96ytstpq,Trevor_EX2,1,195,2020-07-23T14:57:55-07:00,2.3366100788116,1,Pure_Unrelated.csv,JOL_S_VersionA.csv,"Size U A","Size U A",,,,,,0,Instruct,User,-,"You have completed this section. Please press Enter.",,Instruct7,1936,,,-1,-1,,,,,1
5ea964a32f7b3304bb975a05,kj96ytstpq,Trevor_EX2,1,196,2020-07-23T14:58:01-07:00,6.148756980896,1,Pure_Unrelated.csv,JOL_S_VersionA.csv,"Size U A","Size U A",,,,,,0,Instruct,User,-,"The following screen will ask you a few questions abour your experience today. You must complete these questions to receive credit.",,Instruct8,5761,,,-1,-1,,,,,1
