Username,ID,ExperimentName,Session,Trial,Date,TimeDif,"Condition Number","Stimuli File","Order File","Condition Description","Condition Notes",Stimuli*Cue,Stimuli*Answer,Stimuli*Shuffle,"Stimuli*Stimuli Notes",Stimuli*Value,Procedure*Item,"Procedure*Trial Type","Procedure*Max Time","Procedure*Min Time",Procedure*Text,"Procedure*Procedure Notes",Procedure*Shuffle,Response*RT,Response*Response,Response*Accuracy,Response*RTfirst,Response*RTlast,Response*strictAcc,Response*lenientAcc,Response*focus,Response*JOL,Response*Focus
5ede34f5255765051d450b9f,bgwjmvsuwb,Trevor_EX2,1,1,2020-07-23T14:25:48-07:00,12.783385038376,3,Pure_Unrelated.csv,JOL_H_VersionA.csv,"Highlight U A","Highlight U A",,,,,,0,Instruct,-,5,"In this section, you will be presented with a series of word pairs.",Initial_Instruct,Instruct1,12456,,,-1,-1,,,,,0.422
5ede34f5255765051d450b9f,bgwjmvsuwb,Trevor_EX2,1,2,2020-07-23T14:26:00-07:00,11.792433977127,3,Pure_Unrelated.csv,JOL_H_VersionA.csv,"Highlight U A","Highlight U A",,,,,,0,Instruct,-,5,"As you study, you will be asked to rate your ability to remember the second item in the pair if you were only shown the first at test. You will make these ratings using a 0 to 100 Scale.",,Instruct13,11240,,,-1,-1,,,,,0.386
5ede34f5255765051d450b9f,bgwjmvsuwb,Trevor_EX2,1,3,2020-07-23T14:26:13-07:00,13.514468193054,3,Pure_Unrelated.csv,JOL_H_VersionA.csv,"Highlight U A","Highlight U A",,,,,,0,Instruct,-,10,"For example, if you are given the pair CAT - DOG, a rating of 0 indicates that you would not remember DOG at test, while a rating of 100 indicates full certainty that you would remember the word DOG at test.",,Instruct14,12989,,,-1,-1,,,,,1
5ede34f5255765051d450b9f,bgwjmvsuwb,Trevor_EX2,1,4,2020-07-23T14:26:26-07:00,12.572137832642,3,Pure_Unrelated.csv,JOL_H_VersionA.csv,"Highlight U A","Highlight U A",,,,,,0,Instruct,-,10,"When making your ratings, it is criticial that you use the full range of the scale. You will be disqualified for only giving ratings of 0 or 100! After making your rating, press Enter to advance to the next pair.",,Instruct15,11847,,,-1,-1,,,,,0.788
5ede34f5255765051d450b9f,bgwjmvsuwb,Trevor_EX2,1,5,2020-07-23T14:26:27-07:00,1.2494711875916,3,Pure_Unrelated.csv,JOL_H_VersionA.csv,"Highlight U A","Highlight U A",,,,,,0,Instruct,User,-,"You will now begin the study. Press Enter when you are ready to begin.",,Instruct16,820,,,-1,-1,,,,,1
5ede34f5255765051d450b9f,bgwjmvsuwb,Trevor_EX2,1,6,2020-07-23T14:26:32-07:00,4.9945118427277,3,Pure_Unrelated.csv,JOL_H_VersionA.csv,"Highlight U A","Highlight U A",PEANUT,BUTTER,BUFFER1,Buffer,3,3,JOL,User,-,"How likely are you to correctly recall the second item in the pair?|Type your response on a scale from 0-100 and then press Enter.",Study/JOL,BUFFER,4604,,,3357,4428,,,,100,1
5ede34f5255765051d450b9f,bgwjmvsuwb,Trevor_EX2,1,7,2020-07-23T14:26:35-07:00,2.7727270126343,3,Pure_Unrelated.csv,JOL_H_VersionA.csv,"Highlight U A","Highlight U A",BASEBALL,CATCHER,BUFFER1,Buffer,2,4,JOL_H,User,-,"How likely are you to correctly recall the second item in the pair?|Type your response on a scale from 0-100 and then press Enter.",Study/JOL,BUFFER,2311,,,1711,1910,,,,100,1
5ede34f5255765051d450b9f,bgwjmvsuwb,Trevor_EX2,1,8,2020-07-23T14:26:38-07:00,3.0895159244537,3,Pure_Unrelated.csv,JOL_H_VersionA.csv,"Highlight U A","Highlight U A",TREES,GREEN,BUFFER1,Buffer,1,5,JOL_H,User,-,"How likely are you to correctly recall the second item in the pair?|Type your response on a scale from 0-100 and then press Enter.",Study/JOL,BUFFER,2587,,,994,2386,,,,85,1
5ede34f5255765051d450b9f,bgwjmvsuwb,Trevor_EX2,1,9,2020-07-23T14:26:41-07:00,2.6802451610565,3,Pure_Unrelated.csv,JOL_H_VersionA.csv,"Highlight U A","Highlight U A",SCARE,HIDE,BUFFER1,Buffer,4,2,JOL,User,-,"How likely are you to correctly recall the second item in the pair?|Type your response on a scale from 0-100 and then press Enter.",Study/JOL,BUFFER,2100,,,1199,1939,,,,70,1
5ede34f5255765051d450b9f,bgwjmvsuwb,Trevor_EX2,1,10,2020-07-23T14:26:44-07:00,2.9418029785156,3,Pure_Unrelated.csv,JOL_H_VersionA.csv,"Highlight U A","Highlight U A",SPACE,JAM,BUFFER1,Buffer,5,6,JOL_H,User,-,"How likely are you to correctly recall the second item in the pair?|Type your response on a scale from 0-100 and then press Enter.",Study/JOL,BUFFER,2543,,,1870,2134,,,,100,0.538
5ede34f5255765051d450b9f,bgwjmvsuwb,Trevor_EX2,1,11,2020-07-23T14:26:47-07:00,2.9831199645996,3,Pure_Unrelated.csv,JOL_H_VersionA.csv,"Highlight U A","Highlight U A",MIRROR,CHILDREN,Study1,U,24,10,JOL_H,User,-,"How likely are you to correctly recall the second item in the pair?|Type your response on a scale from 0-100 and then press Enter.",Study/JOL,"Study Phase",2411,,,1818,2226,,,,20,1
5ede34f5255765051d450b9f,bgwjmvsuwb,Trevor_EX2,1,12,2020-07-23T14:26:50-07:00,3.3927381038666,3,Pure_Unrelated.csv,JOL_H_VersionA.csv,"Highlight U A","Highlight U A",KEYS,JOKE,Study1,U,15,18,JOL_H,User,-,"How likely are you to correctly recall the second item in the pair?|Type your response on a scale from 0-100 and then press Enter.",Study/JOL,"Study Phase",2907,,,1954,2042,,,,20,1
5ede34f5255765051d450b9f,bgwjmvsuwb,Trevor_EX2,1,13,2020-07-23T14:26:54-07:00,4.4700729846954,3,Pure_Unrelated.csv,JOL_H_VersionA.csv,"Highlight U A","Highlight U A",DIZZY,SWEATER,Study1,U,77,13,JOL_H,User,-,"How likely are you to correctly recall the second item in the pair?|Type your response on a scale from 0-100 and then press Enter.",Study/JOL,"Study Phase",4088,,,1568,3375,,,,5,1
5ede34f5255765051d450b9f,bgwjmvsuwb,Trevor_EX2,1,14,2020-07-23T14:26:58-07:00,3.0932638645172,3,Pure_Unrelated.csv,JOL_H_VersionA.csv,"Highlight U A","Highlight U A",RESIST,GLUE,Study1,U,69,25,JOL_H,User,-,"How likely are you to correctly recall the second item in the pair?|Type your response on a scale from 0-100 and then press Enter.",Study/JOL,"Study Phase",2666,,,2360,2361,,,,0,0.714
5ede34f5255765051d450b9f,bgwjmvsuwb,Trevor_EX2,1,15,2020-07-23T14:27:00-07:00,2.0417490005493,3,Pure_Unrelated.csv,JOL_H_VersionA.csv,"Highlight U A","Highlight U A",JUSTICE,MAROON,Study1,U,6,39,JOL,User,-,"How likely are you to correctly recall the second item in the pair?|Type your response on a scale from 0-100 and then press Enter.",Study/JOL,"Study Phase",1619,,,1299,1396,,,,15,1
5ede34f5255765051d450b9f,bgwjmvsuwb,Trevor_EX2,1,16,2020-07-23T14:27:04-07:00,3.8950281143188,3,Pure_Unrelated.csv,JOL_H_VersionA.csv,"Highlight U A","Highlight U A",GIVE,STEAK,Study1,U,8,42,JOL,User,-,"How likely are you to correctly recall the second item in the pair?|Type your response on a scale from 0-100 and then press Enter.",Study/JOL,"Study Phase",3403,,,2627,2667,,,,15,0.824
5ede34f5255765051d450b9f,bgwjmvsuwb,Trevor_EX2,1,17,2020-07-23T14:27:06-07:00,2.6649408340454,3,Pure_Unrelated.csv,JOL_H_VersionA.csv,"Highlight U A","Highlight U A",STRETCH,CLOTH,Study1,U,7,12,JOL_H,User,-,"How likely are you to correctly recall the second item in the pair?|Type your response on a scale from 0-100 and then press Enter.",Study/JOL,"Study Phase",2143,,,846,1982,,,,50,0.636
5ede34f5255765051d450b9f,bgwjmvsuwb,Trevor_EX2,1,18,2020-07-23T14:27:09-07:00,2.8110191822052,3,Pure_Unrelated.csv,JOL_H_VersionA.csv,"Highlight U A","Highlight U A",ROSE,NEGLECT,Study1,U,82,20,JOL_H,User,-,"How likely are you to correctly recall the second item in the pair?|Type your response on a scale from 0-100 and then press Enter.",Study/JOL,"Study Phase",2211,,,1702,1985,,,,15,1
5ede34f5255765051d450b9f,bgwjmvsuwb,Trevor_EX2,1,19,2020-07-23T14:27:11-07:00,2.3232038021088,3,Pure_Unrelated.csv,JOL_H_VersionA.csv,"Highlight U A","Highlight U A",RIPE,VERIFY,Study1,U,83,36,JOL,User,-,"How likely are you to correctly recall the second item in the pair?|Type your response on a scale from 0-100 and then press Enter.",Study/JOL,"Study Phase",1909,,,1612,1740,,,,10,0.6
5ede34f5255765051d450b9f,bgwjmvsuwb,Trevor_EX2,1,20,2020-07-23T14:27:16-07:00,4.7799000740051,3,Pure_Unrelated.csv,JOL_H_VersionA.csv,"Highlight U A","Highlight U A",FUZZY,BANG,Study1,U,18,46,JOL,User,-,"How likely are you to correctly recall the second item in the pair?|Type your response on a scale from 0-100 and then press Enter.",Study/JOL,"Study Phase",4342,,,4104,4182,,,,20,0.864
5ede34f5255765051d450b9f,bgwjmvsuwb,Trevor_EX2,1,21,2020-07-23T14:27:19-07:00,2.9993960857391,3,Pure_Unrelated.csv,JOL_H_VersionA.csv,"Highlight U A","Highlight U A",LOAN,SIGN,Study1,U,21,23,JOL_H,User,-,"How likely are you to correctly recall the second item in the pair?|Type your response on a scale from 0-100 and then press Enter.",Study/JOL,"Study Phase",2485,,,1032,2269,,,,90,1
5ede34f5255765051d450b9f,bgwjmvsuwb,Trevor_EX2,1,22,2020-07-23T14:27:21-07:00,2.3202359676361,3,Pure_Unrelated.csv,JOL_H_VersionA.csv,"Highlight U A","Highlight U A",TAX,OWL,Study1,U,72,37,JOL,User,-,"How likely are you to correctly recall the second item in the pair?|Type your response on a scale from 0-100 and then press Enter.",Study/JOL,"Study Phase",1887,,,1319,1535,,,,35,1
5ede34f5255765051d450b9f,bgwjmvsuwb,Trevor_EX2,1,23,2020-07-23T14:27:27-07:00,6.0192849636078,3,Pure_Unrelated.csv,JOL_H_VersionA.csv,"Highlight U A","Highlight U A",CAKE,CLOTHES,Study1,U,16,19,JOL_H,User,-,"How likely are you to correctly recall the second item in the pair?|Type your response on a scale from 0-100 and then press Enter.",Study/JOL,"Study Phase",5631,,,3518,5494,,,,15,0.862
5ede34f5255765051d450b9f,bgwjmvsuwb,Trevor_EX2,1,24,2020-07-23T14:27:31-07:00,3.5294859409332,3,Pure_Unrelated.csv,JOL_H_VersionA.csv,"Highlight U A","Highlight U A",LEASE,TOIL,Study1,U,20,9,JOL_H,User,-,"How likely are you to correctly recall the second item in the pair?|Type your response on a scale from 0-100 and then press Enter.",Study/JOL,"Study Phase",3030,,,2870,2910,,,,15,0.813
5ede34f5255765051d450b9f,bgwjmvsuwb,Trevor_EX2,1,25,2020-07-23T14:27:41-07:00,9.5520629882812,3,Pure_Unrelated.csv,JOL_H_VersionA.csv,"Highlight U A","Highlight U A",SHELL,SHAKE,Study1,U,13,44,JOL,User,-,"How likely are you to correctly recall the second item in the pair?|Type your response on a scale from 0-100 and then press Enter.",Study/JOL,"Study Phase",8968,,,7759,8816,,,,30,0.889
5ede34f5255765051d450b9f,bgwjmvsuwb,Trevor_EX2,1,26,2020-07-23T14:27:43-07:00,2.6405022144318,3,Pure_Unrelated.csv,JOL_H_VersionA.csv,"Highlight U A","Highlight U A",DEGREE,CHAIR,Study1,U,71,31,JOL,User,-,"How likely are you to correctly recall the second item in the pair?|Type your response on a scale from 0-100 and then press Enter.",Study/JOL,"Study Phase",2045,,,1637,1742,,,,30,1
5ede34f5255765051d450b9f,bgwjmvsuwb,Trevor_EX2,1,27,2020-07-23T14:27:48-07:00,4.7191607952118,3,Pure_Unrelated.csv,JOL_H_VersionA.csv,"Highlight U A","Highlight U A",BROAD,INFECT,Study1,U,75,26,JOL_H,User,-,"How likely are you to correctly recall the second item in the pair?|Type your response on a scale from 0-100 and then press Enter.",Study/JOL,"Study Phase",4298,,,4105,4161,,,,25,1
5ede34f5255765051d450b9f,bgwjmvsuwb,Trevor_EX2,1,28,2020-07-23T14:27:51-07:00,3.3619921207428,3,Pure_Unrelated.csv,JOL_H_VersionA.csv,"Highlight U A","Highlight U A",MOAT,CLEAR,Study1,U,19,7,JOL_H,User,-,"How likely are you to correctly recall the second item in the pair?|Type your response on a scale from 0-100 and then press Enter.",Study/JOL,"Study Phase",2913,,,2626,2754,,,,60,1
5ede34f5255765051d450b9f,bgwjmvsuwb,Trevor_EX2,1,29,2020-07-23T14:27:58-07:00,6.2835459709167,3,Pure_Unrelated.csv,JOL_H_VersionA.csv,"Highlight U A","Highlight U A",MAZE,ELECTION,Study1,U,9,30,JOL,User,-,"How likely are you to correctly recall the second item in the pair?|Type your response on a scale from 0-100 and then press Enter.",Study/JOL,"Study Phase",5806,,,5535,5614,,,,15,0.6
5ede34f5255765051d450b9f,bgwjmvsuwb,Trevor_EX2,1,30,2020-07-23T14:28:00-07:00,2.747034072876,3,Pure_Unrelated.csv,JOL_H_VersionA.csv,"Highlight U A","Highlight U A",DIFFICULT,POOR,Study1,U,81,16,JOL_H,User,-,"How likely are you to correctly recall the second item in the pair?|Type your response on a scale from 0-100 and then press Enter.",Study/JOL,"Study Phase",2356,,,1964,2188,,,,75,1
5ede34f5255765051d450b9f,bgwjmvsuwb,Trevor_EX2,1,31,2020-07-23T14:28:03-07:00,2.6747839450836,3,Pure_Unrelated.csv,JOL_H_VersionA.csv,"Highlight U A","Highlight U A",PARCEL,THROAT,Study1,U,67,21,JOL_H,User,-,"How likely are you to correctly recall the second item in the pair?|Type your response on a scale from 0-100 and then press Enter.",Study/JOL,"Study Phase",2289,,,1369,2105,,,,25,1
5ede34f5255765051d450b9f,bgwjmvsuwb,Trevor_EX2,1,32,2020-07-23T14:28:09-07:00,6.0009498596191,3,Pure_Unrelated.csv,JOL_H_VersionA.csv,"Highlight U A","Highlight U A",MAIN,SCAR,Study1,U,25,41,JOL,User,-,"How likely are you to correctly recall the second item in the pair?|Type your response on a scale from 0-100 and then press Enter.",Study/JOL,"Study Phase",5607,,,5335,5431,,,,20,0.655
5ede34f5255765051d450b9f,bgwjmvsuwb,Trevor_EX2,1,33,2020-07-23T14:28:11-07:00,2.3211472034454,3,Pure_Unrelated.csv,JOL_H_VersionA.csv,"Highlight U A","Highlight U A",NUMBER,HARD,Study1,U,78,28,JOL,User,-,"How likely are you to correctly recall the second item in the pair?|Type your response on a scale from 0-100 and then press Enter.",Study/JOL,"Study Phase",1862,,,1262,1366,,,,60,1
5ede34f5255765051d450b9f,bgwjmvsuwb,Trevor_EX2,1,34,2020-07-23T14:28:15-07:00,3.8371088504791,3,Pure_Unrelated.csv,JOL_H_VersionA.csv,"Highlight U A","Highlight U A",FUTURE,SINCERE,Study1,U,70,14,JOL_H,User,-,"How likely are you to correctly recall the second item in the pair?|Type your response on a scale from 0-100 and then press Enter.",Study/JOL,"Study Phase",3373,,,3021,3173,,,,50,1
5ede34f5255765051d450b9f,bgwjmvsuwb,Trevor_EX2,1,35,2020-07-23T14:28:29-07:00,13.859694004059,3,Pure_Unrelated.csv,JOL_H_VersionA.csv,"Highlight U A","Highlight U A",PET,MOON,Study1,U,74,29,JOL,User,-,"How likely are you to correctly recall the second item in the pair?|Type your response on a scale from 0-100 and then press Enter.",Study/JOL,"Study Phase",13344,,,13024,13137,,,,20,0.209
5ede34f5255765051d450b9f,bgwjmvsuwb,Trevor_EX2,1,36,2020-07-23T14:28:32-07:00,2.6388790607452,3,Pure_Unrelated.csv,JOL_H_VersionA.csv,"Highlight U A","Highlight U A",BOTH,OUNCE,Study1,U,22,11,JOL_H,User,-,"How likely are you to correctly recall the second item in the pair?|Type your response on a scale from 0-100 and then press Enter.",Study/JOL,"Study Phase",2180,,,1883,1971,,,,15,1
5ede34f5255765051d450b9f,bgwjmvsuwb,Trevor_EX2,1,37,2020-07-23T14:28:35-07:00,3.2231080532074,3,Pure_Unrelated.csv,JOL_H_VersionA.csv,"Highlight U A","Highlight U A",THICK,CONTEST,Study1,U,73,34,JOL,User,-,"How likely are you to correctly recall the second item in the pair?|Type your response on a scale from 0-100 and then press Enter.",Study/JOL,"Study Phase",2839,,,1102,1182,,,,30,1
5ede34f5255765051d450b9f,bgwjmvsuwb,Trevor_EX2,1,38,2020-07-23T14:28:38-07:00,2.9391288757324,3,Pure_Unrelated.csv,JOL_H_VersionA.csv,"Highlight U A","Highlight U A",CRAYON,RATE,Study1,U,79,15,JOL_H,User,-,"How likely are you to correctly recall the second item in the pair?|Type your response on a scale from 0-100 and then press Enter.",Study/JOL,"Study Phase",2414,,,1218,1310,,,,20,1
5ede34f5255765051d450b9f,bgwjmvsuwb,Trevor_EX2,1,39,2020-07-23T14:28:42-07:00,4.6483550071716,3,Pure_Unrelated.csv,JOL_H_VersionA.csv,"Highlight U A","Highlight U A",STRESS,YAM,Study1,U,68,38,JOL,User,-,"How likely are you to correctly recall the second item in the pair?|Type your response on a scale from 0-100 and then press Enter.",Study/JOL,"Study Phase",4268,,,1964,4012,,,,20,1
5ede34f5255765051d450b9f,bgwjmvsuwb,Trevor_EX2,1,40,2020-07-23T14:28:45-07:00,2.8328440189362,3,Pure_Unrelated.csv,JOL_H_VersionA.csv,"Highlight U A","Highlight U A",BAT,SHAKY,Study1,U,66,22,JOL_H,User,-,"How likely are you to correctly recall the second item in the pair?|Type your response on a scale from 0-100 and then press Enter.",Study/JOL,"Study Phase",2450,,,2113,2202,,,,15,0.692
5ede34f5255765051d450b9f,bgwjmvsuwb,Trevor_EX2,1,41,2020-07-23T14:28:48-07:00,2.4189710617065,3,Pure_Unrelated.csv,JOL_H_VersionA.csv,"Highlight U A","Highlight U A",WARN,SEA,Study1,U,80,24,JOL_H,User,-,"How likely are you to correctly recall the second item in the pair?|Type your response on a scale from 0-100 and then press Enter.",Study/JOL,"Study Phase",1905,,,1529,1697,,,,35,1
5ede34f5255765051d450b9f,bgwjmvsuwb,Trevor_EX2,1,42,2020-07-23T14:28:52-07:00,4.8400490283966,3,Pure_Unrelated.csv,JOL_H_VersionA.csv,"Highlight U A","Highlight U A",LISTEN,FICTION,Study1,U,14,32,JOL,User,-,"How likely are you to correctly recall the second item in the pair?|Type your response on a scale from 0-100 and then press Enter.",Study/JOL,"Study Phase",4438,,,2173,4269,,,,50,1
5ede34f5255765051d450b9f,bgwjmvsuwb,Trevor_EX2,1,43,2020-07-23T14:28:55-07:00,2.513524055481,3,Pure_Unrelated.csv,JOL_H_VersionA.csv,"Highlight U A","Highlight U A",VEHICLE,CHARM,Study1,U,10,27,JOL,User,-,"How likely are you to correctly recall the second item in the pair?|Type your response on a scale from 0-100 and then press Enter.",Study/JOL,"Study Phase",1855,,,1599,1694,,,,60,1
5ede34f5255765051d450b9f,bgwjmvsuwb,Trevor_EX2,1,44,2020-07-23T14:28:59-07:00,3.9247419834137,3,Pure_Unrelated.csv,JOL_H_VersionA.csv,"Highlight U A","Highlight U A",DONKEY,LUSH,Study1,U,84,35,JOL,User,-,"How likely are you to correctly recall the second item in the pair?|Type your response on a scale from 0-100 and then press Enter.",Study/JOL,"Study Phase",3435,,,3211,3275,,,,15,0.722
5ede34f5255765051d450b9f,bgwjmvsuwb,Trevor_EX2,1,45,2020-07-23T14:29:01-07:00,2.3378219604492,3,Pure_Unrelated.csv,JOL_H_VersionA.csv,"Highlight U A","Highlight U A",MEAT,OBTAIN,Study1,U,11,45,JOL,User,-,"How likely are you to correctly recall the second item in the pair?|Type your response on a scale from 0-100 and then press Enter.",Study/JOL,"Study Phase",1860,,,1604,1691,,,,20,1
5ede34f5255765051d450b9f,bgwjmvsuwb,Trevor_EX2,1,46,2020-07-23T14:29:07-07:00,5.8413288593292,3,Pure_Unrelated.csv,JOL_H_VersionA.csv,"Highlight U A","Highlight U A",CRACKLE,ABLE,Study1,U,12,17,JOL_H,User,-,"How likely are you to correctly recall the second item in the pair?|Type your response on a scale from 0-100 and then press Enter.",Study/JOL,"Study Phase",5290,,,3154,3323,,,,30,0.778
5ede34f5255765051d450b9f,bgwjmvsuwb,Trevor_EX2,1,47,2020-07-23T14:29:12-07:00,4.8052711486816,3,Pure_Unrelated.csv,JOL_H_VersionA.csv,"Highlight U A","Highlight U A",NAME,HATE,Study1,U,17,33,JOL,User,-,"How likely are you to correctly recall the second item in the pair?|Type your response on a scale from 0-100 and then press Enter.",Study/JOL,"Study Phase",4312,,,4079,4151,,,,60,0.727
5ede34f5255765051d450b9f,bgwjmvsuwb,Trevor_EX2,1,48,2020-07-23T14:29:14-07:00,1.9927949905396,3,Pure_Unrelated.csv,JOL_H_VersionA.csv,"Highlight U A","Highlight U A",INFLATE,DISGUST,Study1,U,76,40,JOL,User,-,"How likely are you to correctly recall the second item in the pair?|Type your response on a scale from 0-100 and then press Enter.",Study/JOL,"Study Phase",1697,,,1329,1498,,,,20,1
5ede34f5255765051d450b9f,bgwjmvsuwb,Trevor_EX2,1,49,2020-07-23T14:29:16-07:00,2.0875389575958,3,Pure_Unrelated.csv,JOL_H_VersionA.csv,"Highlight U A","Highlight U A",GRIND,STAND,Study1,U,85,43,JOL,User,-,"How likely are you to correctly recall the second item in the pair?|Type your response on a scale from 0-100 and then press Enter.",Study/JOL,"Study Phase",1799,,,1473,1632,,,,25,1
5ede34f5255765051d450b9f,bgwjmvsuwb,Trevor_EX2,1,50,2020-07-23T14:29:24-07:00,8.4149649143219,3,Pure_Unrelated.csv,JOL_H_VersionA.csv,"Highlight U A","Highlight U A",TEMPERATURE,MORNING,Study1,U,23,8,JOL_H,User,-,"How likely are you to correctly recall the second item in the pair?|Type your response on a scale from 0-100 and then press Enter.",Study/JOL,"Study Phase",7973,,,7548,7770,,,,70,0.725
5ede34f5255765051d450b9f,bgwjmvsuwb,Trevor_EX2,1,51,2020-07-23T14:29:32-07:00,7.5928211212158,3,Pure_Unrelated.csv,JOL_H_VersionA.csv,"Highlight U A","Highlight U A",MOON,SPACE,BUFFER2,Buffer,89,49,JOL_H,User,-,"How likely are you to correctly recall the second item in the pair?|Type your response on a scale from 0-100 and then press Enter.",Study/JOL,BUFFER2,6893,,,5239,6706,,,,75,0.886
5ede34f5255765051d450b9f,bgwjmvsuwb,Trevor_EX2,1,52,2020-07-23T14:29:34-07:00,1.6855239868164,3,Pure_Unrelated.csv,JOL_H_VersionA.csv,"Highlight U A","Highlight U A",SHERRIF,POLICE,BUFFER2,Buffer,87,51,JOL,User,-,"How likely are you to correctly recall the second item in the pair?|Type your response on a scale from 0-100 and then press Enter.",Study/JOL,BUFFER2,1395,,,947,1162,,,,100,1
5ede34f5255765051d450b9f,bgwjmvsuwb,Trevor_EX2,1,53,2020-07-23T14:29:36-07:00,1.8783810138702,3,Pure_Unrelated.csv,JOL_H_VersionA.csv,"Highlight U A","Highlight U A",GEESE,GOOSE,BUFFER2,Buffer,86,47,JOL_H,User,-,"How likely are you to correctly recall the second item in the pair?|Type your response on a scale from 0-100 and then press Enter.",Study/JOL,BUFFER2,1559,,,1175,1365,,,,100,0.625
5ede34f5255765051d450b9f,bgwjmvsuwb,Trevor_EX2,1,54,2020-07-23T14:29:38-07:00,1.972244977951,3,Pure_Unrelated.csv,JOL_H_VersionA.csv,"Highlight U A","Highlight U A",MALT,CHOCOLATE,BUFFER2,Buffer,88,48,JOL_H,User,-,"How likely are you to correctly recall the second item in the pair?|Type your response on a scale from 0-100 and then press Enter.",Study/JOL,BUFFER2,1562,,,1178,1394,,,,100,0.625
5ede34f5255765051d450b9f,bgwjmvsuwb,Trevor_EX2,1,55,2020-07-23T14:29:56-07:00,18.103228092194,3,Pure_Unrelated.csv,JOL_H_VersionA.csv,"Highlight U A","Highlight U A",THING,STUFF,BUFFER2,Buffer,90,50,JOL,User,-,"How likely are you to correctly recall the second item in the pair?|Type your response on a scale from 0-100 and then press Enter.",Study/JOL,BUFFER2,17631,,,17328,17526,,,,75,0.191
5ede34f5255765051d450b9f,bgwjmvsuwb,Trevor_EX2,1,56,2020-07-23T14:30:03-07:00,7.6795089244843,3,Pure_Unrelated.csv,JOL_H_VersionA.csv,"Highlight U A","Highlight U A",,,,,,0,Instruct,User,-,"You have completed this section. Please press Enter.",Filler_Instruction,Instruct2,7116,,,-1,-1,,,,,0.111
5ede34f5255765051d450b9f,bgwjmvsuwb,Trevor_EX2,1,57,2020-07-23T14:32:04-07:00,120.51123905182,3,Pure_Unrelated.csv,JOL_H_VersionA.csv,"Highlight U A","Highlight U A",,,,,,0,FreeRecall,120,120,"Please list the 50 US states in alphabetical order. The task will automatically advance to the next screen after two minutes.",,Filler1,120001,"Arkansas, Arizona, Alabama, I'm not really sure how well alphabetically I do. I Probably just best if I do what I remember Hawaii, Florida, California, Texas, Colorado, Missouri, Mississippi, something",0,3770,115138,0,0,,,0.615
5ede34f5255765051d450b9f,bgwjmvsuwb,Trevor_EX2,1,58,2020-07-23T14:32:15-07:00,11.353170871735,3,Pure_Unrelated.csv,JOL_H_VersionA.csv,"Highlight U A","Highlight U A",,,,,,0,Instruct,-,10,"You will now be presented with the first word from each of the previously studied item pairs. Please type the missing word. If you do not know the word, you may guess or press Enter to skip forward to the next pair.",,Instruct3,10776,,,-1,-1,,,,,0.111
5ede34f5255765051d450b9f,bgwjmvsuwb,Trevor_EX2,1,59,2020-07-23T14:32:18-07:00,3.1533391475677,3,Pure_Unrelated.csv,JOL_H_VersionA.csv,"Highlight U A","Highlight U A",MIRROR,CHILDREN,Study1,U,24,10,Test,User,-,,Recall,Recall1,2651,See,18.181818181818,2250,2499,0,0,,,1
5ede34f5255765051d450b9f,bgwjmvsuwb,Trevor_EX2,1,60,2020-07-23T14:32:22-07:00,3.5331428050995,3,Pure_Unrelated.csv,JOL_H_VersionA.csv,"Highlight U A","Highlight U A",ROSE,NEGLECT,Study1,U,82,20,Test,User,-,,Recall,Recall1,3094,,0,-1,-1,0,0,,,1
5ede34f5255765051d450b9f,bgwjmvsuwb,Trevor_EX2,1,61,2020-07-23T14:32:25-07:00,3.215145111084,3,Pure_Unrelated.csv,JOL_H_VersionA.csv,"Highlight U A","Highlight U A",DIFFICULT,POOR,Study1,U,81,16,Test,User,-,,Recall,Recall1,2742,Math,0,2038,2414,0,0,,,1
5ede34f5255765051d450b9f,bgwjmvsuwb,Trevor_EX2,1,62,2020-07-23T14:32:28-07:00,3.2128660678864,3,Pure_Unrelated.csv,JOL_H_VersionA.csv,"Highlight U A","Highlight U A",BOTH,OUNCE,Study1,U,22,11,Test,User,-,,Recall,Recall1,2821,,0,-1,-1,0,0,,,0.8
5ede34f5255765051d450b9f,bgwjmvsuwb,Trevor_EX2,1,63,2020-07-23T14:32:32-07:00,4.0166327953339,3,Pure_Unrelated.csv,JOL_H_VersionA.csv,"Highlight U A","Highlight U A",TEMPERATURE,MORNING,Study1,U,23,8,Test,User,-,,Recall,Recall1,3606,Hot,20,2013,3093,0,0,,,1
5ede34f5255765051d450b9f,bgwjmvsuwb,Trevor_EX2,1,64,2020-07-23T14:32:35-07:00,2.561674118042,3,Pure_Unrelated.csv,JOL_H_VersionA.csv,"Highlight U A","Highlight U A",FUTURE,SINCERE,Study1,U,70,14,Test,User,-,,Recall,Recall1,2165,,0,-1,-1,0,0,,,0.818
5ede34f5255765051d450b9f,bgwjmvsuwb,Trevor_EX2,1,65,2020-07-23T14:32:39-07:00,3.6390209197998,3,Pure_Unrelated.csv,JOL_H_VersionA.csv,"Highlight U A","Highlight U A",LISTEN,FICTION,Study1,U,14,32,Test,User,-,,Recall,Recall1,3220,Hear,0,2468,2860,0,0,,,1
5ede34f5255765051d450b9f,bgwjmvsuwb,Trevor_EX2,1,66,2020-07-23T14:32:42-07:00,3.8658680915833,3,Pure_Unrelated.csv,JOL_H_VersionA.csv,"Highlight U A","Highlight U A",STRETCH,CLOTH,Study1,U,7,12,Test,User,-,,Recall,Recall1,3479,Muscles,33.333333333333,1760,3287,0,0,,,1
5ede34f5255765051d450b9f,bgwjmvsuwb,Trevor_EX2,1,67,2020-07-23T14:32:44-07:00,1.8630158901215,3,Pure_Unrelated.csv,JOL_H_VersionA.csv,"Highlight U A","Highlight U A",DEGREE,CHAIR,Study1,U,71,31,Test,User,-,,Recall,Recall1,1555,,0,-1,-1,0,0,,,1
5ede34f5255765051d450b9f,bgwjmvsuwb,Trevor_EX2,1,68,2020-07-23T14:32:47-07:00,3.2279121875763,3,Pure_Unrelated.csv,JOL_H_VersionA.csv,"Highlight U A","Highlight U A",PARCEL,THROAT,Study1,U,67,21,Test,User,-,,Recall,Recall1,2668,,0,-1,-1,0,0,,,1
5ede34f5255765051d450b9f,bgwjmvsuwb,Trevor_EX2,1,69,2020-07-23T14:32:54-07:00,6.6821248531342,3,Pure_Unrelated.csv,JOL_H_VersionA.csv,"Highlight U A","Highlight U A",THICK,CONTEST,Study1,U,73,34,Test,User,-,,Recall,Recall1,6229,,0,-1,-1,0,0,,,0.406
5ede34f5255765051d450b9f,bgwjmvsuwb,Trevor_EX2,1,70,2020-07-23T14:32:57-07:00,2.9416840076447,3,Pure_Unrelated.csv,JOL_H_VersionA.csv,"Highlight U A","Highlight U A",STRESS,YAM,Study1,U,68,38,Test,User,-,,Recall,Recall1,2408,Level,0,1894,2239,0,0,,,0.615
5ede34f5255765051d450b9f,bgwjmvsuwb,Trevor_EX2,1,71,2020-07-23T14:33:01-07:00,3.4838969707489,3,Pure_Unrelated.csv,JOL_H_VersionA.csv,"Highlight U A","Highlight U A",RIPE,VERIFY,Study1,U,83,36,Test,User,-,,Recall,Recall1,2971,Thicken,15.384615384615,2234,2850,0,0,,,1
5ede34f5255765051d450b9f,bgwjmvsuwb,Trevor_EX2,1,72,2020-07-23T14:33:03-07:00,2.7598841190338,3,Pure_Unrelated.csv,JOL_H_VersionA.csv,"Highlight U A","Highlight U A",SHELL,SHAKE,Study1,U,13,44,Test,User,-,,Recall,Recall1,2185,Shock,60,1625,2016,0,0,,,0.636
5ede34f5255765051d450b9f,bgwjmvsuwb,Trevor_EX2,1,73,2020-07-23T14:33:09-07:00,5.6359648704529,3,Pure_Unrelated.csv,JOL_H_VersionA.csv,"Highlight U A","Highlight U A",TAX,OWL,Study1,U,72,37,Test,User,-,,Recall,Recall1,5213,Pay,0,3644,4886,0,0,,,0.852
5ede34f5255765051d450b9f,bgwjmvsuwb,Trevor_EX2,1,74,2020-07-23T14:33:27-07:00,18.02103805542,3,Pure_Unrelated.csv,JOL_H_VersionA.csv,"Highlight U A","Highlight U A",WARN,SEA,Study1,U,80,24,Test,User,-,,Recall,Recall1,17462,,0,-1,-1,0,0,,,0.148
5ede34f5255765051d450b9f,bgwjmvsuwb,Trevor_EX2,1,75,2020-07-23T14:33:32-07:00,4.7007989883423,3,Pure_Unrelated.csv,JOL_H_VersionA.csv,"Highlight U A","Highlight U A",JUSTICE,MAROON,Study1,U,6,39,Test,User,-,,Recall,Recall1,4039,Judge,0,3495,3966,0,0,,,1
5ede34f5255765051d450b9f,bgwjmvsuwb,Trevor_EX2,1,76,2020-07-23T14:33:34-07:00,2.7762250900269,3,Pure_Unrelated.csv,JOL_H_VersionA.csv,"Highlight U A","Highlight U A",CRAYON,RATE,Study1,U,79,15,Test,User,-,,Recall,Recall1,2137,,0,-1,-1,0,0,,,1
5ede34f5255765051d450b9f,bgwjmvsuwb,Trevor_EX2,1,77,2020-07-23T14:33:38-07:00,3.4785799980164,3,Pure_Unrelated.csv,JOL_H_VersionA.csv,"Highlight U A","Highlight U A",CRACKLE,ABLE,Study1,U,12,17,Test,User,-,,Recall,Recall1,2953,Fire,25,1056,2856,0,0,,,1
5ede34f5255765051d450b9f,bgwjmvsuwb,Trevor_EX2,1,78,2020-07-23T14:33:40-07:00,1.9638240337372,3,Pure_Unrelated.csv,JOL_H_VersionA.csv,"Highlight U A","Highlight U A",LEASE,TOIL,Study1,U,20,9,Test,User,-,,Recall,Recall1,1569,Sign,25,1136,1440,0,0,,,1
5ede34f5255765051d450b9f,bgwjmvsuwb,Trevor_EX2,1,79,2020-07-23T14:33:45-07:00,5.2296099662781,3,Pure_Unrelated.csv,JOL_H_VersionA.csv,"Highlight U A","Highlight U A",MAZE,ELECTION,Study1,U,9,30,Test,User,-,,Recall,Recall1,4646,,0,-1,-1,0,0,,,0.542
5ede34f5255765051d450b9f,bgwjmvsuwb,Trevor_EX2,1,80,2020-07-23T14:33:48-07:00,2.5675740242004,3,Pure_Unrelated.csv,JOL_H_VersionA.csv,"Highlight U A","Highlight U A",RESIST,GLUE,Study1,U,69,25,Test,User,-,,Recall,Recall1,2014,Arrest,20,1398,1935,0,0,,,1
5ede34f5255765051d450b9f,bgwjmvsuwb,Trevor_EX2,1,81,2020-07-23T14:33:53-07:00,5.0127558708191,3,Pure_Unrelated.csv,JOL_H_VersionA.csv,"Highlight U A","Highlight U A",MEAT,OBTAIN,Study1,U,11,45,Test,User,-,,Recall,Recall1,4606,Meal,20,1015,4510,0,0,,,1
5ede34f5255765051d450b9f,bgwjmvsuwb,Trevor_EX2,1,82,2020-07-23T14:33:55-07:00,2.7477459907532,3,Pure_Unrelated.csv,JOL_H_VersionA.csv,"Highlight U A","Highlight U A",BROAD,INFECT,Study1,U,75,26,Test,User,-,,Recall,Recall1,2185,,0,-1,-1,0,0,,,1
5ede34f5255765051d450b9f,bgwjmvsuwb,Trevor_EX2,1,83,2020-07-23T14:34:15-07:00,19.890005111694,3,Pure_Unrelated.csv,JOL_H_VersionA.csv,"Highlight U A","Highlight U A",NUMBER,HARD,Study1,U,78,28,Test,User,-,,Recall,Recall1,19414,,0,-1,-1,0,0,,,0.5
5ede34f5255765051d450b9f,bgwjmvsuwb,Trevor_EX2,1,84,2020-07-23T14:34:17-07:00,1.8384749889374,3,Pure_Unrelated.csv,JOL_H_VersionA.csv,"Highlight U A","Highlight U A",GIVE,STEAK,Study1,U,8,42,Test,User,-,,Recall,Recall1,1459,Take,66.666666666667,1068,1371,0,0,,,1
5ede34f5255765051d450b9f,bgwjmvsuwb,Trevor_EX2,1,85,2020-07-23T14:34:21-07:00,3.508358001709,3,Pure_Unrelated.csv,JOL_H_VersionA.csv,"Highlight U A","Highlight U A",PET,MOON,Study1,U,74,29,Test,User,-,,Recall,Recall1,2964,Dog,28.571428571429,2644,2828,0,0,,,1
5ede34f5255765051d450b9f,bgwjmvsuwb,Trevor_EX2,1,86,2020-07-23T14:34:25-07:00,4.6245150566101,3,Pure_Unrelated.csv,JOL_H_VersionA.csv,"Highlight U A","Highlight U A",MAIN,SCAR,Study1,U,25,41,Test,User,-,,Recall,Recall1,4227,Important,15.384615384615,3082,4146,0,0,,,1
5ede34f5255765051d450b9f,bgwjmvsuwb,Trevor_EX2,1,87,2020-07-23T14:34:27-07:00,2.1594779491425,3,Pure_Unrelated.csv,JOL_H_VersionA.csv,"Highlight U A","Highlight U A",GRIND,STAND,Study1,U,85,43,Test,User,-,,Recall,Recall1,1866,,0,-1,-1,0,0,,,1
5ede34f5255765051d450b9f,bgwjmvsuwb,Trevor_EX2,1,88,2020-07-23T14:34:32-07:00,4.1486918926239,3,Pure_Unrelated.csv,JOL_H_VersionA.csv,"Highlight U A","Highlight U A",FUZZY,BANG,Study1,U,18,46,Test,User,-,,Recall,Recall1,3722,Peach,22.222222222222,1385,3593,0,0,,,1
5ede34f5255765051d450b9f,bgwjmvsuwb,Trevor_EX2,1,89,2020-07-23T14:34:35-07:00,2.9659910202026,3,Pure_Unrelated.csv,JOL_H_VersionA.csv,"Highlight U A","Highlight U A",DONKEY,LUSH,Study1,U,84,35,Test,User,-,,Recall,Recall1,2580,,0,-1,-1,0,0,,,0.769
5ede34f5255765051d450b9f,bgwjmvsuwb,Trevor_EX2,1,90,2020-07-23T14:34:37-07:00,2.3575191497803,3,Pure_Unrelated.csv,JOL_H_VersionA.csv,"Highlight U A","Highlight U A",MOAT,CLEAR,Study1,U,19,7,Test,User,-,,Recall,Recall1,1969,Water,40,1440,1872,0,0,,,1
5ede34f5255765051d450b9f,bgwjmvsuwb,Trevor_EX2,1,91,2020-07-23T14:34:42-07:00,5.394702911377,3,Pure_Unrelated.csv,JOL_H_VersionA.csv,"Highlight U A","Highlight U A",LOAN,SIGN,Study1,U,21,23,Test,User,-,,Recall,Recall1,5002,Payment,18.181818181818,1468,4917,0,0,,,1
5ede34f5255765051d450b9f,bgwjmvsuwb,Trevor_EX2,1,92,2020-07-23T14:34:48-07:00,5.5384550094604,3,Pure_Unrelated.csv,JOL_H_VersionA.csv,"Highlight U A","Highlight U A",DIZZY,SWEATER,Study1,U,77,13,Test,User,-,,Recall,Recall1,5148,Spinning,13.333333333333,4467,5068,0,0,,,0.885
5ede34f5255765051d450b9f,bgwjmvsuwb,Trevor_EX2,1,93,2020-07-23T14:34:53-07:00,5.0155529975891,3,Pure_Unrelated.csv,JOL_H_VersionA.csv,"Highlight U A","Highlight U A",NAME,HATE,Study1,U,17,33,Test,User,-,,Recall,Recall1,4518,Tag,28.571428571429,1424,4244,0,0,,,0.826
5ede34f5255765051d450b9f,bgwjmvsuwb,Trevor_EX2,1,94,2020-07-23T14:34:55-07:00,2.1430819034576,3,Pure_Unrelated.csv,JOL_H_VersionA.csv,"Highlight U A","Highlight U A",BAT,SHAKY,Study1,U,66,22,Test,User,-,,Recall,Recall1,1668,,0,-1,-1,0,0,,,1
5ede34f5255765051d450b9f,bgwjmvsuwb,Trevor_EX2,1,95,2020-07-23T14:34:59-07:00,3.7946000099182,3,Pure_Unrelated.csv,JOL_H_VersionA.csv,"Highlight U A","Highlight U A",VEHICLE,CHARM,Study1,U,10,27,Test,User,-,,Recall,Recall1,3320,Drive,20,2776,3224,0,0,,,0.529
5ede34f5255765051d450b9f,bgwjmvsuwb,Trevor_EX2,1,96,2020-07-23T14:35:11-07:00,11.672384023666,3,Pure_Unrelated.csv,JOL_H_VersionA.csv,"Highlight U A","Highlight U A",KEYS,JOKE,Study1,U,15,18,Test,User,-,,Recall,Recall1,11163,Open,50,10571,11027,0,0,,,0.232
5ede34f5255765051d450b9f,bgwjmvsuwb,Trevor_EX2,1,97,2020-07-23T14:35:15-07:00,4.5049481391907,3,Pure_Unrelated.csv,JOL_H_VersionA.csv,"Highlight U A","Highlight U A",INFLATE,DISGUST,Study1,U,76,40,Test,User,-,,Recall,Recall1,3991,Balloon,0,2318,3870,0,0,,,0.5
5ede34f5255765051d450b9f,bgwjmvsuwb,Trevor_EX2,1,98,2020-07-23T14:35:22-07:00,6.7563319206238,3,Pure_Unrelated.csv,JOL_H_VersionA.csv,"Highlight U A","Highlight U A",CAKE,CLOTHES,Study1,U,16,19,Test,User,-,,Recall,Recall1,6167,Pastry,15.384615384615,5510,6103,0,0,,,1
5ede34f5255765051d450b9f,bgwjmvsuwb,Trevor_EX2,1,99,2020-07-23T14:35:44-07:00,22.222369909286,3,Pure_Unrelated.csv,JOL_H_VersionA.csv,"Highlight U A","Highlight U A",,,,,,0,Instruct,-,10,"You will now be presented with a new set of word pairs. Please study each pair. Remember that your memory will be tested! When finished, press Enter to move to the next pair.",Initial_Instruct,Instruct4,21503,,,-1,-1,,,,,0.226
5ede34f5255765051d450b9f,bgwjmvsuwb,Trevor_EX2,1,100,2020-07-23T14:35:57-07:00,12.492141962051,3,Pure_Unrelated.csv,JOL_H_VersionA.csv,"Highlight U A","Highlight U A",,,,,,0,Instruct,,10,"You will again be asked to rate your ability to remember these items using a 0 to 100 scale. Remember to use the full range of the scale!",,Instruct10,11674,,,-1,-1,,,,,0.119
5ede34f5255765051d450b9f,bgwjmvsuwb,Trevor_EX2,1,101,2020-07-23T14:35:58-07:00,1.089476108551,3,Pure_Unrelated.csv,JOL_H_VersionA.csv,"Highlight U A","Highlight U A",,,,,,0,Instruct,User,-,"Press Enter when you are readty to begin",,Instruct11,594,,,-1,-1,,,,,1
5ede34f5255765051d450b9f,bgwjmvsuwb,Trevor_EX2,1,102,2020-07-23T14:36:01-07:00,3.0079979896545,3,Pure_Unrelated.csv,JOL_H_VersionA.csv,"Highlight U A","Highlight U A",ICE,FROZEN,BUFFER3,Buffer,94,55,JOL_H,User,-,"How likely are you to correctly recall the second item in the pair?|Type your response on a scale from 0-100 and then press Enter.",Study/JOL,BUFFER3,2458,,,2092,2281,,,,100,1
5ede34f5255765051d450b9f,bgwjmvsuwb,Trevor_EX2,1,103,2020-07-23T14:36:03-07:00,1.9359040260315,3,Pure_Unrelated.csv,JOL_H_VersionA.csv,"Highlight U A","Highlight U A",SHRIMP,FISH,BUFFER3,Buffer,93,53,JOL,User,-,"How likely are you to correctly recall the second item in the pair?|Type your response on a scale from 0-100 and then press Enter.",Study/JOL,BUFFER3,1453,,,1229,1317,,,,85,1
5ede34f5255765051d450b9f,bgwjmvsuwb,Trevor_EX2,1,104,2020-07-23T14:36:05-07:00,2.0490200519562,3,Pure_Unrelated.csv,JOL_H_VersionA.csv,"Highlight U A","Highlight U A",CAMP,ADVENTURE,BUFFER3,Buffer,95,54,JOL_H,User,-,"How likely are you to correctly recall the second item in the pair?|Type your response on a scale from 0-100 and then press Enter.",Study/JOL,BUFFER3,1664,,,1448,1530,,,,70,1
5ede34f5255765051d450b9f,bgwjmvsuwb,Trevor_EX2,1,105,2020-07-23T14:36:08-07:00,3.2884159088135,3,Pure_Unrelated.csv,JOL_H_VersionA.csv,"Highlight U A","Highlight U A",NOODLE,STRING,BUFFER3,Buffer,92,56,JOL_H,User,-,"How likely are you to correctly recall the second item in the pair?|Type your response on a scale from 0-100 and then press Enter.",Study/JOL,BUFFER3,2669,,,2471,2549,,,,50,1
5ede34f5255765051d450b9f,bgwjmvsuwb,Trevor_EX2,1,106,2020-07-23T14:36:12-07:00,3.6861419677734,3,Pure_Unrelated.csv,JOL_H_VersionA.csv,"Highlight U A","Highlight U A",CARROT,POTATO,BUFFER3,Buffer,91,52,JOL,User,-,"How likely are you to correctly recall the second item in the pair?|Type your response on a scale from 0-100 and then press Enter.",Study/JOL,BUFFER3,3285,,,2725,2836,,,,20,0.706
5ede34f5255765051d450b9f,bgwjmvsuwb,Trevor_EX2,1,107,2020-07-23T14:36:14-07:00,2.8255851268768,3,Pure_Unrelated.csv,JOL_H_VersionA.csv,"Highlight U A","Highlight U A",ZOO,THUMB,Study2,U,168,61,JOL_H,User,-,"How likely are you to correctly recall the second item in the pair?|Type your response on a scale from 0-100 and then press Enter.",Study/JOL,"Study Phase2",2098,,,1922,1922,,,,0,1
5ede34f5255765051d450b9f,bgwjmvsuwb,Trevor_EX2,1,108,2020-07-23T14:36:17-07:00,2.300528049469,3,Pure_Unrelated.csv,JOL_H_VersionA.csv,"Highlight U A","Highlight U A",DETECT,FREE,Study2,U,162,60,JOL_H,User,-,"How likely are you to correctly recall the second item in the pair?|Type your response on a scale from 0-100 and then press Enter.",Study/JOL,"Study Phase2",1968,,,1784,1874,,,,15,1
5ede34f5255765051d450b9f,bgwjmvsuwb,Trevor_EX2,1,109,2020-07-23T14:36:27-07:00,9.8362519741058,3,Pure_Unrelated.csv,JOL_H_VersionA.csv,"Highlight U A","Highlight U A",SICK,HIDE,Study2,U,114,80,JOL,User,-,"How likely are you to correctly recall the second item in the pair?|Type your response on a scale from 0-100 and then press Enter.",Study/JOL,"Study Phase2",9039,,,8845,8910,,,,15,0.217
5ede34f5255765051d450b9f,bgwjmvsuwb,Trevor_EX2,1,110,2020-07-23T14:36:30-07:00,3.3153338432312,3,Pure_Unrelated.csv,JOL_H_VersionA.csv,"Highlight U A","Highlight U A",RIDDLE,SUGAR,Study2,U,111,76,JOL_H,User,-,"How likely are you to correctly recall the second item in the pair?|Type your response on a scale from 0-100 and then press Enter.",Study/JOL,"Study Phase2",2723,,,2350,2350,,,,0,0.357
5ede34f5255765051d450b9f,bgwjmvsuwb,Trevor_EX2,1,111,2020-07-23T14:36:32-07:00,1.9563801288605,3,Pure_Unrelated.csv,JOL_H_VersionA.csv,"Highlight U A","Highlight U A",WASTE,SEDATE,Study2,U,165,93,JOL,User,-,"How likely are you to correctly recall the second item in the pair?|Type your response on a scale from 0-100 and then press Enter.",Study/JOL,"Study Phase2",1620,,,1444,1444,,,,0,1
5ede34f5255765051d450b9f,bgwjmvsuwb,Trevor_EX2,1,112,2020-07-23T14:36:35-07:00,3.0066158771515,3,Pure_Unrelated.csv,JOL_H_VersionA.csv,"Highlight U A","Highlight U A",WOMAN,LIFT,Study2,U,99,82,JOL,User,-,"How likely are you to correctly recall the second item in the pair?|Type your response on a scale from 0-100 and then press Enter.",Study/JOL,"Study Phase2",2386,,,2066,2273,,,,35,0.583
5ede34f5255765051d450b9f,bgwjmvsuwb,Trevor_EX2,1,113,2020-07-23T14:36:38-07:00,3.1750199794769,3,Pure_Unrelated.csv,JOL_H_VersionA.csv,"Highlight U A","Highlight U A",Business,Death,Study2,U,102,88,JOL,User,-,"How likely are you to correctly recall the second item in the pair?|Type your response on a scale from 0-100 and then press Enter.",Study/JOL,"Study Phase2",2651,,,2411,2483,,,,40,0.643
5ede34f5255765051d450b9f,bgwjmvsuwb,Trevor_EX2,1,114,2020-07-23T14:36:59-07:00,20.862684965134,3,Pure_Unrelated.csv,JOL_H_VersionA.csv,"Highlight U A","Highlight U A",BELT,SOON,Study2,U,100,89,JOL,User,-,"How likely are you to correctly recall the second item in the pair?|Type your response on a scale from 0-100 and then press Enter.",Study/JOL,"Study Phase2",20173,,,19765,19885,,,,10,0.139
5ede34f5255765051d450b9f,bgwjmvsuwb,Trevor_EX2,1,115,2020-07-23T14:37:02-07:00,3.2817962169647,3,Pure_Unrelated.csv,JOL_H_VersionA.csv,"Highlight U A","Highlight U A",POSITION,MACHINE,Study2,U,106,59,JOL_H,User,-,"How likely are you to correctly recall the second item in the pair?|Type your response on a scale from 0-100 and then press Enter.",Study/JOL,"Study Phase2",2858,,,2625,2705,,,,20,0.667
5ede34f5255765051d450b9f,bgwjmvsuwb,Trevor_EX2,1,116,2020-07-23T14:37:16-07:00,13.957144975662,3,Pure_Unrelated.csv,JOL_H_VersionA.csv,"Highlight U A","Highlight U A",SMOOTH,OMIT,Study2,U,157,64,JOL_H,User,-,"How likely are you to correctly recall the second item in the pair?|Type your response on a scale from 0-100 and then press Enter.",Study/JOL,"Study Phase2",13460,,,13276,13348,,,,15,0.059
5ede34f5255765051d450b9f,bgwjmvsuwb,Trevor_EX2,1,117,2020-07-23T14:37:18-07:00,2.3879909515381,3,Pure_Unrelated.csv,JOL_H_VersionA.csv,"Highlight U A","Highlight U A",LOAN,SIGN,Study1,U,21,23,JOL,User,-,"How likely are you to correctly recall the second item in the pair?|Type your response on a scale from 0-100 and then press Enter.",Study/JOL,"Study Phase2",1872,,,1683,1768,,,,85,1
5ede34f5255765051d450b9f,bgwjmvsuwb,Trevor_EX2,1,118,2020-07-23T14:37:21-07:00,2.4089980125427,3,Pure_Unrelated.csv,JOL_H_VersionA.csv,"Highlight U A","Highlight U A",HUNGRY,PARK,Study2,U,98,63,JOL_H,User,-,"How likely are you to correctly recall the second item in the pair?|Type your response on a scale from 0-100 and then press Enter.",Study/JOL,"Study Phase2",2013,,,1807,1927,,,,45,1
5ede34f5255765051d450b9f,bgwjmvsuwb,Trevor_EX2,1,119,2020-07-23T14:37:23-07:00,2.2475459575653,3,Pure_Unrelated.csv,JOL_H_VersionA.csv,"Highlight U A","Highlight U A",TUCK,ALLOW,Study2,U,108,96,JOL,User,-,"How likely are you to correctly recall the second item in the pair?|Type your response on a scale from 0-100 and then press Enter.",Study/JOL,"Study Phase2",1764,,,1531,1669,,,,25,1
5ede34f5255765051d450b9f,bgwjmvsuwb,Trevor_EX2,1,120,2020-07-23T14:37:26-07:00,2.9814178943634,3,Pure_Unrelated.csv,JOL_H_VersionA.csv,"Highlight U A","Highlight U A",FLOAT,HARMONY,Study2,U,161,73,JOL_H,User,-,"How likely are you to correctly recall the second item in the pair?|Type your response on a scale from 0-100 and then press Enter.",Study/JOL,"Study Phase2",2182,,,1958,1958,,,,0,1
5ede34f5255765051d450b9f,bgwjmvsuwb,Trevor_EX2,1,121,2020-07-23T14:37:28-07:00,2.0315141677856,3,Pure_Unrelated.csv,JOL_H_VersionA.csv,"Highlight U A","Highlight U A",GUARD,WHEEL,Study2,U,170,66,JOL_H,User,-,"How likely are you to correctly recall the second item in the pair?|Type your response on a scale from 0-100 and then press Enter.",Study/JOL,"Study Phase2",1551,,,1304,1365,,,,15,1
5ede34f5255765051d450b9f,bgwjmvsuwb,Trevor_EX2,1,122,2020-07-23T14:37:31-07:00,2.9868488311768,3,Pure_Unrelated.csv,JOL_H_VersionA.csv,"Highlight U A","Highlight U A",BRONZE,ARTERY,Study2,U,104,65,JOL_H,User,-,"How likely are you to correctly recall the second item in the pair?|Type your response on a scale from 0-100 and then press Enter.",Study/JOL,"Study Phase2",2532,,,2340,2340,,,,0,0.692
5ede34f5255765051d450b9f,bgwjmvsuwb,Trevor_EX2,1,123,2020-07-23T14:37:34-07:00,2.6809041500092,3,Pure_Unrelated.csv,JOL_H_VersionA.csv,"Highlight U A","Highlight U A",SWING,FOG,Study2,U,175,74,JOL_H,User,-,"How likely are you to correctly recall the second item in the pair?|Type your response on a scale from 0-100 and then press Enter.",Study/JOL,"Study Phase2",2271,,,2047,2047,,,,0,1
5ede34f5255765051d450b9f,bgwjmvsuwb,Trevor_EX2,1,124,2020-07-23T14:37:37-07:00,2.9516298770905,3,Pure_Unrelated.csv,JOL_H_VersionA.csv,"Highlight U A","Highlight U A",MUTE,WAVE,Study2,U,173,78,JOL,User,-,"How likely are you to correctly recall the second item in the pair?|Type your response on a scale from 0-100 and then press Enter.",Study/JOL,"Study Phase2",2508,,,1884,2012,,,,15,1
5ede34f5255765051d450b9f,bgwjmvsuwb,Trevor_EX2,1,125,2020-07-23T14:37:52-07:00,15.153429031372,3,Pure_Unrelated.csv,JOL_H_VersionA.csv,"Highlight U A","Highlight U A",SLIM,KNOW,Study2,U,164,70,JOL_H,User,-,"How likely are you to correctly recall the second item in the pair?|Type your response on a scale from 0-100 and then press Enter.",Study/JOL,"Study Phase2",14634,,,14322,14440,,,,10,0.581
5ede34f5255765051d450b9f,bgwjmvsuwb,Trevor_EX2,1,126,2020-07-23T14:37:58-07:00,5.9428989887238,3,Pure_Unrelated.csv,JOL_H_VersionA.csv,"Highlight U A","Highlight U A",LAKE,OPINION,Study2,U,160,69,JOL_H,User,-,"How likely are you to correctly recall the second item in the pair?|Type your response on a scale from 0-100 and then press Enter.",Study/JOL,"Study Phase2",5343,,,5177,5223,,,,15,0.37
5ede34f5255765051d450b9f,bgwjmvsuwb,Trevor_EX2,1,127,2020-07-23T14:38:13-07:00,14.747208118439,3,Pure_Unrelated.csv,JOL_H_VersionA.csv,"Highlight U A","Highlight U A",STOMACH,TOWN,Study2,U,159,72,JOL_H,User,-,"How likely are you to correctly recall the second item in the pair?|Type your response on a scale from 0-100 and then press Enter.",Study/JOL,"Study Phase2",14219,,,14067,14114,,,,15,0.097
5ede34f5255765051d450b9f,bgwjmvsuwb,Trevor_EX2,1,128,2020-07-23T14:38:15-07:00,2.7625818252563,3,Pure_Unrelated.csv,JOL_H_VersionA.csv,"Highlight U A","Highlight U A",WOULD,CASH,Study2,U,113,85,JOL,User,-,"How likely are you to correctly recall the second item in the pair?|Type your response on a scale from 0-100 and then press Enter.",Study/JOL,"Study Phase2",2073,,,1642,1897,,,,20,0.455
5ede34f5255765051d450b9f,bgwjmvsuwb,Trevor_EX2,1,129,2020-07-23T14:38:22-07:00,6.5541911125183,3,Pure_Unrelated.csv,JOL_H_VersionA.csv,"Highlight U A","Highlight U A",HAND,FIX,Study2,U,105,67,JOL_H,User,-,"How likely are you to correctly recall the second item in the pair?|Type your response on a scale from 0-100 and then press Enter.",Study/JOL,"Study Phase2",5973,,,5716,5845,,,,45,0.4
5ede34f5255765051d450b9f,bgwjmvsuwb,Trevor_EX2,1,130,2020-07-23T14:38:25-07:00,2.6641459465027,3,Pure_Unrelated.csv,JOL_H_VersionA.csv,"Highlight U A","Highlight U A",SPELL,BONE,Study2,U,174,92,JOL,User,-,"How likely are you to correctly recall the second item in the pair?|Type your response on a scale from 0-100 and then press Enter.",Study/JOL,"Study Phase2",2174,,,1952,1952,,,,0,1
5ede34f5255765051d450b9f,bgwjmvsuwb,Trevor_EX2,1,131,2020-07-23T14:38:45-07:00,20.379837036133,3,Pure_Unrelated.csv,JOL_H_VersionA.csv,"Highlight U A","Highlight U A",READY,CORN,Study2,U,158,77,JOL,User,-,"How likely are you to correctly recall the second item in the pair?|Type your response on a scale from 0-100 and then press Enter.",Study/JOL,"Study Phase2",18660,,,18515,18516,,,,0,0.149
5ede34f5255765051d450b9f,bgwjmvsuwb,Trevor_EX2,1,132,2020-07-23T14:38:50-07:00,5.0018720626831,3,Pure_Unrelated.csv,JOL_H_VersionA.csv,"Highlight U A","Highlight U A",ADD,VALLEY,Study2,U,112,87,JOL,User,-,"How likely are you to correctly recall the second item in the pair?|Type your response on a scale from 0-100 and then press Enter.",Study/JOL,"Study Phase2",4315,,,3604,3604,,,,0,0.5
5ede34f5255765051d450b9f,bgwjmvsuwb,Trevor_EX2,1,133,2020-07-23T14:38:52-07:00,2.5338430404663,3,Pure_Unrelated.csv,JOL_H_VersionA.csv,"Highlight U A","Highlight U A",SYSTEM,LICK,Study2,U,167,68,JOL_H,User,-,"How likely are you to correctly recall the second item in the pair?|Type your response on a scale from 0-100 and then press Enter.",Study/JOL,"Study Phase2",1943,,,1736,1736,,,,0,1
5ede34f5255765051d450b9f,bgwjmvsuwb,Trevor_EX2,1,134,2020-07-23T14:38:54-07:00,1.9640970230103,3,Pure_Unrelated.csv,JOL_H_VersionA.csv,"Highlight U A","Highlight U A",VASE,KING,Study2,U,115,91,JOL,User,-,"How likely are you to correctly recall the second item in the pair?|Type your response on a scale from 0-100 and then press Enter.",Study/JOL,"Study Phase2",1663,,,1472,1472,,,,0,1
5ede34f5255765051d450b9f,bgwjmvsuwb,Trevor_EX2,1,135,2020-07-23T14:38:57-07:00,2.5815889835358,3,Pure_Unrelated.csv,JOL_H_VersionA.csv,"Highlight U A","Highlight U A",LION,ART,Study2,U,109,81,JOL,User,-,"How likely are you to correctly recall the second item in the pair?|Type your response on a scale from 0-100 and then press Enter.",Study/JOL,"Study Phase2",1961,,,1681,1802,,,,20,1
5ede34f5255765051d450b9f,bgwjmvsuwb,Trevor_EX2,1,136,2020-07-23T14:39:00-07:00,2.6912000179291,3,Pure_Unrelated.csv,JOL_H_VersionA.csv,"Highlight U A","Highlight U A",SACKING,DIETARY,Study2,U,97,95,JOL,User,-,"How likely are you to correctly recall the second item in the pair?|Type your response on a scale from 0-100 and then press Enter.",Study/JOL,"Study Phase2",1913,,,1728,1728,,,,0,0.6
5ede34f5255765051d450b9f,bgwjmvsuwb,Trevor_EX2,1,137,2020-07-23T14:39:02-07:00,2.0099649429321,3,Pure_Unrelated.csv,JOL_H_VersionA.csv,"Highlight U A","Highlight U A",PUT,ROLL,Study2,U,163,62,JOL_H,User,-,"How likely are you to correctly recall the second item in the pair?|Type your response on a scale from 0-100 and then press Enter.",Study/JOL,"Study Phase2",1718,,,1470,1530,,,,15,1
5ede34f5255765051d450b9f,bgwjmvsuwb,Trevor_EX2,1,138,2020-07-23T14:39:05-07:00,3.0078539848328,3,Pure_Unrelated.csv,JOL_H_VersionA.csv,"Highlight U A","Highlight U A",NULL,COUGH,Study2,U,156,75,JOL_H,User,-,"How likely are you to correctly recall the second item in the pair?|Type your response on a scale from 0-100 and then press Enter.",Study/JOL,"Study Phase2",2396,,,2124,2212,,,,20,1
5ede34f5255765051d450b9f,bgwjmvsuwb,Trevor_EX2,1,139,2020-07-23T14:39:08-07:00,3.449588060379,3,Pure_Unrelated.csv,JOL_H_VersionA.csv,"Highlight U A","Highlight U A",FLOOR,DISCOVER,Study2,U,101,94,JOL,User,-,"How likely are you to correctly recall the second item in the pair?|Type your response on a scale from 0-100 and then press Enter.",Study/JOL,"Study Phase2",2989,,,2759,2836,,,,30,0.8
5ede34f5255765051d450b9f,bgwjmvsuwb,Trevor_EX2,1,140,2020-07-23T14:39:11-07:00,2.5675389766693,3,Pure_Unrelated.csv,JOL_H_VersionA.csv,"Highlight U A","Highlight U A",SIGHT,DEBATE,Study2,U,103,84,JOL,User,-,"How likely are you to correctly recall the second item in the pair?|Type your response on a scale from 0-100 and then press Enter.",Study/JOL,"Study Phase2",2137,,,1258,1993,,,,20,1
5ede34f5255765051d450b9f,bgwjmvsuwb,Trevor_EX2,1,141,2020-07-23T14:39:13-07:00,2.4544768333435,3,Pure_Unrelated.csv,JOL_H_VersionA.csv,"Highlight U A","Highlight U A",POSITION,MACHINE,Study2,U,106,59,JOL_H,User,-,"How likely are you to correctly recall the second item in the pair?|Type your response on a scale from 0-100 and then press Enter.",Study/JOL,"Study Phase2",2030,,,1750,1862,,,,70,1
5ede34f5255765051d450b9f,bgwjmvsuwb,Trevor_EX2,1,142,2020-07-23T14:39:17-07:00,4.0905771255493,3,Pure_Unrelated.csv,JOL_H_VersionA.csv,"Highlight U A","Highlight U A",ACCIDENT,STRONG,Study2,U,110,57,JOL_H,User,-,"How likely are you to correctly recall the second item in the pair?|Type your response on a scale from 0-100 and then press Enter.",Study/JOL,"Study Phase2",3417,,,2025,2025,,,,0,0.778
5ede34f5255765051d450b9f,bgwjmvsuwb,Trevor_EX2,1,143,2020-07-23T14:39:23-07:00,5.6426749229431,3,Pure_Unrelated.csv,JOL_H_VersionA.csv,"Highlight U A","Highlight U A",JELLY,NAUGHTY,Study2,U,172,90,JOL,User,-,"How likely are you to correctly recall the second item in the pair?|Type your response on a scale from 0-100 and then press Enter.",Study/JOL,"Study Phase2",5141,,,4864,4864,,,,0,0.192
5ede34f5255765051d450b9f,bgwjmvsuwb,Trevor_EX2,1,144,2020-07-23T14:39:29-07:00,6.1014931201935,3,Pure_Unrelated.csv,JOL_H_VersionA.csv,"Highlight U A","Highlight U A",PUFF,NUMBER,Study2,U,171,71,JOL_H,User,-,"How likely are you to correctly recall the second item in the pair?|Type your response on a scale from 0-100 and then press Enter.",Study/JOL,"Study Phase2",5605,,,5427,5483,,,,15,0.379
5ede34f5255765051d450b9f,bgwjmvsuwb,Trevor_EX2,1,145,2020-07-23T14:39:33-07:00,3.7202398777008,3,Pure_Unrelated.csv,JOL_H_VersionA.csv,"Highlight U A","Highlight U A",CLUTTER,PUSHER,Study2,U,96,86,JOL,User,-,"How likely are you to correctly recall the second item in the pair?|Type your response on a scale from 0-100 and then press Enter.",Study/JOL,"Study Phase2",3201,,,2980,3049,,,,20,1
5ede34f5255765051d450b9f,bgwjmvsuwb,Trevor_EX2,1,146,2020-07-23T14:39:37-07:00,4.5649430751801,3,Pure_Unrelated.csv,JOL_H_VersionA.csv,"Highlight U A","Highlight U A",ROAD,SCENT,Study2,U,166,79,JOL,User,-,"How likely are you to correctly recall the second item in the pair?|Type your response on a scale from 0-100 and then press Enter.",Study/JOL,"Study Phase2",4047,,,2327,3895,,,,20,1
5ede34f5255765051d450b9f,bgwjmvsuwb,Trevor_EX2,1,147,2020-07-23T14:39:41-07:00,3.3172149658203,3,Pure_Unrelated.csv,JOL_H_VersionA.csv,"Highlight U A","Highlight U A",DAYS,WEEKS,BUFFER4,Buffer,176,98,JOL_H,User,-,"How likely are you to correctly recall the second item in the pair?|Type your response on a scale from 0-100 and then press Enter.",Study/JOL,BUFFER4,2841,,,2409,2672,,,,100,0.867
5ede34f5255765051d450b9f,bgwjmvsuwb,Trevor_EX2,1,148,2020-07-23T14:39:42-07:00,1.7443149089813,3,Pure_Unrelated.csv,JOL_H_VersionA.csv,"Highlight U A","Highlight U A",TOOL,SHED,BUFFER4,Buffer,178,101,JOL,User,-,"How likely are you to correctly recall the second item in the pair?|Type your response on a scale from 0-100 and then press Enter.",Study/JOL,BUFFER4,1355,,,771,1211,,,,100,1
5ede34f5255765051d450b9f,bgwjmvsuwb,Trevor_EX2,1,149,2020-07-23T14:39:44-07:00,1.6956460475922,3,Pure_Unrelated.csv,JOL_H_VersionA.csv,"Highlight U A","Highlight U A",MONTH,YEAR,BUFFER4,Buffer,177,99,JOL_H,User,-,"How likely are you to correctly recall the second item in the pair?|Type your response on a scale from 0-100 and then press Enter.",Study/JOL,BUFFER4,1396,,,782,1221,,,,100,1
5ede34f5255765051d450b9f,bgwjmvsuwb,Trevor_EX2,1,150,2020-07-23T14:39:46-07:00,1.9623191356659,3,Pure_Unrelated.csv,JOL_H_VersionA.csv,"Highlight U A","Highlight U A",SPRING,MARCH,BUFFER4,Buffer,179,100,JOL,User,-,"How likely are you to correctly recall the second item in the pair?|Type your response on a scale from 0-100 and then press Enter.",Study/JOL,BUFFER4,1529,,,1352,1416,,,,85,1
5ede34f5255765051d450b9f,bgwjmvsuwb,Trevor_EX2,1,151,2020-07-23T14:39:49-07:00,2.4835598468781,3,Pure_Unrelated.csv,JOL_H_VersionA.csv,"Highlight U A","Highlight U A",OCTOBER,SPOOKY,BUFFER4,Buffer,180,97,JOL_H,User,-,"How likely are you to correctly recall the second item in the pair?|Type your response on a scale from 0-100 and then press Enter.",Study/JOL,BUFFER4,1999,,,1680,1855,,,,100,1
5ede34f5255765051d450b9f,bgwjmvsuwb,Trevor_EX2,1,152,2020-07-23T14:39:50-07:00,1.5211191177368,3,Pure_Unrelated.csv,JOL_H_VersionA.csv,"Highlight U A","Highlight U A",,,,,,0,Instruct,User,-,"You have completed this section. Please press Enter.",Filler_Instruction,Instruct5,1142,,,-1,-1,,,,,1
5ede34f5255765051d450b9f,bgwjmvsuwb,Trevor_EX2,1,153,2020-07-23T14:41:51-07:00,120.65917205811,3,Pure_Unrelated.csv,JOL_H_VersionA.csv,"Highlight U A","Highlight U A",,,,,,0,FreeRecall,120,120,"Please list the 50 US states in reverse alphabetical order (z - a). The task will automatically advance to the next screen after two minutes.",,Filler2,120001,"I still have no idea. I'm just going again with what I know Florida, California, Colorado, Mississippi, Missouri, Texas, Arizona, New Mexico, Vermont, Montana, New York, New Jersey, Michigan, ",0,12393,111825,0,0,,,0.702
5ede34f5255765051d450b9f,bgwjmvsuwb,Trevor_EX2,1,154,2020-07-23T14:42:04-07:00,13.659662008286,3,Pure_Unrelated.csv,JOL_H_VersionA.csv,"Highlight U A","Highlight U A",,,,,,0,Instruct,-,10,"You will now be presented with the first word from each of the previously studied item pairs. Please type the missing word. If you do not know the word, you may guess or press Enter to skip forward to the next pair.",,Instruct6,12991,,,-1,-1,,,,,0.733
5ede34f5255765051d450b9f,bgwjmvsuwb,Trevor_EX2,1,155,2020-07-23T14:42:07-07:00,2.710480928421,3,Pure_Unrelated.csv,JOL_H_VersionA.csv,"Highlight U A","Highlight U A",TUCK,ALLOW,Study2,U,108,96,Test,User,-,,Recall,Recall2,2220,Bed,0,1363,1587,0,0,,,1
5ede34f5255765051d450b9f,bgwjmvsuwb,Trevor_EX2,1,156,2020-07-23T14:42:11-07:00,4.3219368457794,3,Pure_Unrelated.csv,JOL_H_VersionA.csv,"Highlight U A","Highlight U A",BELT,SOON,Study2,U,100,89,Test,User,-,,Recall,Recall2,3840,Loop,50,3287,3703,0,0,,,1
5ede34f5255765051d450b9f,bgwjmvsuwb,Trevor_EX2,1,157,2020-07-23T14:42:15-07:00,3.7924580574036,3,Pure_Unrelated.csv,JOL_H_VersionA.csv,"Highlight U A","Highlight U A",WASTE,SEDATE,Study2,U,165,93,Test,User,-,,Recall,Recall2,3232,Garbage,30.769230769231,2544,3152,0,0,,,1
5ede34f5255765051d450b9f,bgwjmvsuwb,Trevor_EX2,1,158,2020-07-23T14:42:18-07:00,3.1167981624603,3,Pure_Unrelated.csv,JOL_H_VersionA.csv,"Highlight U A","Highlight U A",STOMACH,TOWN,Study2,U,159,72,Test,User,-,,Recall,Recall2,2705,,0,-1,-1,0,0,,,1
5ede34f5255765051d450b9f,bgwjmvsuwb,Trevor_EX2,1,159,2020-07-23T14:42:23-07:00,4.2506279945374,3,Pure_Unrelated.csv,JOL_H_VersionA.csv,"Highlight U A","Highlight U A",SWING,FOG,Study2,U,175,74,Test,User,-,,Recall,Recall2,3614,Set,0,1719,3510,0,0,,,1
5ede34f5255765051d450b9f,bgwjmvsuwb,Trevor_EX2,1,160,2020-07-23T14:42:29-07:00,6.0247139930725,3,Pure_Unrelated.csv,JOL_H_VersionA.csv,"Highlight U A","Highlight U A",PUFF,NUMBER,Study2,U,171,71,Test,User,-,,Recall,Recall2,5406,"Puff JR ",30.769230769231,2556,4077,0,0,,,1
5ede34f5255765051d450b9f,bgwjmvsuwb,Trevor_EX2,1,161,2020-07-23T14:42:37-07:00,8.5219078063965,3,Pure_Unrelated.csv,JOL_H_VersionA.csv,"Highlight U A","Highlight U A",NULL,COUGH,Study2,U,156,75,Test,User,-,,Recall,Recall2,7948,Noise,20,7302,7811,0,0,,,1
5ede34f5255765051d450b9f,bgwjmvsuwb,Trevor_EX2,1,162,2020-07-23T14:42:41-07:00,3.5629291534424,3,Pure_Unrelated.csv,JOL_H_VersionA.csv,"Highlight U A","Highlight U A",BRONZE,ARTERY,Study2,U,104,65,Test,User,-,,Recall,Recall2,3035,,0,-1,-1,0,0,,,1
5ede34f5255765051d450b9f,bgwjmvsuwb,Trevor_EX2,1,163,2020-07-23T14:42:46-07:00,5.015832901001,3,Pure_Unrelated.csv,JOL_H_VersionA.csv,"Highlight U A","Highlight U A",ACCIDENT,STRONG,Study2,U,110,57,Test,User,-,,Recall,Recall2,4368,Family,0,3552,4258,0,0,,,1
5ede34f5255765051d450b9f,bgwjmvsuwb,Trevor_EX2,1,164,2020-07-23T14:42:49-07:00,3.0694301128387,3,Pure_Unrelated.csv,JOL_H_VersionA.csv,"Highlight U A","Highlight U A",GUARD,WHEEL,Study2,U,170,66,Test,User,-,,Recall,Recall2,2368,,0,-1,-1,0,0,,,1
5ede34f5255765051d450b9f,bgwjmvsuwb,Trevor_EX2,1,165,2020-07-23T14:42:54-07:00,4.8102550506592,3,Pure_Unrelated.csv,JOL_H_VersionA.csv,"Highlight U A","Highlight U A",DETECT,FREE,Study2,U,162,60,Test,User,-,,Recall,Recall2,4197,Spot,0,3741,4069,0,0,,,1
5ede34f5255765051d450b9f,bgwjmvsuwb,Trevor_EX2,1,166,2020-07-23T14:43:03-07:00,9.3535017967224,3,Pure_Unrelated.csv,JOL_H_VersionA.csv,"Highlight U A","Highlight U A",WOULD,CASH,Study2,U,113,85,Test,User,-,,Recall,Recall2,8956,,0,-1,-1,0,0,,,0.622
5ede34f5255765051d450b9f,bgwjmvsuwb,Trevor_EX2,1,167,2020-07-23T14:43:29-07:00,26.093883991241,3,Pure_Unrelated.csv,JOL_H_VersionA.csv,"Highlight U A","Highlight U A",HAND,FIX,Study2,U,105,67,Test,User,-,,Recall,Recall2,4033,,0,2211,2841,0,0,,,1
5ede34f5255765051d450b9f,bgwjmvsuwb,Trevor_EX2,1,168,2020-07-23T14:43:34-07:00,4.9172430038452,3,Pure_Unrelated.csv,JOL_H_VersionA.csv,"Highlight U A","Highlight U A",SICK,HIDE,Study2,U,114,80,Test,User,-,,Recall,Recall2,4441,Sore,25,2770,4329,0,0,,,0.826
5ede34f5255765051d450b9f,bgwjmvsuwb,Trevor_EX2,1,169,2020-07-23T14:43:37-07:00,2.649551153183,3,Pure_Unrelated.csv,JOL_H_VersionA.csv,"Highlight U A","Highlight U A",FLOAT,HARMONY,Study2,U,161,73,Test,User,-,,Recall,Recall2,2064,Boat,18.181818181818,1736,1967,0,0,,,1
5ede34f5255765051d450b9f,bgwjmvsuwb,Trevor_EX2,1,170,2020-07-23T14:43:39-07:00,2.5600719451904,3,Pure_Unrelated.csv,JOL_H_VersionA.csv,"Highlight U A","Highlight U A",READY,CORN,Study2,U,158,77,Test,User,-,,Recall,Recall2,1897,Go,33.333333333333,1360,1449,0,0,,,1
5ede34f5255765051d450b9f,bgwjmvsuwb,Trevor_EX2,1,171,2020-07-23T14:43:44-07:00,4.5211689472198,3,Pure_Unrelated.csv,JOL_H_VersionA.csv,"Highlight U A","Highlight U A",FLOOR,DISCOVER,Study2,U,101,94,Test,User,-,,Recall,Recall2,2923,Tiles,30.769230769231,2011,2757,0,0,,,0.8
5ede34f5255765051d450b9f,bgwjmvsuwb,Trevor_EX2,1,172,2020-07-23T14:43:50-07:00,6.1230700016022,3,Pure_Unrelated.csv,JOL_H_VersionA.csv,"Highlight U A","Highlight U A",RIDDLE,SUGAR,Study2,U,111,76,Test,User,-,,Recall,Recall2,5628,,0,-1,-1,0,0,,,1
5ede34f5255765051d450b9f,bgwjmvsuwb,Trevor_EX2,1,173,2020-07-23T14:43:55-07:00,5.0203800201416,3,Pure_Unrelated.csv,JOL_H_VersionA.csv,"Highlight U A","Highlight U A",SMOOTH,OMIT,Study2,U,157,64,Test,User,-,,Recall,Recall2,4337,Sailing,18.181818181818,3539,4224,0,0,,,0.773
5ede34f5255765051d450b9f,bgwjmvsuwb,Trevor_EX2,1,174,2020-07-23T14:43:56-07:00,1.6338341236115,3,Pure_Unrelated.csv,JOL_H_VersionA.csv,"Highlight U A","Highlight U A",VASE,KING,Study2,U,115,91,Test,User,-,,Recall,Recall2,1245,,0,-1,-1,0,0,,,1
5ede34f5255765051d450b9f,bgwjmvsuwb,Trevor_EX2,1,175,2020-07-23T14:44:00-07:00,3.3752729892731,3,Pure_Unrelated.csv,JOL_H_VersionA.csv,"Highlight U A","Highlight U A",ADD,VALLEY,Study2,U,112,87,Test,User,-,,Recall,Recall2,2900,Subtract,14.285714285714,2108,2796,0,0,,,1
5ede34f5255765051d450b9f,bgwjmvsuwb,Trevor_EX2,1,176,2020-07-23T14:44:02-07:00,1.7448008060455,3,Pure_Unrelated.csv,JOL_H_VersionA.csv,"Highlight U A","Highlight U A",SPELL,BONE,Study2,U,174,92,Test,User,-,,Recall,Recall2,1257,,0,-1,-1,0,0,,,1
5ede34f5255765051d450b9f,bgwjmvsuwb,Trevor_EX2,1,177,2020-07-23T14:44:06-07:00,4.9175670146942,3,Pure_Unrelated.csv,JOL_H_VersionA.csv,"Highlight U A","Highlight U A",LION,ART,Study2,U,109,81,Test,User,-,,Recall,Recall2,4341,Roar,57.142857142857,4012,4224,0,0,,,0.636
5ede34f5255765051d450b9f,bgwjmvsuwb,Trevor_EX2,1,178,2020-07-23T14:44:09-07:00,2.1045219898224,3,Pure_Unrelated.csv,JOL_H_VersionA.csv,"Highlight U A","Highlight U A",SYSTEM,LICK,Study2,U,167,68,Test,User,-,,Recall,Recall2,1726,,0,-1,-1,0,0,,,1
5ede34f5255765051d450b9f,bgwjmvsuwb,Trevor_EX2,1,179,2020-07-23T14:44:12-07:00,2.9163661003113,3,Pure_Unrelated.csv,JOL_H_VersionA.csv,"Highlight U A","Highlight U A",WOMAN,LIFT,Study2,U,99,82,Test,User,-,,Recall,Recall2,2382,Please,20,1830,2246,0,0,,,1
5ede34f5255765051d450b9f,bgwjmvsuwb,Trevor_EX2,1,180,2020-07-23T14:44:15-07:00,3.1754109859467,3,Pure_Unrelated.csv,JOL_H_VersionA.csv,"Highlight U A","Highlight U A",MUTE,WAVE,Study2,U,173,78,Test,User,-,,Recall,Recall2,2519,Volume,40,1838,2417,0,0,,,1
5ede34f5255765051d450b9f,bgwjmvsuwb,Trevor_EX2,1,181,2020-07-23T14:44:20-07:00,5.3463160991669,3,Pure_Unrelated.csv,JOL_H_VersionA.csv,"Highlight U A","Highlight U A",LAKE,OPINION,Study2,U,160,69,Test,User,-,,Recall,Recall2,4631,Lot,20,2566,4518,0,0,,,0.833
5ede34f5255765051d450b9f,bgwjmvsuwb,Trevor_EX2,1,182,2020-07-23T14:44:22-07:00,1.8421788215637,3,Pure_Unrelated.csv,JOL_H_VersionA.csv,"Highlight U A","Highlight U A",POSITION,MACHINE,Study2,U,106,59,Test,User,-,,Recall,Recall2,1507,,0,-1,-1,0,0,,,1
5ede34f5255765051d450b9f,bgwjmvsuwb,Trevor_EX2,1,183,2020-07-23T14:44:25-07:00,2.6426591873169,3,Pure_Unrelated.csv,JOL_H_VersionA.csv,"Highlight U A","Highlight U A",LOAN,SIGN,Study1,U,21,23,Test,User,-,,Recall,Recall2,2191,Bank,25,1735,2023,0,0,,,1
5ede34f5255765051d450b9f,bgwjmvsuwb,Trevor_EX2,1,184,2020-07-23T14:44:27-07:00,2.4831969738007,3,Pure_Unrelated.csv,JOL_H_VersionA.csv,"Highlight U A","Highlight U A",SACKING,DIETARY,Study2,U,97,95,Test,User,-,,Recall,Recall2,1994,,0,-1,-1,0,0,,,0.8
5ede34f5255765051d450b9f,bgwjmvsuwb,Trevor_EX2,1,185,2020-07-23T14:44:31-07:00,3.9492468833923,3,Pure_Unrelated.csv,JOL_H_VersionA.csv,"Highlight U A","Highlight U A",ZOO,THUMB,Study2,U,168,61,Test,User,-,,Recall,Recall2,2401,Animal,18.181818181818,1785,2272,0,0,,,0.667
5ede34f5255765051d450b9f,bgwjmvsuwb,Trevor_EX2,1,186,2020-07-23T14:44:34-07:00,3.3964009284973,3,Pure_Unrelated.csv,JOL_H_VersionA.csv,"Highlight U A","Highlight U A",Business,Death,Study2,U,102,88,Test,User,-,,Recall,Recall2,2922,Account,33.333333333333,2066,2805,0,0,,,0.733
5ede34f5255765051d450b9f,bgwjmvsuwb,Trevor_EX2,1,187,2020-07-23T14:44:52-07:00,17.669839143753,3,Pure_Unrelated.csv,JOL_H_VersionA.csv,"Highlight U A","Highlight U A",CLUTTER,PUSHER,Study2,U,96,86,Test,User,-,,Recall,Recall2,17096,Free,20,16631,17032,0,0,,,0.163
5ede34f5255765051d450b9f,bgwjmvsuwb,Trevor_EX2,1,188,2020-07-23T14:45:06-07:00,14.173520088196,3,Pure_Unrelated.csv,JOL_H_VersionA.csv,"Highlight U A","Highlight U A",POSITION,MACHINE,Study2,U,106,59,Test,User,-,,Recall,Recall2,13608,,0,-1,-1,0,0,,,0.058
5ede34f5255765051d450b9f,bgwjmvsuwb,Trevor_EX2,1,189,2020-07-23T14:45:09-07:00,2.9728379249573,3,Pure_Unrelated.csv,JOL_H_VersionA.csv,"Highlight U A","Highlight U A",JELLY,NAUGHTY,Study2,U,172,90,Test,User,-,,Recall,Recall2,2400,Naughty,100,1665,2312,1,1,,,1
5ede34f5255765051d450b9f,bgwjmvsuwb,Trevor_EX2,1,190,2020-07-23T14:45:13-07:00,4.0950469970703,3,Pure_Unrelated.csv,JOL_H_VersionA.csv,"Highlight U A","Highlight U A",SIGHT,DEBATE,Study2,U,103,84,Test,User,-,,Recall,Recall2,3531,See,44.444444444444,3194,3435,0,0,,,0.778
5ede34f5255765051d450b9f,bgwjmvsuwb,Trevor_EX2,1,191,2020-07-23T14:45:20-07:00,6.7640800476074,3,Pure_Unrelated.csv,JOL_H_VersionA.csv,"Highlight U A","Highlight U A",PUT,ROLL,Study2,U,163,62,Test,User,-,,Recall,Recall2,6209,,0,-1,-1,0,0,,,0.406
5ede34f5255765051d450b9f,bgwjmvsuwb,Trevor_EX2,1,192,2020-07-23T14:45:23-07:00,2.6583359241486,3,Pure_Unrelated.csv,JOL_H_VersionA.csv,"Highlight U A","Highlight U A",ROAD,SCENT,Study2,U,166,79,Test,User,-,,Recall,Recall2,2187,Block,20,1738,2058,0,0,,,1
5ede34f5255765051d450b9f,bgwjmvsuwb,Trevor_EX2,1,193,2020-07-23T14:45:29-07:00,5.9387218952179,3,Pure_Unrelated.csv,JOL_H_VersionA.csv,"Highlight U A","Highlight U A",SLIM,KNOW,Study2,U,164,70,Test,User,-,,Recall,Recall2,5327,,0,-1,-1,0,0,,,0.148
5ede34f5255765051d450b9f,bgwjmvsuwb,Trevor_EX2,1,194,2020-07-23T14:45:42-07:00,13.004623174667,3,Pure_Unrelated.csv,JOL_H_VersionA.csv,"Highlight U A","Highlight U A",HUNGRY,PARK,Study2,U,98,63,Test,User,-,,Recall,Recall2,12404,Man,28.571428571429,12076,12276,0,0,,,0.127
5ede34f5255765051d450b9f,bgwjmvsuwb,Trevor_EX2,1,195,2020-07-23T14:45:43-07:00,1.7213418483734,3,Pure_Unrelated.csv,JOL_H_VersionA.csv,"Highlight U A","Highlight U A",,,,,,0,Instruct,User,-,"You have completed this section. Please press Enter.",,Instruct7,1326,,,-1,-1,,,,,1
5ede34f5255765051d450b9f,bgwjmvsuwb,Trevor_EX2,1,196,2020-07-23T14:45:50-07:00,7.0832140445709,3,Pure_Unrelated.csv,JOL_H_VersionA.csv,"Highlight U A","Highlight U A",,,,,,0,Instruct,User,-,"The following screen will ask you a few questions abour your experience today. You must complete these questions to receive credit.",,Instruct8,6609,,,-1,-1,,,,,0.559
