Username,ID,ExperimentName,Session,Trial,Date,TimeDif,"Condition Number","Stimuli File","Order File","Condition Description","Condition Notes",Stimuli*Cue,Stimuli*Answer,Stimuli*Shuffle,"Stimuli*Stimuli Notes",Stimuli*Value,Procedure*Item,"Procedure*Trial Type","Procedure*Max Time","Procedure*Min Time",Procedure*Text,"Procedure*Procedure Notes",Procedure*Shuffle,Response*RT,Response*Response,Response*Accuracy,Response*RTfirst,Response*RTlast,Response*strictAcc,Response*lenientAcc,Response*focus,Response*JOL,Response*Focus
5eed652a24c83c1975669e88,acmet8khjh,Trevor_EX2,1,1,2020-07-23T14:41:28-07:00,7.4613800048828,4,Pure_Unrelated.csv,JOL_H_VersionB.csv,"Highlight U B","Highlight U B",,,,,,0,Instruct,-,5,"In this section, you will be presented with a series of word pairs.",Initial_Instruct,Instruct1,7060,,,-1,-1,,,,,0.639
5eed652a24c83c1975669e88,acmet8khjh,Trevor_EX2,1,2,2020-07-23T14:41:48-07:00,19.307368993759,4,Pure_Unrelated.csv,JOL_H_VersionB.csv,"Highlight U B","Highlight U B",,,,,,0,Instruct,-,5,"As you study, you will be asked to rate your ability to remember the second item in the pair if you were only shown the first at test. You will make these ratings using a 0 to 100 Scale.",,Instruct13,18788,,,-1,-1,,,,,0.617
5eed652a24c83c1975669e88,acmet8khjh,Trevor_EX2,1,3,2020-07-23T14:41:58-07:00,10.815590858459,4,Pure_Unrelated.csv,JOL_H_VersionB.csv,"Highlight U B","Highlight U B",,,,,,0,Instruct,-,10,"For example, if you are given the pair CAT - DOG, a rating of 0 indicates that you would not remember DOG at test, while a rating of 100 indicates full certainty that you would remember the word DOG at test.",,Instruct14,10439,,,-1,-1,,,,,0.462
5eed652a24c83c1975669e88,acmet8khjh,Trevor_EX2,1,4,2020-07-23T14:42:10-07:00,11.982540130615,4,Pure_Unrelated.csv,JOL_H_VersionB.csv,"Highlight U B","Highlight U B",,,,,,0,Instruct,-,10,"When making your ratings, it is criticial that you use the full range of the scale. You will be disqualified for only giving ratings of 0 or 100! After making your rating, press Enter to advance to the next pair.",,Instruct15,11486,,,-1,-1,,,,,0.138
5eed652a24c83c1975669e88,acmet8khjh,Trevor_EX2,1,5,2020-07-23T14:42:13-07:00,2.4137380123138,4,Pure_Unrelated.csv,JOL_H_VersionB.csv,"Highlight U B","Highlight U B",,,,,,0,Instruct,User,-,"You will now begin the study. Press Enter when you are ready to begin.",,Instruct16,1972,,,-1,-1,,,,,1
5eed652a24c83c1975669e88,acmet8khjh,Trevor_EX2,1,6,2020-07-23T14:42:22-07:00,8.6312420368195,4,Pure_Unrelated.csv,JOL_H_VersionB.csv,"Highlight U B","Highlight U B",NOODLE,STRING,BUFFER3,Buffer,92,53,JOL,User,-,"How likely are you to correctly recall the second item in the pair?|Type your response on a scale from 0-100 and then press Enter.",Study/JOL,BUFFER,8249,,,7306,7350,,,,90,1
5eed652a24c83c1975669e88,acmet8khjh,Trevor_EX2,1,7,2020-07-23T14:42:35-07:00,13.525885820389,4,Pure_Unrelated.csv,JOL_H_VersionB.csv,"Highlight U B","Highlight U B",ICE,FROZEN,BUFFER3,Buffer,94,56,JOL_H,User,-,"How likely are you to correctly recall the second item in the pair?|Type your response on a scale from 0-100 and then press Enter.",Study/JOL,BUFFER,13092,,,10888,10961,,,,70,0.455
5eed652a24c83c1975669e88,acmet8khjh,Trevor_EX2,1,8,2020-07-23T14:42:44-07:00,9.0479381084442,4,Pure_Unrelated.csv,JOL_H_VersionB.csv,"Highlight U B","Highlight U B",CARROT,POTATO,BUFFER3,Buffer,91,55,JOL_H,User,-,"How likely are you to correctly recall the second item in the pair?|Type your response on a scale from 0-100 and then press Enter.",Study/JOL,BUFFER,8695,,,3197,7781,,,,20,1
5eed652a24c83c1975669e88,acmet8khjh,Trevor_EX2,1,9,2020-07-23T14:42:52-07:00,7.604640007019,4,Pure_Unrelated.csv,JOL_H_VersionB.csv,"Highlight U B","Highlight U B",SHRIMP,FISH,BUFFER3,Buffer,93,54,JOL_H,User,-,"How likely are you to correctly recall the second item in the pair?|Type your response on a scale from 0-100 and then press Enter.",Study/JOL,BUFFER,7245,,,6000,6342,,,,40,1
5eed652a24c83c1975669e88,acmet8khjh,Trevor_EX2,1,10,2020-07-23T14:42:59-07:00,6.814975976944,4,Pure_Unrelated.csv,JOL_H_VersionB.csv,"Highlight U B","Highlight U B",CAMP,ADVENTURE,BUFFER3,Buffer,95,52,JOL,User,-,"How likely are you to correctly recall the second item in the pair?|Type your response on a scale from 0-100 and then press Enter.",Study/JOL,BUFFER,6459,,,4196,4582,,,,50,1
5eed652a24c83c1975669e88,acmet8khjh,Trevor_EX2,1,11,2020-07-23T14:43:03-07:00,4.70765209198,4,Pure_Unrelated.csv,JOL_H_VersionB.csv,"Highlight U B","Highlight U B",SYSTEM,LICK,Study2,U,167,84,JOL,User,-,"How likely are you to correctly recall the second item in the pair?|Type your response on a scale from 0-100 and then press Enter.",Study/JOL,"Study Phase",4348,,,2793,3250,,,,10,1
5eed652a24c83c1975669e88,acmet8khjh,Trevor_EX2,1,12,2020-07-23T14:43:11-07:00,7.808956861496,4,Pure_Unrelated.csv,JOL_H_VersionB.csv,"Highlight U B","Highlight U B",RIDDLE,SUGAR,Study2,U,111,91,JOL,User,-,"How likely are you to correctly recall the second item in the pair?|Type your response on a scale from 0-100 and then press Enter.",Study/JOL,"Study Phase",7481,,,2492,6992,,,,10,1
5eed652a24c83c1975669e88,acmet8khjh,Trevor_EX2,1,13,2020-07-23T14:43:15-07:00,4.3469440937042,4,Pure_Unrelated.csv,JOL_H_VersionB.csv,"Highlight U B","Highlight U B",LION,ART,Study2,U,109,92,JOL,User,-,"How likely are you to correctly recall the second item in the pair?|Type your response on a scale from 0-100 and then press Enter.",Study/JOL,"Study Phase",3980,,,2983,3451,,,,30,1
5eed652a24c83c1975669e88,acmet8khjh,Trevor_EX2,1,14,2020-07-23T14:43:23-07:00,8.0200090408325,4,Pure_Unrelated.csv,JOL_H_VersionB.csv,"Highlight U B","Highlight U B",SPELL,BONE,Study2,U,174,60,JOL_H,User,-,"How likely are you to correctly recall the second item in the pair?|Type your response on a scale from 0-100 and then press Enter.",Study/JOL,"Study Phase",7639,,,3356,3791,,,,20,1
5eed652a24c83c1975669e88,acmet8khjh,Trevor_EX2,1,15,2020-07-23T14:43:31-07:00,7.8408398628235,4,Pure_Unrelated.csv,JOL_H_VersionB.csv,"Highlight U B","Highlight U B",FLOAT,HARMONY,Study2,U,161,57,JOL_H,User,-,"How likely are you to correctly recall the second item in the pair?|Type your response on a scale from 0-100 and then press Enter.",Study/JOL,"Study Phase",7470,,,3312,7131,,,,5,1
5eed652a24c83c1975669e88,acmet8khjh,Trevor_EX2,1,16,2020-07-23T14:43:36-07:00,4.7405319213867,4,Pure_Unrelated.csv,JOL_H_VersionB.csv,"Highlight U B","Highlight U B",HUNGRY,PARK,Study2,U,98,73,JOL_H,User,-,"How likely are you to correctly recall the second item in the pair?|Type your response on a scale from 0-100 and then press Enter.",Study/JOL,"Study Phase",4243,,,2863,3271,,,,20,1
5eed652a24c83c1975669e88,acmet8khjh,Trevor_EX2,1,17,2020-07-23T14:43:40-07:00,3.8953011035919,4,Pure_Unrelated.csv,JOL_H_VersionB.csv,"Highlight U B","Highlight U B",TUCK,ALLOW,Study2,U,108,96,JOL,User,-,"How likely are you to correctly recall the second item in the pair?|Type your response on a scale from 0-100 and then press Enter.",Study/JOL,"Study Phase",3486,,,2601,3177,,,,40,1
5eed652a24c83c1975669e88,acmet8khjh,Trevor_EX2,1,18,2020-07-23T14:43:43-07:00,3.3273530006409,4,Pure_Unrelated.csv,JOL_H_VersionB.csv,"Highlight U B","Highlight U B",SACKING,DIETARY,Study2,U,97,63,JOL_H,User,-,"How likely are you to correctly recall the second item in the pair?|Type your response on a scale from 0-100 and then press Enter.",Study/JOL,"Study Phase",2874,,,1854,1854,,,,5,1
5eed652a24c83c1975669e88,acmet8khjh,Trevor_EX2,1,19,2020-07-23T14:43:47-07:00,3.3196580410004,4,Pure_Unrelated.csv,JOL_H_VersionB.csv,"Highlight U B","Highlight U B",VASE,KING,Study2,U,115,81,JOL,User,-,"How likely are you to correctly recall the second item in the pair?|Type your response on a scale from 0-100 and then press Enter.",Study/JOL,"Study Phase",2957,,,2182,2617,,,,40,1
5eed652a24c83c1975669e88,acmet8khjh,Trevor_EX2,1,20,2020-07-23T14:43:52-07:00,5.3183720111847,4,Pure_Unrelated.csv,JOL_H_VersionB.csv,"Highlight U B","Highlight U B",HAND,FIX,Study2,U,105,86,JOL,User,-,"How likely are you to correctly recall the second item in the pair?|Type your response on a scale from 0-100 and then press Enter.",Study/JOL,"Study Phase",4953,,,4468,4580,,,,70,1
5eed652a24c83c1975669e88,acmet8khjh,Trevor_EX2,1,21,2020-07-23T14:43:56-07:00,3.7348380088806,4,Pure_Unrelated.csv,JOL_H_VersionB.csv,"Highlight U B","Highlight U B",BELT,SOON,Study2,U,100,72,JOL_H,User,-,"How likely are you to correctly recall the second item in the pair?|Type your response on a scale from 0-100 and then press Enter.",Study/JOL,"Study Phase",3361,,,2486,2902,,,,20,1
5eed652a24c83c1975669e88,acmet8khjh,Trevor_EX2,1,22,2020-07-23T14:44:00-07:00,4.0327739715576,4,Pure_Unrelated.csv,JOL_H_VersionB.csv,"Highlight U B","Highlight U B",ADD,VALLEY,Study2,U,112,89,JOL,User,-,"How likely are you to correctly recall the second item in the pair?|Type your response on a scale from 0-100 and then press Enter.",Study/JOL,"Study Phase",3555,,,2068,2561,,,,10,1
5eed652a24c83c1975669e88,acmet8khjh,Trevor_EX2,1,23,2020-07-23T14:44:02-07:00,2.7959389686584,4,Pure_Unrelated.csv,JOL_H_VersionB.csv,"Highlight U B","Highlight U B",PUFF,NUMBER,Study2,U,171,88,JOL,User,-,"How likely are you to correctly recall the second item in the pair?|Type your response on a scale from 0-100 and then press Enter.",Study/JOL,"Study Phase",2418,,,2076,2076,,,,5,1
5eed652a24c83c1975669e88,acmet8khjh,Trevor_EX2,1,24,2020-07-23T14:44:07-07:00,4.4151821136475,4,Pure_Unrelated.csv,JOL_H_VersionB.csv,"Highlight U B","Highlight U B",PUT,ROLL,Study2,U,163,95,JOL,User,-,"How likely are you to correctly recall the second item in the pair?|Type your response on a scale from 0-100 and then press Enter.",Study/JOL,"Study Phase",4059,,,3612,3716,,,,15,1
5eed652a24c83c1975669e88,acmet8khjh,Trevor_EX2,1,25,2020-07-23T14:44:18-07:00,10.965935945511,4,Pure_Unrelated.csv,JOL_H_VersionB.csv,"Highlight U B","Highlight U B",WASTE,SEDATE,Study2,U,165,85,JOL,User,-,"How likely are you to correctly recall the second item in the pair?|Type your response on a scale from 0-100 and then press Enter.",Study/JOL,"Study Phase",10561,,,9827,10160,,,,10,0.226
5eed652a24c83c1975669e88,acmet8khjh,Trevor_EX2,1,26,2020-07-23T14:44:30-07:00,12.520609855652,4,Pure_Unrelated.csv,JOL_H_VersionB.csv,"Highlight U B","Highlight U B",TEMPERATURE,MORNING,Study1,U,23,23,JOL,User,-,"How likely are you to correctly recall the second item in the pair?|Type your response on a scale from 0-100 and then press Enter.",Study/JOL,"Study Phase",12022,,,10530,11812,,,,80,0.35
5eed652a24c83c1975669e88,acmet8khjh,Trevor_EX2,1,27,2020-07-23T14:44:35-07:00,4.3598639965057,4,Pure_Unrelated.csv,JOL_H_VersionB.csv,"Highlight U B","Highlight U B",Business,Death,Study2,U,102,87,JOL,User,-,"How likely are you to correctly recall the second item in the pair?|Type your response on a scale from 0-100 and then press Enter.",Study/JOL,"Study Phase",3977,,,3156,3554,,,,75,1
5eed652a24c83c1975669e88,acmet8khjh,Trevor_EX2,1,28,2020-07-23T14:44:38-07:00,3.5716722011566,4,Pure_Unrelated.csv,JOL_H_VersionB.csv,"Highlight U B","Highlight U B",JELLY,NAUGHTY,Study2,U,172,94,JOL,User,-,"How likely are you to correctly recall the second item in the pair?|Type your response on a scale from 0-100 and then press Enter.",Study/JOL,"Study Phase",3197,,,2396,2763,,,,30,1
5eed652a24c83c1975669e88,acmet8khjh,Trevor_EX2,1,29,2020-07-23T14:44:42-07:00,4.1870458126068,4,Pure_Unrelated.csv,JOL_H_VersionB.csv,"Highlight U B","Highlight U B",DETECT,FREE,Study2,U,162,61,JOL_H,User,-,"How likely are you to correctly recall the second item in the pair?|Type your response on a scale from 0-100 and then press Enter.",Study/JOL,"Study Phase",3695,,,2794,3124,,,,20,1
5eed652a24c83c1975669e88,acmet8khjh,Trevor_EX2,1,30,2020-07-23T14:44:45-07:00,2.6022040843964,4,Pure_Unrelated.csv,JOL_H_VersionB.csv,"Highlight U B","Highlight U B",SWING,FOG,Study2,U,175,90,JOL,User,-,"How likely are you to correctly recall the second item in the pair?|Type your response on a scale from 0-100 and then press Enter.",Study/JOL,"Study Phase",2177,,,1824,1824,,,,5,1
5eed652a24c83c1975669e88,acmet8khjh,Trevor_EX2,1,31,2020-07-23T14:44:48-07:00,3.0313019752502,4,Pure_Unrelated.csv,JOL_H_VersionB.csv,"Highlight U B","Highlight U B",SICK,HIDE,Study2,U,114,70,JOL_H,User,-,"How likely are you to correctly recall the second item in the pair?|Type your response on a scale from 0-100 and then press Enter.",Study/JOL,"Study Phase",2669,,,2098,2326,,,,70,1
5eed652a24c83c1975669e88,acmet8khjh,Trevor_EX2,1,32,2020-07-23T14:45:02-07:00,13.659909963608,4,Pure_Unrelated.csv,JOL_H_VersionB.csv,"Highlight U B","Highlight U B",WOULD,CASH,Study2,U,113,67,JOL_H,User,-,"How likely are you to correctly recall the second item in the pair?|Type your response on a scale from 0-100 and then press Enter.",Study/JOL,"Study Phase",13256,,,12102,12832,,,,10,0.343
5eed652a24c83c1975669e88,acmet8khjh,Trevor_EX2,1,33,2020-07-23T14:45:06-07:00,4.0922870635986,4,Pure_Unrelated.csv,JOL_H_VersionB.csv,"Highlight U B","Highlight U B",READY,CORN,Study2,U,158,62,JOL_H,User,-,"How likely are you to correctly recall the second item in the pair?|Type your response on a scale from 0-100 and then press Enter.",Study/JOL,"Study Phase",3585,,,1646,1646,,,,5,1
5eed652a24c83c1975669e88,acmet8khjh,Trevor_EX2,1,34,2020-07-23T14:45:11-07:00,5.309338092804,4,Pure_Unrelated.csv,JOL_H_VersionB.csv,"Highlight U B","Highlight U B",SMOOTH,OMIT,Study2,U,157,59,JOL_H,User,-,"How likely are you to correctly recall the second item in the pair?|Type your response on a scale from 0-100 and then press Enter.",Study/JOL,"Study Phase",4934,,,3152,3214,,,,15,1
5eed652a24c83c1975669e88,acmet8khjh,Trevor_EX2,1,35,2020-07-23T14:45:17-07:00,6.0488038063049,4,Pure_Unrelated.csv,JOL_H_VersionB.csv,"Highlight U B","Highlight U B",FLOOR,DISCOVER,Study2,U,101,80,JOL,User,-,"How likely are you to correctly recall the second item in the pair?|Type your response on a scale from 0-100 and then press Enter.",Study/JOL,"Study Phase",5666,,,4854,5360,,,,20,0.655
5eed652a24c83c1975669e88,acmet8khjh,Trevor_EX2,1,36,2020-07-23T14:45:22-07:00,4.4498450756073,4,Pure_Unrelated.csv,JOL_H_VersionB.csv,"Highlight U B","Highlight U B",ROAD,SCENT,Study2,U,166,64,JOL_H,User,-,"How likely are you to correctly recall the second item in the pair?|Type your response on a scale from 0-100 and then press Enter.",Study/JOL,"Study Phase",4041,,,2858,3051,,,,70,0.619
5eed652a24c83c1975669e88,acmet8khjh,Trevor_EX2,1,37,2020-07-23T14:45:43-07:00,21.113585948944,4,Pure_Unrelated.csv,JOL_H_VersionB.csv,"Highlight U B","Highlight U B",GUARD,WHEEL,Study2,U,170,74,JOL_H,User,-,"How likely are you to correctly recall the second item in the pair?|Type your response on a scale from 0-100 and then press Enter.",Study/JOL,"Study Phase",20616,,,18857,19521,,,,50,0.146
5eed652a24c83c1975669e88,acmet8khjh,Trevor_EX2,1,38,2020-07-23T14:45:45-07:00,2.6842970848083,4,Pure_Unrelated.csv,JOL_H_VersionB.csv,"Highlight U B","Highlight U B",SLIM,KNOW,Study2,U,164,69,JOL_H,User,-,"How likely are you to correctly recall the second item in the pair?|Type your response on a scale from 0-100 and then press Enter.",Study/JOL,"Study Phase",2334,,,1606,1945,,,,20,1
5eed652a24c83c1975669e88,acmet8khjh,Trevor_EX2,1,39,2020-07-23T14:45:51-07:00,5.9500360488892,4,Pure_Unrelated.csv,JOL_H_VersionB.csv,"Highlight U B","Highlight U B",CLUTTER,PUSHER,Study2,U,96,77,JOL,User,-,"How likely are you to correctly recall the second item in the pair?|Type your response on a scale from 0-100 and then press Enter.",Study/JOL,"Study Phase",5596,,,2835,5330,,,,5,1
5eed652a24c83c1975669e88,acmet8khjh,Trevor_EX2,1,40,2020-07-23T14:45:55-07:00,3.5449328422546,4,Pure_Unrelated.csv,JOL_H_VersionB.csv,"Highlight U B","Highlight U B",ZOO,THUMB,Study2,U,168,71,JOL_H,User,-,"How likely are you to correctly recall the second item in the pair?|Type your response on a scale from 0-100 and then press Enter.",Study/JOL,"Study Phase",3093,,,2676,2788,,,,15,1
5eed652a24c83c1975669e88,acmet8khjh,Trevor_EX2,1,41,2020-07-23T14:46:00-07:00,4.6301832199097,4,Pure_Unrelated.csv,JOL_H_VersionB.csv,"Highlight U B","Highlight U B",SIGHT,DEBATE,Study2,U,103,75,JOL_H,User,-,"How likely are you to correctly recall the second item in the pair?|Type your response on a scale from 0-100 and then press Enter.",Study/JOL,"Study Phase",4247,,,3543,3902,,,,20,1
5eed652a24c83c1975669e88,acmet8khjh,Trevor_EX2,1,42,2020-07-23T14:46:03-07:00,3.860004901886,4,Pure_Unrelated.csv,JOL_H_VersionB.csv,"Highlight U B","Highlight U B",STOMACH,TOWN,Study2,U,159,79,JOL,User,-,"How likely are you to correctly recall the second item in the pair?|Type your response on a scale from 0-100 and then press Enter.",Study/JOL,"Study Phase",3522,,,2609,3227,,,,20,1
5eed652a24c83c1975669e88,acmet8khjh,Trevor_EX2,1,43,2020-07-23T14:46:07-07:00,3.6053168773651,4,Pure_Unrelated.csv,JOL_H_VersionB.csv,"Highlight U B","Highlight U B",DESIRE,NOISE,Study2,U,169,66,JOL_H,User,-,"How likely are you to correctly recall the second item in the pair?|Type your response on a scale from 0-100 and then press Enter.",Study/JOL,"Study Phase",3208,,,2728,2798,,,,35,1
5eed652a24c83c1975669e88,acmet8khjh,Trevor_EX2,1,44,2020-07-23T14:46:11-07:00,4.102037191391,4,Pure_Unrelated.csv,JOL_H_VersionB.csv,"Highlight U B","Highlight U B",LAKE,OPINION,Study2,U,160,76,JOL_H,User,-,"How likely are you to correctly recall the second item in the pair?|Type your response on a scale from 0-100 and then press Enter.",Study/JOL,"Study Phase",3690,,,2433,3213,,,,15,1
5eed652a24c83c1975669e88,acmet8khjh,Trevor_EX2,1,45,2020-07-23T14:46:14-07:00,3.0645890235901,4,Pure_Unrelated.csv,JOL_H_VersionB.csv,"Highlight U B","Highlight U B",ACCIDENT,STRONG,Study2,U,110,78,JOL,User,-,"How likely are you to correctly recall the second item in the pair?|Type your response on a scale from 0-100 and then press Enter.",Study/JOL,"Study Phase",2652,,,2129,2255,,,,80,1
5eed652a24c83c1975669e88,acmet8khjh,Trevor_EX2,1,46,2020-07-23T14:46:18-07:00,3.6170938014984,4,Pure_Unrelated.csv,JOL_H_VersionB.csv,"Highlight U B","Highlight U B",POSITION,MACHINE,Study2,U,106,93,JOL,User,-,"How likely are you to correctly recall the second item in the pair?|Type your response on a scale from 0-100 and then press Enter.",Study/JOL,"Study Phase",3269,,,1987,2422,,,,50,1
5eed652a24c83c1975669e88,acmet8khjh,Trevor_EX2,1,47,2020-07-23T14:46:21-07:00,3.0908360481262,4,Pure_Unrelated.csv,JOL_H_VersionB.csv,"Highlight U B","Highlight U B",WOMAN,LIFT,Study2,U,99,65,JOL_H,User,-,"How likely are you to correctly recall the second item in the pair?|Type your response on a scale from 0-100 and then press Enter.",Study/JOL,"Study Phase",2728,,,2273,2362,,,,75,1
5eed652a24c83c1975669e88,acmet8khjh,Trevor_EX2,1,48,2020-07-23T14:46:26-07:00,5.2292330265045,4,Pure_Unrelated.csv,JOL_H_VersionB.csv,"Highlight U B","Highlight U B",MUTE,WAVE,Study2,U,173,68,JOL_H,User,-,"How likely are you to correctly recall the second item in the pair?|Type your response on a scale from 0-100 and then press Enter.",Study/JOL,"Study Phase",4813,,,2541,4438,,,,60,0.708
5eed652a24c83c1975669e88,acmet8khjh,Trevor_EX2,1,49,2020-07-23T14:46:30-07:00,4.0485379695892,4,Pure_Unrelated.csv,JOL_H_VersionB.csv,"Highlight U B","Highlight U B",CAR,HAPPY,Study2,U,107,82,JOL,User,-,"How likely are you to correctly recall the second item in the pair?|Type your response on a scale from 0-100 and then press Enter.",Study/JOL,"Study Phase",3517,,,2890,3193,,,,80,0.389
5eed652a24c83c1975669e88,acmet8khjh,Trevor_EX2,1,50,2020-07-23T14:46:35-07:00,4.649551153183,4,Pure_Unrelated.csv,JOL_H_VersionB.csv,"Highlight U B","Highlight U B",SMOOTH,OMIT,Study2,U,157,59,JOL_H,User,-,"How likely are you to correctly recall the second item in the pair?|Type your response on a scale from 0-100 and then press Enter.",Study/JOL,"Study Phase",4170,,,3481,3880,,,,40,0.476
5eed652a24c83c1975669e88,acmet8khjh,Trevor_EX2,1,51,2020-07-23T14:46:39-07:00,4.069855928421,4,Pure_Unrelated.csv,JOL_H_VersionB.csv,"Highlight U B","Highlight U B",MONTH,YEAR,BUFFER4,Buffer,177,99,JOL_H,User,-,"How likely are you to correctly recall the second item in the pair?|Type your response on a scale from 0-100 and then press Enter.",Study/JOL,BUFFER2,3598,,,2719,3241,,,,100,0.389
5eed652a24c83c1975669e88,acmet8khjh,Trevor_EX2,1,52,2020-07-23T14:46:56-07:00,17.593021869659,4,Pure_Unrelated.csv,JOL_H_VersionB.csv,"Highlight U B","Highlight U B",TOOL,SHED,BUFFER4,Buffer,178,97,JOL_H,User,-,"How likely are you to correctly recall the second item in the pair?|Type your response on a scale from 0-100 and then press Enter.",Study/JOL,BUFFER2,17123,,,15776,16826,,,,90,0.174
5eed652a24c83c1975669e88,acmet8khjh,Trevor_EX2,1,53,2020-07-23T14:47:00-07:00,3.2146661281586,4,Pure_Unrelated.csv,JOL_H_VersionB.csv,"Highlight U B","Highlight U B",SPRING,MARCH,BUFFER4,Buffer,179,100,JOL,User,-,"How likely are you to correctly recall the second item in the pair?|Type your response on a scale from 0-100 and then press Enter.",Study/JOL,BUFFER2,2869,,,2093,2614,,,,95,1
5eed652a24c83c1975669e88,acmet8khjh,Trevor_EX2,1,54,2020-07-23T14:47:05-07:00,4.9405128955841,4,Pure_Unrelated.csv,JOL_H_VersionB.csv,"Highlight U B","Highlight U B",OCTOBER,SPOOKY,BUFFER4,Buffer,180,98,JOL_H,User,-,"How likely are you to correctly recall the second item in the pair?|Type your response on a scale from 0-100 and then press Enter.",Study/JOL,BUFFER2,4603,,,2641,4196,,,,80,1
5eed652a24c83c1975669e88,acmet8khjh,Trevor_EX2,1,55,2020-07-23T14:47:07-07:00,2.7812609672546,4,Pure_Unrelated.csv,JOL_H_VersionB.csv,"Highlight U B","Highlight U B",DAYS,WEEKS,BUFFER4,Buffer,176,101,JOL,User,-,"How likely are you to correctly recall the second item in the pair?|Type your response on a scale from 0-100 and then press Enter.",Study/JOL,BUFFER2,2408,,,1761,2250,,,,100,1
5eed652a24c83c1975669e88,acmet8khjh,Trevor_EX2,1,56,2020-07-23T14:47:09-07:00,1.6729600429535,4,Pure_Unrelated.csv,JOL_H_VersionB.csv,"Highlight U B","Highlight U B",,,,,,0,Instruct,User,-,"You have completed this section. Please press Enter.",Filler_Instruction,Instruct2,1289,,,-1,-1,,,,,1
5eed652a24c83c1975669e88,acmet8khjh,Trevor_EX2,1,57,2020-07-23T14:49:10-07:00,120.45149302483,4,Pure_Unrelated.csv,JOL_H_VersionB.csv,"Highlight U B","Highlight U B",,,,,,0,FreeRecall,120,120,"Please list the 50 US states in alphabetical order. The task will automatically advance to the next screen after two minutes.",,Filler1,120010,"alabama, alaska, arkansas, california, colorado, connecticut, florida, indiana, iowa, kansas, kentucky, louisiana, maine, maryland, massachusetts, michigan, minnesota, mississippi, missouri, montana, nebaska, nevada, new hampshire, new jersey, new mexico, new york, north carolina, north dakota, ohio, oklahoma, oregon, pennsylvania, rhode islan",0,23855,116200,0,0,,,0.838
5eed652a24c83c1975669e88,acmet8khjh,Trevor_EX2,1,58,2020-07-23T14:49:21-07:00,11.860835075378,4,Pure_Unrelated.csv,JOL_H_VersionB.csv,"Highlight U B","Highlight U B",,,,,,0,Instruct,-,10,"You will now be presented with the first word from each of the previously studied item pairs. Please type the missing word. If you do not know the word, you may guess or press Enter to skip forward to the next pair.",,Instruct3,11389,,,-1,-1,,,,,1
5eed652a24c83c1975669e88,acmet8khjh,Trevor_EX2,1,59,2020-07-23T14:49:33-07:00,11.75007891655,4,Pure_Unrelated.csv,JOL_H_VersionB.csv,"Highlight U B","Highlight U B",FLOAT,HARMONY,Study2,U,161,57,Test,User,-,,Recall,Recall1,11446,STRING,30.769230769231,9428,10054,0,0,,,1
5eed652a24c83c1975669e88,acmet8khjh,Trevor_EX2,1,60,2020-07-23T14:49:41-07:00,8.1558389663696,4,Pure_Unrelated.csv,JOL_H_VersionB.csv,"Highlight U B","Highlight U B",SWING,FOG,Study2,U,175,90,Test,User,-,,Recall,Recall1,7845,FOG,100,5332,5500,1,1,,,1
5eed652a24c83c1975669e88,acmet8khjh,Trevor_EX2,1,61,2020-07-23T14:49:44-07:00,3.0729451179504,4,Pure_Unrelated.csv,JOL_H_VersionB.csv,"Highlight U B","Highlight U B",BELT,SOON,Study2,U,100,72,Test,User,-,,Recall,Recall1,2736,SOON,100,1154,1594,1,1,,,1
5eed652a24c83c1975669e88,acmet8khjh,Trevor_EX2,1,62,2020-07-23T14:49:57-07:00,13.042469978333,4,Pure_Unrelated.csv,JOL_H_VersionB.csv,"Highlight U B","Highlight U B",SMOOTH,OMIT,Study2,U,157,59,Test,User,-,,Recall,Recall1,12713,,0,-1,-1,0,0,,,0.547
5eed652a24c83c1975669e88,acmet8khjh,Trevor_EX2,1,63,2020-07-23T14:50:16-07:00,18.972967863083,4,Pure_Unrelated.csv,JOL_H_VersionB.csv,"Highlight U B","Highlight U B",SIGHT,DEBATE,Study2,U,103,75,Test,User,-,,Recall,Recall1,18595,,0,-1,-1,0,0,,,0.667
5eed652a24c83c1975669e88,acmet8khjh,Trevor_EX2,1,64,2020-07-23T14:50:40-07:00,24.085427999496,4,Pure_Unrelated.csv,JOL_H_VersionB.csv,"Highlight U B","Highlight U B",WASTE,SEDATE,Study2,U,165,85,Test,User,-,,Recall,Recall1,23798,,0,4093,4204,0,0,,,0.319
5eed652a24c83c1975669e88,acmet8khjh,Trevor_EX2,1,65,2020-07-23T14:50:44-07:00,3.4701850414276,4,Pure_Unrelated.csv,JOL_H_VersionB.csv,"Highlight U B","Highlight U B",STOMACH,TOWN,Study2,U,159,79,Test,User,-,,Recall,Recall1,3128,town,100,1481,1780,1,1,,,1
5eed652a24c83c1975669e88,acmet8khjh,Trevor_EX2,1,66,2020-07-23T14:50:47-07:00,3.0542211532593,4,Pure_Unrelated.csv,JOL_H_VersionB.csv,"Highlight U B","Highlight U B",WOMAN,LIFT,Study2,U,99,65,Test,User,-,,Recall,Recall1,2772,lift,100,1351,1790,1,1,,,1
5eed652a24c83c1975669e88,acmet8khjh,Trevor_EX2,1,67,2020-07-23T14:50:57-07:00,9.9166820049286,4,Pure_Unrelated.csv,JOL_H_VersionB.csv,"Highlight U B","Highlight U B",DESIRE,NOISE,Study2,U,169,66,Test,User,-,,Recall,Recall1,9609,noise,100,5589,7901,1,1,,,1
5eed652a24c83c1975669e88,acmet8khjh,Trevor_EX2,1,68,2020-07-23T14:51:04-07:00,6.7968459129333,4,Pure_Unrelated.csv,JOL_H_VersionB.csv,"Highlight U B","Highlight U B",ROAD,SCENT,Study2,U,166,64,Test,User,-,,Recall,Recall1,6470,hog,0,5404,5989,0,0,,,1
5eed652a24c83c1975669e88,acmet8khjh,Trevor_EX2,1,69,2020-07-23T14:51:09-07:00,5.3417549133301,4,Pure_Unrelated.csv,JOL_H_VersionB.csv,"Highlight U B","Highlight U B",RIDDLE,SUGAR,Study2,U,111,91,Test,User,-,,Recall,Recall1,5059,smoke,20,3041,3386,0,0,,,1
5eed652a24c83c1975669e88,acmet8khjh,Trevor_EX2,1,70,2020-07-23T14:51:12-07:00,3.1522791385651,4,Pure_Unrelated.csv,JOL_H_VersionB.csv,"Highlight U B","Highlight U B",TEMPERATURE,MORNING,Study1,U,23,23,Test,User,-,,Recall,Recall1,2817,weather,14.285714285714,1020,1606,0,0,,,1
5eed652a24c83c1975669e88,acmet8khjh,Trevor_EX2,1,71,2020-07-23T14:51:34-07:00,21.339999914169,4,Pure_Unrelated.csv,JOL_H_VersionB.csv,"Highlight U B","Highlight U B",ACCIDENT,STRONG,Study2,U,110,78,Test,User,-,,Recall,Recall1,21036,extreme,30.769230769231,11425,12076,0,0,,,1
5eed652a24c83c1975669e88,acmet8khjh,Trevor_EX2,1,72,2020-07-23T14:51:42-07:00,7.9646530151367,4,Pure_Unrelated.csv,JOL_H_VersionB.csv,"Highlight U B","Highlight U B",SACKING,DIETARY,Study2,U,97,63,Test,User,-,,Recall,Recall1,7638,,0,2388,2889,0,0,,,1
5eed652a24c83c1975669e88,acmet8khjh,Trevor_EX2,1,73,2020-07-23T14:51:48-07:00,6.0884509086609,4,Pure_Unrelated.csv,JOL_H_VersionB.csv,"Highlight U B","Highlight U B",LAKE,OPINION,Study2,U,160,76,Test,User,-,,Recall,Recall1,5783,water,0,4406,4799,0,0,,,1
5eed652a24c83c1975669e88,acmet8khjh,Trevor_EX2,1,74,2020-07-23T14:51:51-07:00,2.9717791080475,4,Pure_Unrelated.csv,JOL_H_VersionB.csv,"Highlight U B","Highlight U B",PUFF,NUMBER,Study2,U,171,88,Test,User,-,,Recall,Recall1,2677,,0,-1,-1,0,0,,,1
5eed652a24c83c1975669e88,acmet8khjh,Trevor_EX2,1,75,2020-07-23T14:52:23-07:00,32.081757068634,4,Pure_Unrelated.csv,JOL_H_VersionB.csv,"Highlight U B","Highlight U B",DETECT,FREE,Study2,U,162,61,Test,User,-,,Recall,Recall1,31621,,0,-1,-1,0,0,,,0.747
5eed652a24c83c1975669e88,acmet8khjh,Trevor_EX2,1,76,2020-07-23T14:52:31-07:00,7.8660809993744,4,Pure_Unrelated.csv,JOL_H_VersionB.csv,"Highlight U B","Highlight U B",HAND,FIX,Study2,U,105,86,Test,User,-,,Recall,Recall1,7546,palm,0,5846,6248,0,0,,,1
5eed652a24c83c1975669e88,acmet8khjh,Trevor_EX2,1,77,2020-07-23T14:52:36-07:00,5.333652973175,4,Pure_Unrelated.csv,JOL_H_VersionB.csv,"Highlight U B","Highlight U B",FLOOR,DISCOVER,Study2,U,101,80,Test,User,-,,Recall,Recall1,5032,discover,100,3103,3821,1,1,,,1
5eed652a24c83c1975669e88,acmet8khjh,Trevor_EX2,1,78,2020-07-23T14:52:40-07:00,3.9913029670715,4,Pure_Unrelated.csv,JOL_H_VersionB.csv,"Highlight U B","Highlight U B",GUARD,WHEEL,Study2,U,170,74,Test,User,-,,Recall,Recall1,3668,wheel,100,1063,2147,1,1,,,1
5eed652a24c83c1975669e88,acmet8khjh,Trevor_EX2,1,79,2020-07-23T14:52:43-07:00,2.8046159744263,4,Pure_Unrelated.csv,JOL_H_VersionB.csv,"Highlight U B","Highlight U B",LION,ART,Study2,U,109,92,Test,User,-,,Recall,Recall1,2492,art,100,1435,1678,1,1,,,1
5eed652a24c83c1975669e88,acmet8khjh,Trevor_EX2,1,80,2020-07-23T14:52:50-07:00,7.5639889240265,4,Pure_Unrelated.csv,JOL_H_VersionB.csv,"Highlight U B","Highlight U B",ADD,VALLEY,Study2,U,112,89,Test,User,-,,Recall,Recall1,7261,,0,-1,-1,0,0,,,1
5eed652a24c83c1975669e88,acmet8khjh,Trevor_EX2,1,81,2020-07-23T14:52:53-07:00,2.5123770236969,4,Pure_Unrelated.csv,JOL_H_VersionB.csv,"Highlight U B","Highlight U B",Business,Death,Study2,U,102,87,Test,User,-,,Recall,Recall1,2178,death,100,1174,1705,1,1,,,1
5eed652a24c83c1975669e88,acmet8khjh,Trevor_EX2,1,82,2020-07-23T14:52:55-07:00,2.4997119903564,4,Pure_Unrelated.csv,JOL_H_VersionB.csv,"Highlight U B","Highlight U B",ZOO,THUMB,Study2,U,168,71,Test,User,-,,Recall,Recall1,2202,thumb,100,1247,1894,1,1,,,1
5eed652a24c83c1975669e88,acmet8khjh,Trevor_EX2,1,83,2020-07-23T14:53:09-07:00,13.755515098572,4,Pure_Unrelated.csv,JOL_H_VersionB.csv,"Highlight U B","Highlight U B",SPELL,BONE,Study2,U,174,60,Test,User,-,,Recall,Recall1,13436,,0,-1,-1,0,0,,,1
5eed652a24c83c1975669e88,acmet8khjh,Trevor_EX2,1,84,2020-07-23T14:53:16-07:00,6.5248699188232,4,Pure_Unrelated.csv,JOL_H_VersionB.csv,"Highlight U B","Highlight U B",TUCK,ALLOW,Study2,U,108,96,Test,User,-,,Recall,Recall1,6164,allow,100,4863,5765,1,1,,,1
5eed652a24c83c1975669e88,acmet8khjh,Trevor_EX2,1,85,2020-07-23T14:53:28-07:00,12.310688018799,4,Pure_Unrelated.csv,JOL_H_VersionB.csv,"Highlight U B","Highlight U B",HUNGRY,PARK,Study2,U,98,73,Test,User,-,,Recall,Recall1,11956,town,0,2613,5624,0,0,,,0.667
5eed652a24c83c1975669e88,acmet8khjh,Trevor_EX2,1,86,2020-07-23T14:53:34-07:00,5.9419190883636,4,Pure_Unrelated.csv,JOL_H_VersionB.csv,"Highlight U B","Highlight U B",CAR,HAPPY,Study2,U,107,82,Test,User,-,,Recall,Recall1,5624,happy,100,3431,5100,1,1,,,1
5eed652a24c83c1975669e88,acmet8khjh,Trevor_EX2,1,87,2020-07-23T14:53:49-07:00,14.921999931335,4,Pure_Unrelated.csv,JOL_H_VersionB.csv,"Highlight U B","Highlight U B",SMOOTH,OMIT,Study2,U,157,59,Test,User,-,,Recall,Recall1,14625,,0,-1,-1,0,0,,,0.459
5eed652a24c83c1975669e88,acmet8khjh,Trevor_EX2,1,88,2020-07-23T14:53:58-07:00,9.4259691238403,4,Pure_Unrelated.csv,JOL_H_VersionB.csv,"Highlight U B","Highlight U B",POSITION,MACHINE,Study2,U,106,93,Test,User,-,,Recall,Recall1,9084,machine,100,6427,7907,1,1,,,1
5eed652a24c83c1975669e88,acmet8khjh,Trevor_EX2,1,89,2020-07-23T14:54:01-07:00,3.2331829071045,4,Pure_Unrelated.csv,JOL_H_VersionB.csv,"Highlight U B","Highlight U B",MUTE,WAVE,Study2,U,173,68,Test,User,-,,Recall,Recall1,2857,wave,100,1989,2334,1,1,,,1
5eed652a24c83c1975669e88,acmet8khjh,Trevor_EX2,1,90,2020-07-23T14:54:08-07:00,6.377464056015,4,Pure_Unrelated.csv,JOL_H_VersionB.csv,"Highlight U B","Highlight U B",SYSTEM,LICK,Study2,U,167,84,Test,User,-,,Recall,Recall1,6081,lock,75,4071,4327,0,1,,,1
5eed652a24c83c1975669e88,acmet8khjh,Trevor_EX2,1,91,2020-07-23T14:54:11-07:00,3.1671199798584,4,Pure_Unrelated.csv,JOL_H_VersionB.csv,"Highlight U B","Highlight U B",VASE,KING,Study2,U,115,81,Test,User,-,,Recall,Recall1,2772,king,100,1443,2060,1,1,,,1
5eed652a24c83c1975669e88,acmet8khjh,Trevor_EX2,1,92,2020-07-23T14:54:19-07:00,8.3329899311066,4,Pure_Unrelated.csv,JOL_H_VersionB.csv,"Highlight U B","Highlight U B",SICK,HIDE,Study2,U,114,70,Test,User,-,,Recall,Recall1,8020,help,50,6764,7406,0,0,,,1
5eed652a24c83c1975669e88,acmet8khjh,Trevor_EX2,1,93,2020-07-23T14:54:31-07:00,12.046283006668,4,Pure_Unrelated.csv,JOL_H_VersionB.csv,"Highlight U B","Highlight U B",PUT,ROLL,Study2,U,163,95,Test,User,-,,Recall,Recall1,10625,,0,-1,-1,0,0,,,0.556
5eed652a24c83c1975669e88,acmet8khjh,Trevor_EX2,1,94,2020-07-23T14:54:53-07:00,22.108356952667,4,Pure_Unrelated.csv,JOL_H_VersionB.csv,"Highlight U B","Highlight U B",JELLY,NAUGHTY,Study2,U,172,94,Test,User,-,,Recall,Recall1,21791,forbid,0,12653,20489,0,0,,,1
5eed652a24c83c1975669e88,acmet8khjh,Trevor_EX2,1,95,2020-07-23T14:54:58-07:00,4.2284519672394,4,Pure_Unrelated.csv,JOL_H_VersionB.csv,"Highlight U B","Highlight U B",READY,CORN,Study2,U,158,62,Test,User,-,,Recall,Recall1,3932,,0,-1,-1,0,0,,,0.65
5eed652a24c83c1975669e88,acmet8khjh,Trevor_EX2,1,96,2020-07-23T14:55:06-07:00,8.248871088028,4,Pure_Unrelated.csv,JOL_H_VersionB.csv,"Highlight U B","Highlight U B",SLIM,KNOW,Study2,U,164,69,Test,User,-,,Recall,Recall1,7869,,0,4235,4679,0,0,,,1
5eed652a24c83c1975669e88,acmet8khjh,Trevor_EX2,1,97,2020-07-23T14:55:16-07:00,9.6914610862732,4,Pure_Unrelated.csv,JOL_H_VersionB.csv,"Highlight U B","Highlight U B",WOULD,CASH,Study2,U,113,67,Test,User,-,,Recall,Recall1,9311,provide,0,2754,8693,0,0,,,1
5eed652a24c83c1975669e88,acmet8khjh,Trevor_EX2,1,98,2020-07-23T14:55:20-07:00,4.718701839447,4,Pure_Unrelated.csv,JOL_H_VersionB.csv,"Highlight U B","Highlight U B",CLUTTER,PUSHER,Study2,U,96,77,Test,User,-,,Recall,Recall1,4437,noise,36.363636363636,3003,3980,0,0,,,0.826
5eed652a24c83c1975669e88,acmet8khjh,Trevor_EX2,1,99,2020-07-23T14:55:31-07:00,10.866375207901,4,Pure_Unrelated.csv,JOL_H_VersionB.csv,"Highlight U B","Highlight U B",,,,,,0,Instruct,-,10,"You will now be presented with a new set of word pairs. Please study each pair. Remember that your memory will be tested! When finished, press Enter to move to the next pair.",Initial_Instruct,Instruct4,10529,,,-1,-1,,,,,1
5eed652a24c83c1975669e88,acmet8khjh,Trevor_EX2,1,100,2020-07-23T14:55:42-07:00,10.783496856689,4,Pure_Unrelated.csv,JOL_H_VersionB.csv,"Highlight U B","Highlight U B",,,,,,0,Instruct,,10,"You will again be asked to rate your ability to remember these items using a 0 to 100 scale. Remember to use the full range of the scale!",,Instruct10,10502,,,-1,-1,,,,,1
5eed652a24c83c1975669e88,acmet8khjh,Trevor_EX2,1,101,2020-07-23T14:55:43-07:00,1.3492760658264,4,Pure_Unrelated.csv,JOL_H_VersionB.csv,"Highlight U B","Highlight U B",,,,,,0,Instruct,User,-,"Press Enter when you are readty to begin",,Instruct11,1074,,,-1,-1,,,,,1
5eed652a24c83c1975669e88,acmet8khjh,Trevor_EX2,1,102,2020-07-23T14:55:48-07:00,4.3486299514771,4,Pure_Unrelated.csv,JOL_H_VersionB.csv,"Highlight U B","Highlight U B",BASEBALL,CATCHER,BUFFER1,Buffer,2,5,JOL_H,User,-,"How likely are you to correctly recall the second item in the pair?|Type your response on a scale from 0-100 and then press Enter.",Study/JOL,BUFFER3,4081,,,2863,3386,,,,95,1
5eed652a24c83c1975669e88,acmet8khjh,Trevor_EX2,1,103,2020-07-23T14:55:53-07:00,5.0866150856018,4,Pure_Unrelated.csv,JOL_H_VersionB.csv,"Highlight U B","Highlight U B",SCARE,HIDE,BUFFER1,Buffer,4,6,JOL_H,User,-,"How likely are you to correctly recall the second item in the pair?|Type your response on a scale from 0-100 and then press Enter.",Study/JOL,BUFFER3,4803,,,2021,2091,,,,90,1
5eed652a24c83c1975669e88,acmet8khjh,Trevor_EX2,1,104,2020-07-23T14:55:55-07:00,2.7091708183289,4,Pure_Unrelated.csv,JOL_H_VersionB.csv,"Highlight U B","Highlight U B",SPACE,JAM,BUFFER1,Buffer,5,3,JOL,User,-,"How likely are you to correctly recall the second item in the pair?|Type your response on a scale from 0-100 and then press Enter.",Study/JOL,BUFFER3,2367,,,1507,2004,,,,100,1
5eed652a24c83c1975669e88,acmet8khjh,Trevor_EX2,1,105,2020-07-23T14:55:57-07:00,1.9674620628357,4,Pure_Unrelated.csv,JOL_H_VersionB.csv,"Highlight U B","Highlight U B",TREES,GREEN,BUFFER1,Buffer,1,2,JOL,User,-,"How likely are you to correctly recall the second item in the pair?|Type your response on a scale from 0-100 and then press Enter.",Study/JOL,BUFFER3,1688,,,1008,1491,,,,100,1
5eed652a24c83c1975669e88,acmet8khjh,Trevor_EX2,1,106,2020-07-23T14:56:00-07:00,2.9787311553955,4,Pure_Unrelated.csv,JOL_H_VersionB.csv,"Highlight U B","Highlight U B",PEANUT,BUTTER,BUFFER1,Buffer,3,4,JOL_H,User,-,"How likely are you to correctly recall the second item in the pair?|Type your response on a scale from 0-100 and then press Enter.",Study/JOL,BUFFER3,2634,,,1868,2420,,,,100,1
5eed652a24c83c1975669e88,acmet8khjh,Trevor_EX2,1,107,2020-07-23T14:56:04-07:00,3.4107749462128,4,Pure_Unrelated.csv,JOL_H_VersionB.csv,"Highlight U B","Highlight U B",LISTEN,FICTION,Study1,U,14,16,JOL_H,User,-,"How likely are you to correctly recall the second item in the pair?|Type your response on a scale from 0-100 and then press Enter.",Study/JOL,"Study Phase2",3042,,,2261,2684,,,,75,1
5eed652a24c83c1975669e88,acmet8khjh,Trevor_EX2,1,108,2020-07-23T14:56:14-07:00,9.7611968517303,4,Pure_Unrelated.csv,JOL_H_VersionB.csv,"Highlight U B","Highlight U B",ROSE,NEGLECT,Study1,U,82,15,JOL_H,User,-,"How likely are you to correctly recall the second item in the pair?|Type your response on a scale from 0-100 and then press Enter.",Study/JOL,"Study Phase2",9454,,,3726,9269,,,,15,1
5eed652a24c83c1975669e88,acmet8khjh,Trevor_EX2,1,109,2020-07-23T14:56:17-07:00,3.4399280548096,4,Pure_Unrelated.csv,JOL_H_VersionB.csv,"Highlight U B","Highlight U B",PET,MOON,Study1,U,74,46,JOL,User,-,"How likely are you to correctly recall the second item in the pair?|Type your response on a scale from 0-100 and then press Enter.",Study/JOL,"Study Phase2",3070,,,2482,2579,,,,25,1
5eed652a24c83c1975669e88,acmet8khjh,Trevor_EX2,1,110,2020-07-23T14:56:20-07:00,3.3225710391998,4,Pure_Unrelated.csv,JOL_H_VersionB.csv,"Highlight U B","Highlight U B",MOAT,CLEAR,Study1,U,19,35,JOL,User,-,"How likely are you to correctly recall the second item in the pair?|Type your response on a scale from 0-100 and then press Enter.",Study/JOL,"Study Phase2",2941,,,2331,2331,,,,5,1
5eed652a24c83c1975669e88,acmet8khjh,Trevor_EX2,1,111,2020-07-23T14:56:25-07:00,5.0203900337219,4,Pure_Unrelated.csv,JOL_H_VersionB.csv,"Highlight U B","Highlight U B",DIFFICULT,POOR,Study1,U,81,7,JOL_H,User,-,"How likely are you to correctly recall the second item in the pair?|Type your response on a scale from 0-100 and then press Enter.",Study/JOL,"Study Phase2",4699,,,2420,4467,,,,80,1
5eed652a24c83c1975669e88,acmet8khjh,Trevor_EX2,1,112,2020-07-23T14:56:28-07:00,3.0110509395599,4,Pure_Unrelated.csv,JOL_H_VersionB.csv,"Highlight U B","Highlight U B",STRESS,YAM,Study1,U,68,19,JOL_H,User,-,"How likely are you to correctly recall the second item in the pair?|Type your response on a scale from 0-100 and then press Enter.",Study/JOL,"Study Phase2",2691,,,1649,2070,,,,10,1
5eed652a24c83c1975669e88,acmet8khjh,Trevor_EX2,1,113,2020-07-23T14:56:32-07:00,3.5498371124268,4,Pure_Unrelated.csv,JOL_H_VersionB.csv,"Highlight U B","Highlight U B",STRETCH,CLOTH,Study1,U,7,27,JOL,User,-,"How likely are you to correctly recall the second item in the pair?|Type your response on a scale from 0-100 and then press Enter.",Study/JOL,"Study Phase2",3186,,,2113,2833,,,,70,1
5eed652a24c83c1975669e88,acmet8khjh,Trevor_EX2,1,114,2020-07-23T14:56:36-07:00,4.0711269378662,4,Pure_Unrelated.csv,JOL_H_VersionB.csv,"Highlight U B","Highlight U B",DIZZY,SWEATER,Study1,U,77,18,JOL_H,User,-,"How likely are you to correctly recall the second item in the pair?|Type your response on a scale from 0-100 and then press Enter.",Study/JOL,"Study Phase2",3694,,,3051,3143,,,,80,1
5eed652a24c83c1975669e88,acmet8khjh,Trevor_EX2,1,115,2020-07-23T14:56:40-07:00,3.6058619022369,4,Pure_Unrelated.csv,JOL_H_VersionB.csv,"Highlight U B","Highlight U B",NUMBER,HARD,Study1,U,78,22,JOL_H,User,-,"How likely are you to correctly recall the second item in the pair?|Type your response on a scale from 0-100 and then press Enter.",Study/JOL,"Study Phase2",3096,,,1741,2295,,,,100,1
5eed652a24c83c1975669e88,acmet8khjh,Trevor_EX2,1,116,2020-07-23T14:56:43-07:00,3.3484930992126,4,Pure_Unrelated.csv,JOL_H_VersionB.csv,"Highlight U B","Highlight U B",NAME,HATE,Study1,U,17,8,JOL_H,User,-,"How likely are you to correctly recall the second item in the pair?|Type your response on a scale from 0-100 and then press Enter.",Study/JOL,"Study Phase2",3019,,,2193,2575,,,,70,1
5eed652a24c83c1975669e88,acmet8khjh,Trevor_EX2,1,117,2020-07-23T14:56:47-07:00,4.4278450012207,4,Pure_Unrelated.csv,JOL_H_VersionB.csv,"Highlight U B","Highlight U B",JUSTICE,MAROON,Study1,U,6,28,JOL,User,-,"How likely are you to correctly recall the second item in the pair?|Type your response on a scale from 0-100 and then press Enter.",Study/JOL,"Study Phase2",3922,,,3632,3632,,,,0,0.65
5eed652a24c83c1975669e88,acmet8khjh,Trevor_EX2,1,118,2020-07-23T14:57:03-07:00,15.375076055527,4,Pure_Unrelated.csv,JOL_H_VersionB.csv,"Highlight U B","Highlight U B",VEHICLE,CHARM,Study1,U,10,36,JOL,User,-,"How likely are you to correctly recall the second item in the pair?|Type your response on a scale from 0-100 and then press Enter.",Study/JOL,"Study Phase2",14876,,,14447,14447,,,,5,0.147
5eed652a24c83c1975669e88,acmet8khjh,Trevor_EX2,1,119,2020-07-23T14:57:06-07:00,3.013130903244,4,Pure_Unrelated.csv,JOL_H_VersionB.csv,"Highlight U B","Highlight U B",CAKE,CLOTHES,Study1,U,16,40,JOL,User,-,"How likely are you to correctly recall the second item in the pair?|Type your response on a scale from 0-100 and then press Enter.",Study/JOL,"Study Phase2",2630,,,2153,2318,,,,25,1
5eed652a24c83c1975669e88,acmet8khjh,Trevor_EX2,1,120,2020-07-23T14:57:09-07:00,3.1101789474487,4,Pure_Unrelated.csv,JOL_H_VersionB.csv,"Highlight U B","Highlight U B",DONKEY,LUSH,Study1,U,84,37,JOL,User,-,"How likely are you to correctly recall the second item in the pair?|Type your response on a scale from 0-100 and then press Enter.",Study/JOL,"Study Phase2",2784,,,2493,2494,,,,0,1
5eed652a24c83c1975669e88,acmet8khjh,Trevor_EX2,1,121,2020-07-23T14:57:13-07:00,4.1390271186829,4,Pure_Unrelated.csv,JOL_H_VersionB.csv,"Highlight U B","Highlight U B",MAIN,SCAR,Study1,U,25,14,JOL_H,User,-,"How likely are you to correctly recall the second item in the pair?|Type your response on a scale from 0-100 and then press Enter.",Study/JOL,"Study Phase2",3758,,,3163,3500,,,,50,1
5eed652a24c83c1975669e88,acmet8khjh,Trevor_EX2,1,122,2020-07-23T14:57:18-07:00,5.1389708518982,4,Pure_Unrelated.csv,JOL_H_VersionB.csv,"Highlight U B","Highlight U B",TAX,OWL,Study1,U,72,24,JOL_H,User,-,"How likely are you to correctly recall the second item in the pair?|Type your response on a scale from 0-100 and then press Enter.",Study/JOL,"Study Phase2",4799,,,4165,4165,,,,5,1
5eed652a24c83c1975669e88,acmet8khjh,Trevor_EX2,1,123,2020-07-23T14:57:22-07:00,4.297327041626,4,Pure_Unrelated.csv,JOL_H_VersionB.csv,"Highlight U B","Highlight U B",MAZE,ELECTION,Study1,U,9,39,JOL,User,-,"How likely are you to correctly recall the second item in the pair?|Type your response on a scale from 0-100 and then press Enter.",Study/JOL,"Study Phase2",3947,,,3303,3636,,,,50,1
5eed652a24c83c1975669e88,acmet8khjh,Trevor_EX2,1,124,2020-07-23T14:57:29-07:00,6.5130910873413,4,Pure_Unrelated.csv,JOL_H_VersionB.csv,"Highlight U B","Highlight U B",BOTH,OUNCE,Study1,U,22,45,JOL,User,-,"How likely are you to correctly recall the second item in the pair?|Type your response on a scale from 0-100 and then press Enter.",Study/JOL,"Study Phase2",6090,,,2224,5643,,,,30,1
5eed652a24c83c1975669e88,acmet8khjh,Trevor_EX2,1,125,2020-07-23T14:57:32-07:00,2.9156060218811,4,Pure_Unrelated.csv,JOL_H_VersionB.csv,"Highlight U B","Highlight U B",LEASE,TOIL,Study1,U,20,10,JOL_H,User,-,"How likely are you to correctly recall the second item in the pair?|Type your response on a scale from 0-100 and then press Enter.",Study/JOL,"Study Phase2",2545,,,2256,2256,,,,5,1
5eed652a24c83c1975669e88,acmet8khjh,Trevor_EX2,1,126,2020-07-23T14:57:36-07:00,4.3370549678802,4,Pure_Unrelated.csv,JOL_H_VersionB.csv,"Highlight U B","Highlight U B",CRAYON,RATE,Study1,U,79,13,JOL_H,User,-,"How likely are you to correctly recall the second item in the pair?|Type your response on a scale from 0-100 and then press Enter.",Study/JOL,"Study Phase2",4006,,,2770,3156,,,,10,1
5eed652a24c83c1975669e88,acmet8khjh,Trevor_EX2,1,127,2020-07-23T14:57:41-07:00,4.6373400688171,4,Pure_Unrelated.csv,JOL_H_VersionB.csv,"Highlight U B","Highlight U B",CRACKLE,ABLE,Study1,U,12,44,JOL,User,-,"How likely are you to correctly recall the second item in the pair?|Type your response on a scale from 0-100 and then press Enter.",Study/JOL,"Study Phase2",3298,,,2586,3027,,,,10,1
5eed652a24c83c1975669e88,acmet8khjh,Trevor_EX2,1,128,2020-07-23T14:57:44-07:00,3.4308428764343,4,Pure_Unrelated.csv,JOL_H_VersionB.csv,"Highlight U B","Highlight U B",WARN,SEA,Study1,U,80,43,JOL,User,-,"How likely are you to correctly recall the second item in the pair?|Type your response on a scale from 0-100 and then press Enter.",Study/JOL,"Study Phase2",3010,,,2191,2459,,,,70,1
5eed652a24c83c1975669e88,acmet8khjh,Trevor_EX2,1,129,2020-07-23T14:57:48-07:00,4.2751801013947,4,Pure_Unrelated.csv,JOL_H_VersionB.csv,"Highlight U B","Highlight U B",KEYS,JOKE,Study1,U,15,41,JOL,User,-,"How likely are you to correctly recall the second item in the pair?|Type your response on a scale from 0-100 and then press Enter.",Study/JOL,"Study Phase2",2906,,,2266,2601,,,,50,1
5eed652a24c83c1975669e88,acmet8khjh,Trevor_EX2,1,130,2020-07-23T14:57:53-07:00,4.0647509098053,4,Pure_Unrelated.csv,JOL_H_VersionB.csv,"Highlight U B","Highlight U B",PARCEL,THROAT,Study1,U,67,30,JOL,User,-,"How likely are you to correctly recall the second item in the pair?|Type your response on a scale from 0-100 and then press Enter.",Study/JOL,"Study Phase2",3688,,,3429,3494,,,,15,1
5eed652a24c83c1975669e88,acmet8khjh,Trevor_EX2,1,131,2020-07-23T14:57:57-07:00,3.9593749046326,4,Pure_Unrelated.csv,JOL_H_VersionB.csv,"Highlight U B","Highlight U B",RESIST,GLUE,Study1,U,69,29,JOL,User,-,"How likely are you to correctly recall the second item in the pair?|Type your response on a scale from 0-100 and then press Enter.",Study/JOL,"Study Phase2",3497,,,2584,3119,,,,60,1
5eed652a24c83c1975669e88,acmet8khjh,Trevor_EX2,1,132,2020-07-23T14:58:01-07:00,4.0656402111053,4,Pure_Unrelated.csv,JOL_H_VersionB.csv,"Highlight U B","Highlight U B",DEGREE,CHAIR,Study1,U,71,17,JOL_H,User,-,"How likely are you to correctly recall the second item in the pair?|Type your response on a scale from 0-100 and then press Enter.",Study/JOL,"Study Phase2",3615,,,2703,3013,,,,70,1
5eed652a24c83c1975669e88,acmet8khjh,Trevor_EX2,1,133,2020-07-23T14:58:10-07:00,9.0645008087158,4,Pure_Unrelated.csv,JOL_H_VersionB.csv,"Highlight U B","Highlight U B",MEAT,OBTAIN,Study1,U,11,26,JOL_H,User,-,"How likely are you to correctly recall the second item in the pair?|Type your response on a scale from 0-100 and then press Enter.",Study/JOL,"Study Phase2",8669,,,7965,8254,,,,50,1
5eed652a24c83c1975669e88,acmet8khjh,Trevor_EX2,1,134,2020-07-23T14:58:26-07:00,16.201996088028,4,Pure_Unrelated.csv,JOL_H_VersionB.csv,"Highlight U B","Highlight U B",BAT,SHAKY,Study1,U,66,9,JOL_H,User,-,"How likely are you to correctly recall the second item in the pair?|Type your response on a scale from 0-100 and then press Enter.",Study/JOL,"Study Phase2",15635,,,15242,15353,,,,15,0.154
5eed652a24c83c1975669e88,acmet8khjh,Trevor_EX2,1,135,2020-07-23T14:58:30-07:00,4.5007109642029,4,Pure_Unrelated.csv,JOL_H_VersionB.csv,"Highlight U B","Highlight U B",RIPE,VERIFY,Study1,U,83,25,JOL_H,User,-,"How likely are you to correctly recall the second item in the pair?|Type your response on a scale from 0-100 and then press Enter.",Study/JOL,"Study Phase2",4030,,,3255,3644,,,,60,1
5eed652a24c83c1975669e88,acmet8khjh,Trevor_EX2,1,136,2020-07-23T14:58:34-07:00,3.4053039550781,4,Pure_Unrelated.csv,JOL_H_VersionB.csv,"Highlight U B","Highlight U B",SHELL,SHAKE,Study1,U,13,20,JOL_H,User,-,"How likely are you to correctly recall the second item in the pair?|Type your response on a scale from 0-100 and then press Enter.",Study/JOL,"Study Phase2",3095,,,2669,2831,,,,70,1
5eed652a24c83c1975669e88,acmet8khjh,Trevor_EX2,1,137,2020-07-23T14:58:37-07:00,3.6442720890045,4,Pure_Unrelated.csv,JOL_H_VersionB.csv,"Highlight U B","Highlight U B",FUZZY,BANG,Study1,U,18,34,JOL,User,-,"How likely are you to correctly recall the second item in the pair?|Type your response on a scale from 0-100 and then press Enter.",Study/JOL,"Study Phase2",3244,,,2002,2392,,,,50,1
5eed652a24c83c1975669e88,acmet8khjh,Trevor_EX2,1,138,2020-07-23T14:58:45-07:00,7.6788918972015,4,Pure_Unrelated.csv,JOL_H_VersionB.csv,"Highlight U B","Highlight U B",GRIND,STAND,Study1,U,85,11,JOL_H,User,-,"How likely are you to correctly recall the second item in the pair?|Type your response on a scale from 0-100 and then press Enter.",Study/JOL,"Study Phase2",7327,,,6394,6705,,,,60,1
5eed652a24c83c1975669e88,acmet8khjh,Trevor_EX2,1,139,2020-07-23T14:58:49-07:00,4.4113991260529,4,Pure_Unrelated.csv,JOL_H_VersionB.csv,"Highlight U B","Highlight U B",TEMPERATURE,MORNING,Study1,U,23,23,JOL_H,User,-,"How likely are you to correctly recall the second item in the pair?|Type your response on a scale from 0-100 and then press Enter.",Study/JOL,"Study Phase2",3962,,,2860,3454,,,,100,1
5eed652a24c83c1975669e88,acmet8khjh,Trevor_EX2,1,140,2020-07-23T14:58:56-07:00,6.9951548576355,4,Pure_Unrelated.csv,JOL_H_VersionB.csv,"Highlight U B","Highlight U B",THICK,CONTEST,Study1,U,73,33,JOL,User,-,"How likely are you to correctly recall the second item in the pair?|Type your response on a scale from 0-100 and then press Enter.",Study/JOL,"Study Phase2",6552,,,3781,6124,,,,70,1
5eed652a24c83c1975669e88,acmet8khjh,Trevor_EX2,1,141,2020-07-23T14:59:01-07:00,4.8191020488739,4,Pure_Unrelated.csv,JOL_H_VersionB.csv,"Highlight U B","Highlight U B",FUTURE,SINCERE,Study1,U,70,42,JOL,User,-,"How likely are you to correctly recall the second item in the pair?|Type your response on a scale from 0-100 and then press Enter.",Study/JOL,"Study Phase2",4338,,,3361,3648,,,,30,1
5eed652a24c83c1975669e88,acmet8khjh,Trevor_EX2,1,142,2020-07-23T14:59:05-07:00,3.3281960487366,4,Pure_Unrelated.csv,JOL_H_VersionB.csv,"Highlight U B","Highlight U B",BROAD,INFECT,Study1,U,75,32,JOL,User,-,"How likely are you to correctly recall the second item in the pair?|Type your response on a scale from 0-100 and then press Enter.",Study/JOL,"Study Phase2",2962,,,2325,2652,,,,60,1
5eed652a24c83c1975669e88,acmet8khjh,Trevor_EX2,1,143,2020-07-23T14:59:08-07:00,3.0036330223083,4,Pure_Unrelated.csv,JOL_H_VersionB.csv,"Highlight U B","Highlight U B",MIRROR,CHILDREN,Study1,U,24,21,JOL_H,User,-,"How likely are you to correctly recall the second item in the pair?|Type your response on a scale from 0-100 and then press Enter.",Study/JOL,"Study Phase2",2632,,,1912,2233,,,,50,1
5eed652a24c83c1975669e88,acmet8khjh,Trevor_EX2,1,144,2020-07-23T14:59:13-07:00,5.7575900554657,4,Pure_Unrelated.csv,JOL_H_VersionB.csv,"Highlight U B","Highlight U B",LOAN,SIGN,Study1,U,21,38,JOL,User,-,"How likely are you to correctly recall the second item in the pair?|Type your response on a scale from 0-100 and then press Enter.",Study/JOL,"Study Phase2",5267,,,4488,5075,,,,100,0.296
5eed652a24c83c1975669e88,acmet8khjh,Trevor_EX2,1,145,2020-07-23T14:59:18-07:00,4.3112118244171,4,Pure_Unrelated.csv,JOL_H_VersionB.csv,"Highlight U B","Highlight U B",INFLATE,DISGUST,Study1,U,76,12,JOL_H,User,-,"How likely are you to correctly recall the second item in the pair?|Type your response on a scale from 0-100 and then press Enter.",Study/JOL,"Study Phase2",3831,,,2590,3559,,,,25,0.5
5eed652a24c83c1975669e88,acmet8khjh,Trevor_EX2,1,146,2020-07-23T14:59:24-07:00,6.3124210834503,4,Pure_Unrelated.csv,JOL_H_VersionB.csv,"Highlight U B","Highlight U B",GIVE,STEAK,Study1,U,8,31,JOL,User,-,"How likely are you to correctly recall the second item in the pair?|Type your response on a scale from 0-100 and then press Enter.",Study/JOL,"Study Phase2",5886,,,5095,5406,,,,60,0.333
5eed652a24c83c1975669e88,acmet8khjh,Trevor_EX2,1,147,2020-07-23T14:59:31-07:00,6.6801791191101,4,Pure_Unrelated.csv,JOL_H_VersionB.csv,"Highlight U B","Highlight U B",MALT,CHOCOLATE,BUFFER2,Buffer,88,47,JOL_H,User,-,"How likely are you to correctly recall the second item in the pair?|Type your response on a scale from 0-100 and then press Enter.",Study/JOL,BUFFER4,6087,,,5238,5453,,,,80,0.323
5eed652a24c83c1975669e88,acmet8khjh,Trevor_EX2,1,148,2020-07-23T14:59:34-07:00,3.6910209655762,4,Pure_Unrelated.csv,JOL_H_VersionB.csv,"Highlight U B","Highlight U B",MOON,SPACE,BUFFER2,Buffer,89,51,JOL,User,-,"How likely are you to correctly recall the second item in the pair?|Type your response on a scale from 0-100 and then press Enter.",Study/JOL,BUFFER4,3197,,,1638,2630,,,,100,1
5eed652a24c83c1975669e88,acmet8khjh,Trevor_EX2,1,149,2020-07-23T14:59:37-07:00,2.2968418598175,4,Pure_Unrelated.csv,JOL_H_VersionB.csv,"Highlight U B","Highlight U B",THING,STUFF,BUFFER2,Buffer,90,49,JOL_H,User,-,"How likely are you to correctly recall the second item in the pair?|Type your response on a scale from 0-100 and then press Enter.",Study/JOL,BUFFER4,1968,,,1318,1836,,,,100,1
5eed652a24c83c1975669e88,acmet8khjh,Trevor_EX2,1,150,2020-07-23T14:59:39-07:00,2.2388861179352,4,Pure_Unrelated.csv,JOL_H_VersionB.csv,"Highlight U B","Highlight U B",GEESE,GOOSE,BUFFER2,Buffer,86,50,JOL,User,-,"How likely are you to correctly recall the second item in the pair?|Type your response on a scale from 0-100 and then press Enter.",Study/JOL,BUFFER4,1932,,,1222,1739,,,,100,1
5eed652a24c83c1975669e88,acmet8khjh,Trevor_EX2,1,151,2020-07-23T14:59:44-07:00,5.33034491539,4,Pure_Unrelated.csv,JOL_H_VersionB.csv,"Highlight U B","Highlight U B",SHERRIF,POLICE,BUFFER2,Buffer,87,48,JOL_H,User,-,"How likely are you to correctly recall the second item in the pair?|Type your response on a scale from 0-100 and then press Enter.",Study/JOL,BUFFER4,4985,,,3556,3782,,,,80,1
5eed652a24c83c1975669e88,acmet8khjh,Trevor_EX2,1,152,2020-07-23T14:59:46-07:00,1.3766641616821,4,Pure_Unrelated.csv,JOL_H_VersionB.csv,"Highlight U B","Highlight U B",,,,,,0,Instruct,User,-,"You have completed this section. Please press Enter.",Filler_Instruction,Instruct5,1076,,,-1,-1,,,,,1
5eed652a24c83c1975669e88,acmet8khjh,Trevor_EX2,1,153,2020-07-23T15:01:46-07:00,120.34604477882,4,Pure_Unrelated.csv,JOL_H_VersionB.csv,"Highlight U B","Highlight U B",,,,,,0,FreeRecall,120,120,"Please list the 50 US states in reverse alphabetical order (z - a). The task will automatically advance to the next screen after two minutes.",,Filler2,120006,"wyoming, wisconsin, west virginia, washington, virginia, vermont, utah, texas, tennessee, south dakota, south carolina, rhode island, pennsylvania, oregon, oklahoma, ohio, north dakota, north carolina, new york, new mexico, new jersey, new hampshire, nevada, nebraska, montana, missouri, mississipi, minnesota, michigan, massachusset,s mary",0,38068,119905,0,0,,,0.582
5eed652a24c83c1975669e88,acmet8khjh,Trevor_EX2,1,154,2020-07-23T15:01:58-07:00,11.556012153625,4,Pure_Unrelated.csv,JOL_H_VersionB.csv,"Highlight U B","Highlight U B",,,,,,0,Instruct,-,10,"You will now be presented with the first word from each of the previously studied item pairs. Please type the missing word. If you do not know the word, you may guess or press Enter to skip forward to the next pair.",,Instruct6,11117,,,-1,-1,,,,,0.857
5eed652a24c83c1975669e88,acmet8khjh,Trevor_EX2,1,155,2020-07-23T15:02:07-07:00,9.5459060668945,4,Pure_Unrelated.csv,JOL_H_VersionB.csv,"Highlight U B","Highlight U B",JUSTICE,MAROON,Study1,U,6,28,Test,User,-,,Recall,Recall2,9137,solve,18.181818181818,6691,7045,0,0,,,1
5eed652a24c83c1975669e88,acmet8khjh,Trevor_EX2,1,156,2020-07-23T15:02:15-07:00,8.1646218299866,4,Pure_Unrelated.csv,JOL_H_VersionB.csv,"Highlight U B","Highlight U B",BROAD,INFECT,Study1,U,75,32,Test,User,-,,Recall,Recall2,7673,highway,15.384615384615,3885,5448,0,0,,,1
5eed652a24c83c1975669e88,acmet8khjh,Trevor_EX2,1,157,2020-07-23T15:02:27-07:00,12.223956108093,4,Pure_Unrelated.csv,JOL_H_VersionB.csv,"Highlight U B","Highlight U B",STRESS,YAM,Study1,U,68,19,Test,User,-,,Recall,Recall2,11849,,0,-1,-1,0,0,,,1
5eed652a24c83c1975669e88,acmet8khjh,Trevor_EX2,1,158,2020-07-23T15:02:31-07:00,3.4615778923035,4,Pure_Unrelated.csv,JOL_H_VersionB.csv,"Highlight U B","Highlight U B",KEYS,JOKE,Study1,U,15,41,Test,User,-,,Recall,Recall2,3081,joke,100,1309,1711,1,1,,,1
5eed652a24c83c1975669e88,acmet8khjh,Trevor_EX2,1,159,2020-07-23T15:02:34-07:00,3.4266200065613,4,Pure_Unrelated.csv,JOL_H_VersionB.csv,"Highlight U B","Highlight U B",NUMBER,HARD,Study1,U,78,22,Test,User,-,,Recall,Recall2,3124,hard,100,1253,1689,1,1,,,1
5eed652a24c83c1975669e88,acmet8khjh,Trevor_EX2,1,160,2020-07-23T15:02:45-07:00,10.979750156403,4,Pure_Unrelated.csv,JOL_H_VersionB.csv,"Highlight U B","Highlight U B",LISTEN,FICTION,Study1,U,14,16,Test,User,-,,Recall,Recall2,10622,lecture,28.571428571429,7841,9347,0,0,,,1
5eed652a24c83c1975669e88,acmet8khjh,Trevor_EX2,1,161,2020-07-23T15:02:49-07:00,3.8063588142395,4,Pure_Unrelated.csv,JOL_H_VersionB.csv,"Highlight U B","Highlight U B",BOTH,OUNCE,Study1,U,22,45,Test,User,-,,Recall,Recall2,3495,ounce,100,1924,2272,1,1,,,1
5eed652a24c83c1975669e88,acmet8khjh,Trevor_EX2,1,162,2020-07-23T15:02:53-07:00,4.142510175705,4,Pure_Unrelated.csv,JOL_H_VersionB.csv,"Highlight U B","Highlight U B",CRACKLE,ABLE,Study1,U,12,44,Test,User,-,,Recall,Recall2,3785,snap,25,2241,2800,0,0,,,1
5eed652a24c83c1975669e88,acmet8khjh,Trevor_EX2,1,163,2020-07-23T15:02:56-07:00,2.5173180103302,4,Pure_Unrelated.csv,JOL_H_VersionB.csv,"Highlight U B","Highlight U B",LOAN,SIGN,Study1,U,21,38,Test,User,-,,Recall,Recall2,2216,sign,100,1242,1900,1,1,,,1
5eed652a24c83c1975669e88,acmet8khjh,Trevor_EX2,1,164,2020-07-23T15:03:35-07:00,39.598325014114,4,Pure_Unrelated.csv,JOL_H_VersionB.csv,"Highlight U B","Highlight U B",DIZZY,SWEATER,Study1,U,77,18,Test,User,-,,Recall,Recall2,39261,,0,-1,-1,0,0,,,0.107
5eed652a24c83c1975669e88,acmet8khjh,Trevor_EX2,1,165,2020-07-23T15:03:41-07:00,5.2994589805603,4,Pure_Unrelated.csv,JOL_H_VersionB.csv,"Highlight U B","Highlight U B",THICK,CONTEST,Study1,U,73,33,Test,User,-,,Recall,Recall2,4971,contest,100,2621,4578,1,1,,,0.72
5eed652a24c83c1975669e88,acmet8khjh,Trevor_EX2,1,166,2020-07-23T15:03:44-07:00,3.4405360221863,4,Pure_Unrelated.csv,JOL_H_VersionB.csv,"Highlight U B","Highlight U B",FUTURE,SINCERE,Study1,U,70,42,Test,User,-,,Recall,Recall2,3141,sincere,100,1701,2162,1,1,,,1
5eed652a24c83c1975669e88,acmet8khjh,Trevor_EX2,1,167,2020-07-23T15:03:49-07:00,5.3144547939301,4,Pure_Unrelated.csv,JOL_H_VersionB.csv,"Highlight U B","Highlight U B",SHELL,SHAKE,Study1,U,13,20,Test,User,-,,Recall,Recall2,4969,shock,60,1307,4282,0,0,,,1
5eed652a24c83c1975669e88,acmet8khjh,Trevor_EX2,1,168,2020-07-23T15:03:54-07:00,4.2060990333557,4,Pure_Unrelated.csv,JOL_H_VersionB.csv,"Highlight U B","Highlight U B",NAME,HATE,Study1,U,17,8,Test,User,-,,Recall,Recall2,3891,hate,100,3096,3443,1,1,,,1
5eed652a24c83c1975669e88,acmet8khjh,Trevor_EX2,1,169,2020-07-23T15:03:57-07:00,3.7474839687347,4,Pure_Unrelated.csv,JOL_H_VersionB.csv,"Highlight U B","Highlight U B",MEAT,OBTAIN,Study1,U,11,26,Test,User,-,,Recall,Recall2,3397,give,20,1159,2902,0,0,,,1
5eed652a24c83c1975669e88,acmet8khjh,Trevor_EX2,1,170,2020-07-23T15:04:08-07:00,10.950134038925,4,Pure_Unrelated.csv,JOL_H_VersionB.csv,"Highlight U B","Highlight U B",VEHICLE,CHARM,Study1,U,10,36,Test,User,-,,Recall,Recall2,10642,,0,-1,-1,0,0,,,0.907
5eed652a24c83c1975669e88,acmet8khjh,Trevor_EX2,1,171,2020-07-23T15:04:27-07:00,18.634392023087,4,Pure_Unrelated.csv,JOL_H_VersionB.csv,"Highlight U B","Highlight U B",CRAYON,RATE,Study1,U,79,13,Test,User,-,,Recall,Recall2,18302,red,57.142857142857,17697,17938,0,0,,,0.467
5eed652a24c83c1975669e88,acmet8khjh,Trevor_EX2,1,172,2020-07-23T15:04:33-07:00,6.1278250217438,4,Pure_Unrelated.csv,JOL_H_VersionB.csv,"Highlight U B","Highlight U B",MAIN,SCAR,Study1,U,25,14,Test,User,-,,Recall,Recall2,5832,palm,25,1164,3745,0,0,,,1
5eed652a24c83c1975669e88,acmet8khjh,Trevor_EX2,1,173,2020-07-23T15:04:48-07:00,14.697554111481,4,Pure_Unrelated.csv,JOL_H_VersionB.csv,"Highlight U B","Highlight U B",CAKE,CLOTHES,Study1,U,16,40,Test,User,-,,Recall,Recall2,14406,,0,7070,7070,0,0,,,1
5eed652a24c83c1975669e88,acmet8khjh,Trevor_EX2,1,174,2020-07-23T15:04:51-07:00,3.3148767948151,4,Pure_Unrelated.csv,JOL_H_VersionB.csv,"Highlight U B","Highlight U B",DEGREE,CHAIR,Study1,U,71,17,Test,User,-,,Recall,Recall2,2900,chair,100,1662,2647,1,1,,,1
5eed652a24c83c1975669e88,acmet8khjh,Trevor_EX2,1,175,2020-07-23T15:04:58-07:00,7.0202631950378,4,Pure_Unrelated.csv,JOL_H_VersionB.csv,"Highlight U B","Highlight U B",LEASE,TOIL,Study1,U,20,10,Test,User,-,,Recall,Recall2,6696,,0,-1,-1,0,0,,,1
5eed652a24c83c1975669e88,acmet8khjh,Trevor_EX2,1,176,2020-07-23T15:05:06-07:00,7.3812108039856,4,Pure_Unrelated.csv,JOL_H_VersionB.csv,"Highlight U B","Highlight U B",FUZZY,BANG,Study1,U,18,34,Test,User,-,,Recall,Recall2,6992,frizzy,0,3949,5741,0,0,,,1
5eed652a24c83c1975669e88,acmet8khjh,Trevor_EX2,1,177,2020-07-23T15:05:11-07:00,5.7952501773834,4,Pure_Unrelated.csv,JOL_H_VersionB.csv,"Highlight U B","Highlight U B",INFLATE,DISGUST,Study1,U,76,12,Test,User,-,,Recall,Recall2,4421,disgust,100,2426,3936,1,1,,,1
5eed652a24c83c1975669e88,acmet8khjh,Trevor_EX2,1,178,2020-07-23T15:05:14-07:00,2.2266278266907,4,Pure_Unrelated.csv,JOL_H_VersionB.csv,"Highlight U B","Highlight U B",TEMPERATURE,MORNING,Study1,U,23,23,Test,User,-,,Recall,Recall2,1882,weather,14.285714285714,1018,1661,0,0,,,1
5eed652a24c83c1975669e88,acmet8khjh,Trevor_EX2,1,179,2020-07-23T15:05:24-07:00,10.390809059143,4,Pure_Unrelated.csv,JOL_H_VersionB.csv,"Highlight U B","Highlight U B",ROSE,NEGLECT,Study1,U,82,15,Test,User,-,,Recall,Recall2,10045,shell,33.333333333333,2916,8183,0,0,,,1
5eed652a24c83c1975669e88,acmet8khjh,Trevor_EX2,1,180,2020-07-23T15:05:29-07:00,4.6148431301117,4,Pure_Unrelated.csv,JOL_H_VersionB.csv,"Highlight U B","Highlight U B",MOAT,CLEAR,Study1,U,19,35,Test,User,-,,Recall,Recall2,4269,water,40,1559,2687,0,0,,,1
5eed652a24c83c1975669e88,acmet8khjh,Trevor_EX2,1,181,2020-07-23T15:05:32-07:00,3.6712758541107,4,Pure_Unrelated.csv,JOL_H_VersionB.csv,"Highlight U B","Highlight U B",GIVE,STEAK,Study1,U,8,31,Test,User,-,,Recall,Recall2,3328,steak,100,2433,2942,1,1,,,0.765
5eed652a24c83c1975669e88,acmet8khjh,Trevor_EX2,1,182,2020-07-23T15:06:24-07:00,52.168962001801,4,Pure_Unrelated.csv,JOL_H_VersionB.csv,"Highlight U B","Highlight U B",TAX,OWL,Study1,U,72,24,Test,User,-,,Recall,Recall2,51651,rate,0,50887,51125,0,0,,,0.058
5eed652a24c83c1975669e88,acmet8khjh,Trevor_EX2,1,183,2020-07-23T15:06:27-07:00,2.6981501579285,4,Pure_Unrelated.csv,JOL_H_VersionB.csv,"Highlight U B","Highlight U B",BAT,SHAKY,Study1,U,66,9,Test,User,-,,Recall,Recall2,2250,shaky,100,990,1598,1,1,,,1
5eed652a24c83c1975669e88,acmet8khjh,Trevor_EX2,1,184,2020-07-23T15:06:38-07:00,10.428685903549,4,Pure_Unrelated.csv,JOL_H_VersionB.csv,"Highlight U B","Highlight U B",WARN,SEA,Study1,U,80,43,Test,User,-,,Recall,Recall2,10018,sea,100,5908,9093,1,1,,,1
5eed652a24c83c1975669e88,acmet8khjh,Trevor_EX2,1,185,2020-07-23T15:07:34-07:00,56.658696889877,4,Pure_Unrelated.csv,JOL_H_VersionB.csv,"Highlight U B","Highlight U B",PET,MOON,Study1,U,74,46,Test,User,-,,Recall,Recall2,56214,,0,-1,-1,0,0,,,0.039
5eed652a24c83c1975669e88,acmet8khjh,Trevor_EX2,1,186,2020-07-23T15:07:38-07:00,3.9650771617889,4,Pure_Unrelated.csv,JOL_H_VersionB.csv,"Highlight U B","Highlight U B",MIRROR,CHILDREN,Study1,U,24,21,Test,User,-,,Recall,Recall2,3597,children,100,1600,2375,1,1,,,1
5eed652a24c83c1975669e88,acmet8khjh,Trevor_EX2,1,187,2020-07-23T15:07:43-07:00,4.7886199951172,4,Pure_Unrelated.csv,JOL_H_VersionB.csv,"Highlight U B","Highlight U B",MAZE,ELECTION,Study1,U,9,39,Test,User,-,,Recall,Recall2,4358,election,100,1618,3435,1,1,,,1
5eed652a24c83c1975669e88,acmet8khjh,Trevor_EX2,1,188,2020-07-23T15:07:49-07:00,6.5441989898682,4,Pure_Unrelated.csv,JOL_H_VersionB.csv,"Highlight U B","Highlight U B",RIPE,VERIFY,Study1,U,83,25,Test,User,-,,Recall,Recall2,6189,verify,100,1401,5281,1,1,,,1
5eed652a24c83c1975669e88,acmet8khjh,Trevor_EX2,1,189,2020-07-23T15:07:54-07:00,4.1374850273132,4,Pure_Unrelated.csv,JOL_H_VersionB.csv,"Highlight U B","Highlight U B",GRIND,STAND,Study1,U,85,11,Test,User,-,,Recall,Recall2,3750,beans,40,2996,3487,0,0,,,1
5eed652a24c83c1975669e88,acmet8khjh,Trevor_EX2,1,190,2020-07-23T15:08:02-07:00,8.0948300361633,4,Pure_Unrelated.csv,JOL_H_VersionB.csv,"Highlight U B","Highlight U B",STRETCH,CLOTH,Study1,U,7,27,Test,User,-,,Recall,Recall2,7720,shirt,20,6124,7240,0,0,,,1
5eed652a24c83c1975669e88,acmet8khjh,Trevor_EX2,1,191,2020-07-23T15:08:07-07:00,5.7228338718414,4,Pure_Unrelated.csv,JOL_H_VersionB.csv,"Highlight U B","Highlight U B",DIFFICULT,POOR,Study1,U,81,7,Test,User,-,,Recall,Recall2,5364,poor,100,4355,4886,1,1,,,1
5eed652a24c83c1975669e88,acmet8khjh,Trevor_EX2,1,192,2020-07-23T15:08:31-07:00,23.908613920212,4,Pure_Unrelated.csv,JOL_H_VersionB.csv,"Highlight U B","Highlight U B",RESIST,GLUE,Study1,U,69,29,Test,User,-,,Recall,Recall2,23524,urge,50,22272,23247,0,0,,,0.331
5eed652a24c83c1975669e88,acmet8khjh,Trevor_EX2,1,193,2020-07-23T15:08:35-07:00,3.2360701560974,4,Pure_Unrelated.csv,JOL_H_VersionB.csv,"Highlight U B","Highlight U B",PARCEL,THROAT,Study1,U,67,30,Test,User,-,,Recall,Recall2,2817,throat,100,1266,2400,1,1,,,1
5eed652a24c83c1975669e88,acmet8khjh,Trevor_EX2,1,194,2020-07-23T15:08:43-07:00,7.9692590236664,4,Pure_Unrelated.csv,JOL_H_VersionB.csv,"Highlight U B","Highlight U B",DONKEY,LUSH,Study1,U,84,37,Test,User,-,,Recall,Recall2,7620,,0,-1,-1,0,0,,,1
5eed652a24c83c1975669e88,acmet8khjh,Trevor_EX2,1,195,2020-07-23T15:08:44-07:00,1.5930819511414,4,Pure_Unrelated.csv,JOL_H_VersionB.csv,"Highlight U B","Highlight U B",,,,,,0,Instruct,User,-,"You have completed this section. Please press Enter.",,Instruct7,1178,,,-1,-1,,,,,1
5eed652a24c83c1975669e88,acmet8khjh,Trevor_EX2,1,196,2020-07-23T15:08:46-07:00,1.9654948711395,4,Pure_Unrelated.csv,JOL_H_VersionB.csv,"Highlight U B","Highlight U B",,,,,,0,Instruct,User,-,"The following screen will ask you a few questions abour your experience today. You must complete these questions to receive credit.",,Instruct8,1681,,,-1,-1,,,,,1
