"Username","Condition.Number","Condition.Description","Stimuli.Cue","Stimuli.Answer","Stimuli.Shuffle","Stimuli.Stimuli.Notes","Procedure.Trial.Type","JOL.RT","Response.JOL","Response.RT.1","Response.Response","Response.Accuracy","Recall_Score"
"w968356_cj",5,"Highlight vs normal A","ALLOW","TUCK","Study1","U","JOL",12014,67,2108,"continue",16.666666666667,0
"w968356_cj",5,"Highlight vs normal A","ARCHITECTURE","DESIGN","Study1","S","JOL",1544,4,2963,"land",20,0
"w968356_cj",5,"Highlight vs normal A","ART","LION","Study1","U","JOL_H",10750,35,2527,"piece",22.222222222222,0
"w968356_cj",5,"Highlight vs normal A","ARTERY","BRONZE","Study1","U","JOL_H",1853,98,3991,"clog",20,0
"w968356_cj",5,"Highlight vs normal A","BABY","CHILD","Study1","S","JOL_H",1530,87,6234,"back",22.222222222222,0
"w968356_cj",5,"Highlight vs normal A","BALL","RACKET","Study1","B","JOL_H",2883,56,6937,"game ",40,0
"w968356_cj",5,"Highlight vs normal A","BATHROOM","TOILET","Study1","S","JOL",2259,7,2406,"sink",20,0
"w968356_cj",5,"Highlight vs normal A","BEGIN","END","Study1","S","JOL",1450,7,1960,"end",100,100
"w968356_cj",5,"Highlight vs normal A","BITTER","COLD","Study1","F","JOL",995,23,24503,"sweet",0,0
"w968356_cj",5,"Highlight vs normal A","BLOW","WIND","Study1","S","JOL_H",1660,65,2365,"smoke",0,0
"w968356_cj",5,"Highlight vs normal A","BRIDGE","WATER","Study1","F","JOL",1090,30,1568,"water",100,100
"w968356_cj",5,"Highlight vs normal A","BUG","WASP","Study1","B","JOL",3407,87,2079,"removal",18.181818181818,0
"w968356_cj",5,"Highlight vs normal A","CASH","WOULD","Study1","U","JOL_H",1949,98,1962,"coin",22.222222222222,0
"w968356_cj",5,"Highlight vs normal A","CHISEL","HAMMER","Study1","F","JOL",996,88,4381,"make",40,0
"w968356_cj",5,"Highlight vs normal A","CIRCLE","ROUND","Study1","S","JOL",2222,98,2027,"step",0,0
"w968356_cj",5,"Highlight vs normal A","CLOTHES","ATTIRE","Study1","B","JOL",7041,98,3421,"laundry",30.769230769231,0
"w968356_cj",5,"Highlight vs normal A","CREDIT","CARD","Study1","F","JOL",1103,77,2024,"score",44.444444444444,0
"w968356_cj",5,"Highlight vs normal A","DARK","CAVE","Study1","B","JOL",2111,87,2176,"bright",0,0
"w968356_cj",5,"Highlight vs normal A","DEATH","BUSINESS","Study1","U","JOL",1194,67,2185,"alive",30.769230769231,0
"w968356_cj",5,"Highlight vs normal A","DEBATE","SIGHT","Study1","U","JOL_H",2836,65,5672,"ponder",0,0
"w968356_cj",5,"Highlight vs normal A","DELINQUENT","BAD","Study1","F","JOL_H",1570,98,3044,"juvenile ",0,0
"w968356_cj",5,"Highlight vs normal A","DIETARY","SACKING","Study1","U","JOL",2889,98,7264,"plan",36.363636363636,0
"w968356_cj",5,"Highlight vs normal A","DIGESTION","STOMACH","Study1","F","JOL_H",12602,67,2501,"poop",18.181818181818,0
"w968356_cj",5,"Highlight vs normal A","DISCOVER","FLOOR","Study1","U","JOL",1616,6,1646,"find",22.222222222222,0
"w968356_cj",5,"Highlight vs normal A","DISCUSSION","TALK","Study1","F","JOL",1601,100,4128,"board",22.222222222222,0
"w968356_cj",5,"Highlight vs normal A","DRINK","SIP","Study1","B","JOL",932,34,4111,"beverage",0,0
"w968356_cj",5,"Highlight vs normal A","DUE","ASSIGNMENT","Study1","S","JOL_H",1221,8,3675,"assignment",100,100
"w968356_cj",5,"Highlight vs normal A","DUMP","WASTE","Study1","S","JOL_H",71,NA,2272,"truck",20,0
"w968356_cj",5,"Highlight vs normal A","EDITOR","NEWS","Study1","F","JOL_H",1737,6,2286,"writer",20,0
"w968356_cj",5,"Highlight vs normal A","FIRE","BLAZE","Study1","B","JOL",6877,7,2090,"house",20,0
"w968356_cj",5,"Highlight vs normal A","FIX","HAND","Study1","U","JOL_H",1323,23,1765,"broke",0,0
"w968356_cj",5,"Highlight vs normal A","FULL","ENOUGH","Study1","B","JOL_H",1380,98,3692,"empty",18.181818181818,0
"w968356_cj",5,"Highlight vs normal A","GEOLOGY","ROCK","Study1","F","JOL_H",1737,66,4241,"rock",100,100
"w968356_cj",5,"Highlight vs normal A","GREAT","FANTASTIC","Study1","B","JOL_H",2944,45,14319,"rumor",0,0
"w968356_cj",5,"Highlight vs normal A","GRILL","BAR","Study1","S","JOL",2069,7,1882,"mate",28.571428571429,0
"w968356_cj",5,"Highlight vs normal A","HAPPY","CAR","Study1","U","JOL",2068,88,18408,"sad",33.333333333333,0
"w968356_cj",5,"Highlight vs normal A","HEIGHT","GROWTH","Study1","B","JOL",2479,78,1519,"weight",33.333333333333,0
"w968356_cj",5,"Highlight vs normal A","HERD","COW","Study1","F","JOL",3674,87,1430,"cow",100,100
"w968356_cj",5,"Highlight vs normal A","HIDE","SICK","Study1","U","JOL_H",1848,76,1678,"seek",50,0
"w968356_cj",5,"Highlight vs normal A","HONEY","BEE","Study1","S","JOL_H",1760,43,2127,"badger",44.444444444444,0
"w968356_cj",5,"Highlight vs normal A","HORNET","STING","Study1","F","JOL",2901,76,28970,"bee",0,0
"w968356_cj",5,"Highlight vs normal A","HOT","CHILI","Study1","B","JOL_H",1352,98,8473,"cold",44.444444444444,0
"w968356_cj",5,"Highlight vs normal A","HUNGER","FAMINE","Study1","B","JOL",25813,45,2418,"eat",22.222222222222,0
"w968356_cj",5,"Highlight vs normal A","HYGIENE","CLEAN","Study1","F","JOL",1490,86,2859,"bath",22.222222222222,0
"w968356_cj",5,"Highlight vs normal A","KEY","LATCH","Study1","B","JOL",1390,98,3270,"lock",44.444444444444,0
"w968356_cj",5,"Highlight vs normal A","KIDNEY","LIVER","Study1","S","JOL_H",8657,67,2923,"stone",20,0
"w968356_cj",5,"Highlight vs normal A","KING","VASE","Study1","U","JOL_H",3906,95,1540,"wueen",22.222222222222,0
"w968356_cj",5,"Highlight vs normal A","LAW","ATTORNEY","Study1","B","JOL_H",21126,67,3182,"school",14.285714285714,0
"w968356_cj",5,"Highlight vs normal A","LETTUCE","SALAD","Study1","S","JOL_H",1433,23,1848,"salad",100,100
"w968356_cj",5,"Highlight vs normal A","LIFT","WOMAN","Study1","U","JOL_H",5618,87,1732,"ride",0,0
"w968356_cj",5,"Highlight vs normal A","LOCATION","SITE","Study1","S","JOL_H",1069,98,2896,"direction",30.769230769231,0
"w968356_cj",5,"Highlight vs normal A","MACHINE","POSITION","Study1","U","JOL",1085,98,1798,"water",15.384615384615,0
"w968356_cj",5,"Highlight vs normal A","MATH","DIVISION","Study1","B","JOL_H",3244,97,5061,"science",40,0
"w968356_cj",5,"Highlight vs normal A","MEANING","DEFINITION","Study1","S","JOL_H",5074,87,3155,"beautiful",31.578947368421,0
"w968356_cj",5,"Highlight vs normal A","NUMBER","AMOUNT","Study1","S","JOL_H",1564,76,2249,"time",20,0
"w968356_cj",5,"Highlight vs normal A","ORCHID","FLOWER","Study1","F","JOL",1458,78,2358,"flower",100,100
"w968356_cj",5,"Highlight vs normal A","PARK","HUNGRY","Study1","U","JOL_H",1832,44,2039,"hungry ",100,100
"w968356_cj",5,"Highlight vs normal A","PAST","FUTURE","Study1","S","JOL_H",1492,99,1888,"present",30.769230769231,0
"w968356_cj",5,"Highlight vs normal A","PAW","DOG","Study1","F","JOL",1287,7,5118,"pup",0,0
"w968356_cj",5,"Highlight vs normal A","PLANE","PILOT","Study1","B","JOL",1434,88,2150,"pilot",100,100
"w968356_cj",5,"Highlight vs normal A","POP","SODA","Study1","S","JOL",12519,78,2304,"socket",40,0
"w968356_cj",5,"Highlight vs normal A","PUSHER","CLUTTER","Study1","U","JOL_H",1412,87,3004,"",0,0
"w968356_cj",5,"Highlight vs normal A","REVOLUTION","WAR","Study1","F","JOL",1922,7,3365,"war",100,100
"w968356_cj",5,"Highlight vs normal A","ROOT","PLANT","Study1","F","JOL",1591,22,1646,"plant",100,100
"w968356_cj",5,"Highlight vs normal A","SENTENCE","WORD","Study1","B","JOL_H",2055,10,2902,"phrase ",20,0
"w968356_cj",5,"Highlight vs normal A","SHOE","FOOT","Study1","S","JOL_H",5502,67,1665,"game",0,0
"w968356_cj",5,"Highlight vs normal A","SLEEP","DROWSY","Study1","B","JOL",1296,9,2459,"wake",20,0
"w968356_cj",5,"Highlight vs normal A","SMELL","STENCH","Study1","B","JOL",1672,4,2063,"sene",60,0
"w968356_cj",5,"Highlight vs normal A","SOON","BELT","Study1","U","JOL_H",1021,54,2383,"enough",20,0
"w968356_cj",5,"Highlight vs normal A","STRONG","ACCIDENT","Study1","U","JOL",4742,45,2758,"weak",16.666666666667,0
"w968356_cj",5,"Highlight vs normal A","SUGAR","RIDDLE","Study1","U","JOL",3559,65,2339,"sour",20,0
"w968356_cj",5,"Highlight vs normal A","SWAN","BIRD","Study1","F","JOL_H",2039,34,2305,"bird",100,100
"w968356_cj",5,"Highlight vs normal A","TAKE","SEIZE","Study1","B","JOL",1039,67,1461,"gie",50,0
"w968356_cj",5,"Highlight vs normal A","TRIAL","JURY","Study1","S","JOL_H",1691,98,2496,"court",44.444444444444,0
"w968356_cj",5,"Highlight vs normal A","TUNA","FISH","Study1","F","JOL_H",1358,0,1363,"fisah",88.888888888889,100
"w968356_cj",5,"Highlight vs normal A","VALLEY","ADD","Study1","U","JOL_H",1133,55,2320,"mountain",18.181818181818,0
"w968356_cj",5,"Highlight vs normal A","WAGE","MONEY","Study1","F","JOL_H",2756,98,3663,"salary",18.181818181818,0
"w968356_cj",5,"Highlight vs normal A","WAY","OUT","Study1","F","JOL",1029,34,1898,"find",0,0
"w968356_cj",5,"Highlight vs normal A","WINE","CHEESE","Study1","S","JOL_H",1148,9,1972,"drink",0,0
"w968356_cj",5,"Highlight vs normal A","WORK","CHORE","Study1","B","JOL",1776,98,1415,"place",40,0
"5ea4409abe6bbd2724455893",6,"Highlight vs normal B","ALLOW","TUCK","Study1","U","JOL_H",4475,31,1941,"",0,0
"5ea4409abe6bbd2724455893",6,"Highlight vs normal B","ARCHITECTURE","DESIGN","Study1","S","JOL_H",6467,39,6934,"art",0,0
"5ea4409abe6bbd2724455893",6,"Highlight vs normal B","ART","LION","Study1","U","JOL",6730,21,17532,"work",25,0
"5ea4409abe6bbd2724455893",6,"Highlight vs normal B","ARTERY","BRONZE","Study1","U","JOL_H",5814,49,5730,"boat",40,0
"5ea4409abe6bbd2724455893",6,"Highlight vs normal B","BABY","CHILD","Study1","S","JOL_H",3163,99,4255,"child",100,100
"5ea4409abe6bbd2724455893",6,"Highlight vs normal B","BALL","RACKET","Study1","B","JOL",4295,55,8768,"catcher",30.769230769231,0
"5ea4409abe6bbd2724455893",6,"Highlight vs normal B","BATHROOM","TOILET","Study1","S","JOL",3158,99,4030,"toilet",100,100
"5ea4409abe6bbd2724455893",6,"Highlight vs normal B","BEGIN","END","Study1","S","JOL_H",4042,67,3457,"",0,0
"5ea4409abe6bbd2724455893",6,"Highlight vs normal B","BITTER","COLD","Study1","F","JOL",5726,79,8608,"",0,0
"5ea4409abe6bbd2724455893",6,"Highlight vs normal B","BLOW","WIND","Study1","S","JOL",3740,67,5880,"",0,0
"5ea4409abe6bbd2724455893",6,"Highlight vs normal B","BRIDGE","WATER","Study1","F","JOL_H",4748,34,3921,"water",100,100
"5ea4409abe6bbd2724455893",6,"Highlight vs normal B","BUG","WASP","Study1","B","JOL_H",6116,89,4258,"bee",0,0
"5ea4409abe6bbd2724455893",6,"Highlight vs normal B","CASH","WOULD","Study1","U","JOL",6782,16,5305,"would",100,100
"5ea4409abe6bbd2724455893",6,"Highlight vs normal B","CHISEL","HAMMER","Study1","F","JOL",4984,50,4079,"hammer",100,100
"5ea4409abe6bbd2724455893",6,"Highlight vs normal B","CIRCLE","ROUND","Study1","S","JOL",5617,18,3953,"round",100,100
"5ea4409abe6bbd2724455893",6,"Highlight vs normal B","CLOTHES","ATTIRE","Study1","B","JOL",5591,10,6421,"",0,0
"5ea4409abe6bbd2724455893",6,"Highlight vs normal B","CREDIT","CARD","Study1","F","JOL",3539,99,4129,"money",0,0
"5ea4409abe6bbd2724455893",6,"Highlight vs normal B","DARK","CAVE","Study1","B","JOL",6466,15,6667,"light",0,0
"5ea4409abe6bbd2724455893",6,"Highlight vs normal B","DEATH","BUSINESS","Study1","U","JOL",7388,21,6002,"alive ",30.769230769231,0
"5ea4409abe6bbd2724455893",6,"Highlight vs normal B","DEBATE","SIGHT","Study1","U","JOL_H",7634,18,9750,"",0,0
"5ea4409abe6bbd2724455893",6,"Highlight vs normal B","DELINQUENT","BAD","Study1","F","JOL_H",3952,89,4777,"",0,0
"5ea4409abe6bbd2724455893",6,"Highlight vs normal B","DIETARY","SACKING","Study1","U","JOL_H",4520,21,5308,"",0,0
"5ea4409abe6bbd2724455893",6,"Highlight vs normal B","DIGESTION","STOMACH","Study1","F","JOL",5601,87,5198,"stomach",100,100
"5ea4409abe6bbd2724455893",6,"Highlight vs normal B","DISCOVER","FLOOR","Study1","U","JOL",5908,42,4693,"",0,0
"5ea4409abe6bbd2724455893",6,"Highlight vs normal B","DISCUSSION","TALK","Study1","F","JOL",4403,88,4862,"talk",100,100
"5ea4409abe6bbd2724455893",6,"Highlight vs normal B","DRINK","SIP","Study1","B","JOL_H",4174,75,13411,"thirsty",20,0
"5ea4409abe6bbd2724455893",6,"Highlight vs normal B","DUE","ASSIGNMENT","Study1","S","JOL_H",6097,5,3462,"",0,0
"5ea4409abe6bbd2724455893",6,"Highlight vs normal B","DUMP","WASTE","Study1","S","JOL",4166,36,4888,"ground",0,0
"5ea4409abe6bbd2724455893",6,"Highlight vs normal B","EDITOR","NEWS","Study1","F","JOL",4331,88,11599,"paper",22.222222222222,0
"5ea4409abe6bbd2724455893",6,"Highlight vs normal B","FIRE","BLAZE","Study1","B","JOL_H",3914,62,5728,"blaze",100,100
"5ea4409abe6bbd2724455893",6,"Highlight vs normal B","FIX","HAND","Study1","U","JOL_H",4082,47,5349,"",0,0
"5ea4409abe6bbd2724455893",6,"Highlight vs normal B","FULL","ENOUGH","Study1","B","JOL",4961,41,4255,"empty",18.181818181818,0
"5ea4409abe6bbd2724455893",6,"Highlight vs normal B","GEOLOGY","ROCK","Study1","F","JOL_H",4272,72,5892,"dig",0,0
"5ea4409abe6bbd2724455893",6,"Highlight vs normal B","GREAT","FANTASTIC","Study1","B","JOL_H",4056,77,5379,"",0,0
"5ea4409abe6bbd2724455893",6,"Highlight vs normal B","GRILL","BAR","Study1","S","JOL",4256,88,2656,"",0,0
"5ea4409abe6bbd2724455893",6,"Highlight vs normal B","HAPPY","CAR","Study1","U","JOL_H",8740,74,4617,"car",100,100
"5ea4409abe6bbd2724455893",6,"Highlight vs normal B","HEIGHT","GROWTH","Study1","B","JOL",3738,46,14719,"length",50,0
"5ea4409abe6bbd2724455893",6,"Highlight vs normal B","HERD","COW","Study1","F","JOL_H",4071,79,4114,"cow",100,100
"5ea4409abe6bbd2724455893",6,"Highlight vs normal B","HIDE","SICK","Study1","U","JOL",2678,99,3908,"",0,0
"5ea4409abe6bbd2724455893",6,"Highlight vs normal B","HONEY","BEE","Study1","S","JOL_H",3762,99,3509,"bee",100,100
"5ea4409abe6bbd2724455893",6,"Highlight vs normal B","HORNET","STING","Study1","F","JOL",4824,57,11353,"sting",100,100
"5ea4409abe6bbd2724455893",6,"Highlight vs normal B","HOT","CHILI","Study1","B","JOL",4765,78,4021,"cold",44.444444444444,0
"5ea4409abe6bbd2724455893",6,"Highlight vs normal B","HUNGER","FAMINE","Study1","B","JOL_H",5322,43,11265,"dietary",30.769230769231,0
"5ea4409abe6bbd2724455893",6,"Highlight vs normal B","HYGIENE","CLEAN","Study1","F","JOL_H",6539,84,9182,"chore",40,0
"5ea4409abe6bbd2724455893",6,"Highlight vs normal B","KEY","LATCH","Study1","B","JOL",4493,87,10300,"",0,0
"5ea4409abe6bbd2724455893",6,"Highlight vs normal B","KIDNEY","LIVER","Study1","S","JOL",4633,34,9020,"heart",40,0
"5ea4409abe6bbd2724455893",6,"Highlight vs normal B","KING","VASE","Study1","U","JOL",4353,41,5039,"queen",22.222222222222,0
"5ea4409abe6bbd2724455893",6,"Highlight vs normal B","LAW","ATTORNEY","Study1","B","JOL",4812,89,15044,"",0,0
"5ea4409abe6bbd2724455893",6,"Highlight vs normal B","LETTUCE","SALAD","Study1","S","JOL",6716,33,6762,"salad",100,100
"5ea4409abe6bbd2724455893",6,"Highlight vs normal B","LIFT","WOMAN","Study1","U","JOL",6001,96,5186,"stairs",18.181818181818,0
"5ea4409abe6bbd2724455893",6,"Highlight vs normal B","LOCATION","SITE","Study1","S","JOL_H",7089,32,2884,"",0,0
"5ea4409abe6bbd2724455893",6,"Highlight vs normal B","MACHINE","POSITION","Study1","U","JOL",8608,42,3505,"",0,0
"5ea4409abe6bbd2724455893",6,"Highlight vs normal B","MATH","DIVISION","Study1","B","JOL",6345,79,6703,"division",100,100
"5ea4409abe6bbd2724455893",6,"Highlight vs normal B","MEANING","DEFINITION","Study1","S","JOL",3436,3,4339,"word",14.285714285714,0
"5ea4409abe6bbd2724455893",6,"Highlight vs normal B","NUMBER","AMOUNT","Study1","S","JOL",4922,54,4894,"bond",40,0
"5ea4409abe6bbd2724455893",6,"Highlight vs normal B","ORCHID","FLOWER","Study1","F","JOL_H",3748,88,3751,"flower",100,100
"5ea4409abe6bbd2724455893",6,"Highlight vs normal B","PARK","HUNGRY","Study1","U","JOL",4905,45,3053,"",0,0
"5ea4409abe6bbd2724455893",6,"Highlight vs normal B","PAST","FUTURE","Study1","S","JOL_H",3575,42,4375,"present",30.769230769231,0
"5ea4409abe6bbd2724455893",6,"Highlight vs normal B","PAW","DOG","Study1","F","JOL_H",4085,99,5114,"dog",100,100
"5ea4409abe6bbd2724455893",6,"Highlight vs normal B","PLANE","PILOT","Study1","B","JOL_H",5461,45,11331,"pilot",100,100
"5ea4409abe6bbd2724455893",6,"Highlight vs normal B","POP","SODA","Study1","S","JOL_H",9718,65,9118,"star",50,0
"5ea4409abe6bbd2724455893",6,"Highlight vs normal B","PUSHER","CLUTTER","Study1","U","JOL_H",6897,31,3974,"pen",20,0
"5ea4409abe6bbd2724455893",6,"Highlight vs normal B","REVOLUTION","WAR","Study1","F","JOL_H",4642,87,4665,"war",100,100
"5ea4409abe6bbd2724455893",6,"Highlight vs normal B","ROOT","PLANT","Study1","F","JOL",4930,40,3879,"plant",100,100
"5ea4409abe6bbd2724455893",6,"Highlight vs normal B","SENTENCE","WORD","Study1","B","JOL",7095,66,11018,"word",100,100
"5ea4409abe6bbd2724455893",6,"Highlight vs normal B","SHOE","FOOT","Study1","S","JOL_H",4759,89,4372,"lace",0,0
"5ea4409abe6bbd2724455893",6,"Highlight vs normal B","SLEEP","DROWSY","Study1","B","JOL_H",5097,89,4994,"awake",18.181818181818,0
"5ea4409abe6bbd2724455893",6,"Highlight vs normal B","SMELL","STENCH","Study1","B","JOL_H",5313,38,11599,"fragrance",26.666666666667,0
"5ea4409abe6bbd2724455893",6,"Highlight vs normal B","SOON","BELT","Study1","U","JOL_H",4872,32,6166,"gone",25,0
"5ea4409abe6bbd2724455893",6,"Highlight vs normal B","STRONG","ACCIDENT","Study1","U","JOL",5997,47,3873,"weak",16.666666666667,0
"5ea4409abe6bbd2724455893",6,"Highlight vs normal B","SUGAR","RIDDLE","Study1","U","JOL_H",4146,11,6745,"spice",36.363636363636,0
"5ea4409abe6bbd2724455893",6,"Highlight vs normal B","SWAN","BIRD","Study1","F","JOL_H",4921,71,11598,"geece",0,0
"5ea4409abe6bbd2724455893",6,"Highlight vs normal B","TAKE","SEIZE","Study1","B","JOL_H",3939,12,4132,"away",0,0
"5ea4409abe6bbd2724455893",6,"Highlight vs normal B","TRIAL","JURY","Study1","S","JOL_H",6933,29,5701,"law",0,0
"5ea4409abe6bbd2724455893",6,"Highlight vs normal B","TUNA","FISH","Study1","F","JOL_H",4970,87,12995,"salad",22.222222222222,0
"5ea4409abe6bbd2724455893",6,"Highlight vs normal B","VALLEY","ADD","Study1","U","JOL_H",3873,5,3761,"hill",0,0
"5ea4409abe6bbd2724455893",6,"Highlight vs normal B","WAGE","MONEY","Study1","F","JOL",3278,88,14196,"",0,0
"5ea4409abe6bbd2724455893",6,"Highlight vs normal B","WAY","OUT","Study1","F","JOL",4477,89,7574,"up",40,0
"5ea4409abe6bbd2724455893",6,"Highlight vs normal B","WINE","CHEESE","Study1","S","JOL_H",5971,66,3845,"cheese",100,100
"5ea4409abe6bbd2724455893",6,"Highlight vs normal B","WORK","CHORE","Study1","B","JOL",4277,87,9907,"",0,0
"5ed5230c05bbbb07f62be62b",7,"Highlight vs normal C","ACCIDENT","STRONG","Study1","U","JOL_H",2444,3,2007,"car",22.222222222222,0
"5ed5230c05bbbb07f62be62b",7,"Highlight vs normal C","ADD","VALLEY","Study1","U","JOL_H",1601,20,3049,"subtract",14.285714285714,0
"5ed5230c05bbbb07f62be62b",7,"Highlight vs normal C","AMOUNT","NUMBER","Study1","S","JOL_H",2125,70,2556,"money",36.363636363636,0
"5ed5230c05bbbb07f62be62b",7,"Highlight vs normal C","ASSIGNMENT","DUE","Study1","S","JOL",1661,80,1403,"due",100,100
"5ed5230c05bbbb07f62be62b",7,"Highlight vs normal C","ATTIRE","CLOTHES","Study1","F","JOL",1586,70,1925,"clothing",66.666666666667,0
"5ed5230c05bbbb07f62be62b",7,"Highlight vs normal C","ATTORNEY","LAW","Study1","F","JOL",2657,80,4967,"jury",0,0
"5ed5230c05bbbb07f62be62b",7,"Highlight vs normal C","BAD","DELINQUENT","Study1","B","JOL_H",1348,40,3761,"good",14.285714285714,0
"5ed5230c05bbbb07f62be62b",7,"Highlight vs normal C","BAR","GRILL","Study1","S","JOL",1499,80,3956,"grill",100,100
"5ed5230c05bbbb07f62be62b",7,"Highlight vs normal C","BEE","HONEY","Study1","S","JOL_H",1305,90,2069,"wasp",0,0
"5ed5230c05bbbb07f62be62b",7,"Highlight vs normal C","BELT","SOON","Study1","U","JOL",3126,25,2764,"stench",40,0
"5ed5230c05bbbb07f62be62b",7,"Highlight vs normal C","BIRD","SWAN","Study1","B","JOL_H",2707,40,4387,"fly",0,0
"5ed5230c05bbbb07f62be62b",7,"Highlight vs normal C","BLAZE","FIRE","Study1","F","JOL",1277,60,1593,"fire",100,100
"5ed5230c05bbbb07f62be62b",7,"Highlight vs normal C","BRONZE","ARTERY","Study1","U","JOL_H",5397,10,4361,"gold",0,0
"5ed5230c05bbbb07f62be62b",7,"Highlight vs normal C","BUSINESS","DEATH","Study1","U","JOL_H",1419,10,5341,"sad",25,0
"5ed5230c05bbbb07f62be62b",7,"Highlight vs normal C","CAR","HAPPY","Study1","U","JOL",2071,50,3096,"vehicle",16.666666666667,0
"5ed5230c05bbbb07f62be62b",7,"Highlight vs normal C","CARD","CREDIT","Study1","B","JOL",2472,90,2355,"credit",100,100
"5ed5230c05bbbb07f62be62b",7,"Highlight vs normal C","CAVE","DARK","Study1","F","JOL",2882,70,3764,"dark",100,100
"5ed5230c05bbbb07f62be62b",7,"Highlight vs normal C","CHEESE","WINE","Study1","S","JOL_H",2370,90,2066,"wine",100,100
"5ed5230c05bbbb07f62be62b",7,"Highlight vs normal C","CHILD","BABY","Study1","S","JOL",1506,90,2844,"young",22.222222222222,0
"5ed5230c05bbbb07f62be62b",7,"Highlight vs normal C","CHILI","HOT","Study1","F","JOL",1621,80,1430,"hot",100,100
"5ed5230c05bbbb07f62be62b",7,"Highlight vs normal C","CHORE","WORK","Study1","F","JOL_H",1327,80,2828,"work",100,100
"5ed5230c05bbbb07f62be62b",7,"Highlight vs normal C","CLEAN","HYGIENE","Study1","B","JOL",1795,99,2982,"tidy",18.181818181818,0
"5ed5230c05bbbb07f62be62b",7,"Highlight vs normal C","CLUTTER","PUSHER","Study1","U","JOL_H",2605,40,2414,"mess",20,0
"5ed5230c05bbbb07f62be62b",7,"Highlight vs normal C","COLD","BITTER","Study1","B","JOL_H",1608,90,1203,"hot",22.222222222222,0
"5ed5230c05bbbb07f62be62b",7,"Highlight vs normal C","COW","HERD","Study1","B","JOL",1995,80,3979,"herd",100,100
"5ed5230c05bbbb07f62be62b",7,"Highlight vs normal C","DEFINITION","MEANING","Study1","S","JOL_H",2510,80,2299,"meaning",100,100
"5ed5230c05bbbb07f62be62b",7,"Highlight vs normal C","DESIGN","ARCHITECTURE","Study1","S","JOL_H",2563,65,6221,"architecture",100,100
"5ed5230c05bbbb07f62be62b",7,"Highlight vs normal C","DIVISION","MATH","Study1","F","JOL_H",2012,80,2194,"maths",88.888888888889,100
"5ed5230c05bbbb07f62be62b",7,"Highlight vs normal C","DOG","PAW","Study1","B","JOL_H",3084,85,1663,"cat",33.333333333333,0
"5ed5230c05bbbb07f62be62b",7,"Highlight vs normal C","DROWSY","SLEEP","Study1","F","JOL_H",1040,90,1929,"tired",20,0
"5ed5230c05bbbb07f62be62b",7,"Highlight vs normal C","END","BEGIN","Study1","S","JOL",1859,90,3534,"begin",100,100
"5ed5230c05bbbb07f62be62b",7,"Highlight vs normal C","ENOUGH","FULL","Study1","F","JOL",2737,60,5268,"small",44.444444444444,0
"5ed5230c05bbbb07f62be62b",7,"Highlight vs normal C","FAMINE","HUNGER","Study1","F","JOL",1994,70,2651,"hungry",83.333333333333,100
"5ed5230c05bbbb07f62be62b",7,"Highlight vs normal C","FANTASTIC","GREAT","Study1","F","JOL",1704,90,2612,"excited",33.333333333333,0
"5ed5230c05bbbb07f62be62b",7,"Highlight vs normal C","FISH","TUNA","Study1","B","JOL",1647,90,2970,"tubna",88.888888888889,100
"5ed5230c05bbbb07f62be62b",7,"Highlight vs normal C","FLOOR","DISCOVER","Study1","U","JOL",2141,40,3439,"door",50,0
"5ed5230c05bbbb07f62be62b",7,"Highlight vs normal C","FLOWER","ORCHID","Study1","B","JOL_H",1423,70,2572,"petal",0,0
"5ed5230c05bbbb07f62be62b",7,"Highlight vs normal C","FOOT","SHOE","Study1","S","JOL",1694,90,3026,"arm",0,0
"5ed5230c05bbbb07f62be62b",7,"Highlight vs normal C","FUTURE","PAST","Study1","S","JOL_H",3296,75,2062,"past",100,100
"5ed5230c05bbbb07f62be62b",7,"Highlight vs normal C","GROWTH","HEIGHT","Study1","F","JOL",1655,70,2652,"tall",20,0
"5ed5230c05bbbb07f62be62b",7,"Highlight vs normal C","HAMMER","CHISEL","Study1","B","JOL_H",2917,60,3726,"tools",18.181818181818,0
"5ed5230c05bbbb07f62be62b",7,"Highlight vs normal C","HAND","FIX","Study1","U","JOL",1986,50,2725,"sanitiser",16.666666666667,0
"5ed5230c05bbbb07f62be62b",7,"Highlight vs normal C","HUNGRY","PARK","Study1","U","JOL_H",1921,10,1712,"famine",20,0
"5ed5230c05bbbb07f62be62b",7,"Highlight vs normal C","JURY","TRIAL","Study1","S","JOL",1518,80,3370,"judge",0,0
"5ed5230c05bbbb07f62be62b",7,"Highlight vs normal C","LATCH","KEY","Study1","F","JOL",1351,8,3455,"lock",28.571428571429,0
"5ed5230c05bbbb07f62be62b",7,"Highlight vs normal C","LION","ART","Study1","U","JOL_H",838,90,1597,"tiger",25,0
"5ed5230c05bbbb07f62be62b",7,"Highlight vs normal C","LIVER","KIDNEY","Study1","S","JOL",1589,90,2225,"stomach",0,0
"5ed5230c05bbbb07f62be62b",7,"Highlight vs normal C","MONEY","WAGE","Study1","B","JOL",1342,90,1773,"amount",20,0
"5ed5230c05bbbb07f62be62b",7,"Highlight vs normal C","NEWS","EDITOR","Study1","B","JOL_H",3172,75,1840,"flash",0,0
"5ed5230c05bbbb07f62be62b",7,"Highlight vs normal C","OUT","WAY","Study1","B","JOL_H",1752,40,1232,"in",0,0
"5ed5230c05bbbb07f62be62b",7,"Highlight vs normal C","PILOT","PLANE","Study1","F","JOL_H",1790,80,1968,"plane",100,100
"5ed5230c05bbbb07f62be62b",7,"Highlight vs normal C","PLANT","ROOT","Study1","B","JOL_H",2286,75,4603,"grow",50,0
"5ed5230c05bbbb07f62be62b",7,"Highlight vs normal C","POSITION","MACHINE","Study1","U","JOL",2398,20,2293,"location",40,0
"5ed5230c05bbbb07f62be62b",7,"Highlight vs normal C","RACKET","BALL","Study1","F","JOL_H",1376,80,1696,"ball",100,100
"5ed5230c05bbbb07f62be62b",7,"Highlight vs normal C","RIDDLE","SUGAR","Study1","U","JOL",2228,10,2488,"rhyme",20,0
"5ed5230c05bbbb07f62be62b",7,"Highlight vs normal C","ROCK","GEOLOGY","Study1","B","JOL",3939,69,1889,"solid",33.333333333333,0
"5ed5230c05bbbb07f62be62b",7,"Highlight vs normal C","ROUND","CIRCLE","Study1","S","JOL",2033,70,1996,"circle",100,100
"5ed5230c05bbbb07f62be62b",7,"Highlight vs normal C","SACKING","DIETARY","Study1","U","JOL",2762,20,3150,"job",0,0
"5ed5230c05bbbb07f62be62b",7,"Highlight vs normal C","SALAD","LETTUCE","Study1","S","JOL_H",2022,70,1807,"lettuce",100,100
"5ed5230c05bbbb07f62be62b",7,"Highlight vs normal C","SEIZE","TAKE","Study1","F","JOL_H",2456,70,2733,"fit",28.571428571429,0
"5ed5230c05bbbb07f62be62b",7,"Highlight vs normal C","SICK","HIDE","Study1","U","JOL_H",2116,30,1765,"tired",44.444444444444,0
"5ed5230c05bbbb07f62be62b",7,"Highlight vs normal C","SIGHT","DEBATE","Study1","U","JOL",2511,50,5114,"bright",33.333333333333,0
"5ed5230c05bbbb07f62be62b",7,"Highlight vs normal C","SIP","DRINK","Study1","F","JOL_H",1361,80,2519,"drink",100,100
"5ed5230c05bbbb07f62be62b",7,"Highlight vs normal C","SITE","LOCATION","Study1","S","JOL_H",1975,80,2491,"bite",16.666666666667,0
"5ed5230c05bbbb07f62be62b",7,"Highlight vs normal C","SODA","POP","Study1","S","JOL",2089,80,2206,"pop",100,100
"5ed5230c05bbbb07f62be62b",7,"Highlight vs normal C","STENCH","SMELL","Study1","F","JOL_H",3756,65,1943,"smell",100,100
"5ed5230c05bbbb07f62be62b",7,"Highlight vs normal C","STING","HORNET","Study1","B","JOL_H",2745,65,2514,"wasp",0,0
"5ed5230c05bbbb07f62be62b",7,"Highlight vs normal C","STOMACH","DIGESTION","Study1","B","JOL_H",1214,90,3777,"digestion",100,100
"5ed5230c05bbbb07f62be62b",7,"Highlight vs normal C","TALK","DISCUSSION","Study1","B","JOL",1222,80,3238,"silent",37.5,0
"5ed5230c05bbbb07f62be62b",7,"Highlight vs normal C","TOILET","BATHROOM","Study1","S","JOL",3005,100,3193,"bathroom",100,100
"5ed5230c05bbbb07f62be62b",7,"Highlight vs normal C","TUCK","ALLOW","Study1","U","JOL",2223,30,3673,"ball",66.666666666667,0
"5ed5230c05bbbb07f62be62b",7,"Highlight vs normal C","VASE","KING","Study1","U","JOL_H",3401,10,3101,"water",0,0
"5ed5230c05bbbb07f62be62b",7,"Highlight vs normal C","WAR","REVOLUTION","Study1","B","JOL",1639,30,3689,"revolution",100,100
"5ed5230c05bbbb07f62be62b",7,"Highlight vs normal C","WASP","BUG","Study1","F","JOL",2325,60,6384,"insect",0,0
"5ed5230c05bbbb07f62be62b",7,"Highlight vs normal C","WASTE","DUMP","Study1","S","JOL_H",1667,90,1744,"land",25,0
"5ed5230c05bbbb07f62be62b",7,"Highlight vs normal C","WATER","BRIDGE","Study1","B","JOL",2846,70,1938,"fall",0,0
"5ed5230c05bbbb07f62be62b",7,"Highlight vs normal C","WIND","BLOW","Study1","S","JOL_H",1503,90,3704,"weather",18.181818181818,0
"5ed5230c05bbbb07f62be62b",7,"Highlight vs normal C","WOMAN","LIFT","Study1","U","JOL_H",3000,15,2395,"man",0,0
"5ed5230c05bbbb07f62be62b",7,"Highlight vs normal C","WORD","SENTENCE","Study1","F","JOL",3099,65,7278,"action",14.285714285714,0
"5ed5230c05bbbb07f62be62b",7,"Highlight vs normal C","WOULD","CASH","Study1","U","JOL_H",3036,20,2074,"should",40,0
"5e9084139da60e38c68353a4",8,"Highlight vs normal D","ACCIDENT","STRONG","Study1","U","JOL",2669,0,4977,"Happen ",16.666666666667,0
"5e9084139da60e38c68353a4",8,"Highlight vs normal D","ADD","VALLEY","Study1","U","JOL_H",4562,20,6104,"Subtract ",14.285714285714,0
"5e9084139da60e38c68353a4",8,"Highlight vs normal D","AMOUNT","NUMBER","Study1","S","JOL_H",4433,60,3494,"Due",44.444444444444,0
"5e9084139da60e38c68353a4",8,"Highlight vs normal D","ASSIGNMENT","DUE","Study1","S","JOL_H",4006,30,4596,"Chore",25,0
"5e9084139da60e38c68353a4",8,"Highlight vs normal D","ATTIRE","CLOTHES","Study1","F","JOL_H",3946,100,3699,"Clothing",66.666666666667,0
"5e9084139da60e38c68353a4",8,"Highlight vs normal D","ATTORNEY","LAW","Study1","F","JOL_H",5393,60,3008,"Law",100,100
"5e9084139da60e38c68353a4",8,"Highlight vs normal D","BAD","DELINQUENT","Study1","B","JOL",3667,70,10567,"Villain ",35.294117647059,0
"5e9084139da60e38c68353a4",8,"Highlight vs normal D","BAR","GRILL","Study1","S","JOL",3629,60,6492,"Crawl",40,0
"5e9084139da60e38c68353a4",8,"Highlight vs normal D","BEE","HONEY","Study1","S","JOL",4122,100,3739,"Honey",100,100
"5e9084139da60e38c68353a4",8,"Highlight vs normal D","BELT","SOON","Study1","U","JOL_H",3334,20,7670,"Buckle ",0,0
"5e9084139da60e38c68353a4",8,"Highlight vs normal D","BIRD","SWAN","Study1","B","JOL",3012,75,3348,"Swan",100,100
"5e9084139da60e38c68353a4",8,"Highlight vs normal D","BLAZE","FIRE","Study1","F","JOL",3398,100,2885,"Fire",100,100
"5e9084139da60e38c68353a4",8,"Highlight vs normal D","BRONZE","ARTERY","Study1","U","JOL",3031,0,10029,"Artery",100,100
"5e9084139da60e38c68353a4",8,"Highlight vs normal D","BUSINESS","DEATH","Study1","U","JOL_H",90704,20,3479,"Degree",36.363636363636,0
"5e9084139da60e38c68353a4",8,"Highlight vs normal D","CAR","HAPPY","Study1","U","JOL",3424,30,4132,"Drive",0,0
"5e9084139da60e38c68353a4",8,"Highlight vs normal D","CARD","CREDIT","Study1","B","JOL",3503,100,3489,"Credit",100,100
"5e9084139da60e38c68353a4",8,"Highlight vs normal D","CAVE","DARK","Study1","F","JOL_H",3291,80,4520,"Dark ",100,100
"5e9084139da60e38c68353a4",8,"Highlight vs normal D","CHEESE","WINE","Study1","S","JOL_H",3624,50,3173,"Melt",25,0
"5e9084139da60e38c68353a4",8,"Highlight vs normal D","CHILD","BABY","Study1","S","JOL_H",3289,100,3197,"Baby",100,100
"5e9084139da60e38c68353a4",8,"Highlight vs normal D","CHILI","HOT","Study1","F","JOL_H",3346,80,2626,"Hot",100,100
"5e9084139da60e38c68353a4",8,"Highlight vs normal D","CHORE","WORK","Study1","F","JOL_H",3500,90,3075,"Work",100,100
"5e9084139da60e38c68353a4",8,"Highlight vs normal D","CLEAN","HYGIENE","Study1","B","JOL",3742,75,4410,"Room",0,0
"5e9084139da60e38c68353a4",8,"Highlight vs normal D","CLUTTER","PUSHER","Study1","U","JOL_H",6696,20,3217,"Mess",20,0
"5e9084139da60e38c68353a4",8,"Highlight vs normal D","COLD","BITTER","Study1","B","JOL_H",3993,0,4597,"Chill",18.181818181818,0
"5e9084139da60e38c68353a4",8,"Highlight vs normal D","COW","HERD","Study1","B","JOL",4708,90,3079,"Milk",0,0
"5e9084139da60e38c68353a4",8,"Highlight vs normal D","DEFINITION","MEANING","Study1","S","JOL",3676,80,3936,"Meaning",100,100
"5e9084139da60e38c68353a4",8,"Highlight vs normal D","DESIGN","ARCHITECTURE","Study1","S","JOL_H",3530,60,4977,"Architecture ",100,100
"5e9084139da60e38c68353a4",8,"Highlight vs normal D","DIVISION","MATH","Study1","F","JOL",4564,75,5356,"Split ",22.222222222222,0
"5e9084139da60e38c68353a4",8,"Highlight vs normal D","DOG","PAW","Study1","B","JOL",3080,20,2898,"Cat",33.333333333333,0
"5e9084139da60e38c68353a4",8,"Highlight vs normal D","DROWSY","SLEEP","Study1","F","JOL",4070,75,2964,"Slee",88.888888888889,100
"5e9084139da60e38c68353a4",8,"Highlight vs normal D","END","BEGIN","Study1","S","JOL",3957,60,5025,"Beginning ",71.428571428571,0
"5e9084139da60e38c68353a4",8,"Highlight vs normal D","ENOUGH","FULL","Study1","F","JOL",3835,60,5652,"Sufficient ",14.285714285714,0
"5e9084139da60e38c68353a4",8,"Highlight vs normal D","FAMINE","HUNGER","Study1","F","JOL",3764,75,3865,"Hunger",100,100
"5e9084139da60e38c68353a4",8,"Highlight vs normal D","FANTASTIC","GREAT","Study1","F","JOL_H",3729,100,3247,"Great",100,100
"5e9084139da60e38c68353a4",8,"Highlight vs normal D","FISH","TUNA","Study1","B","JOL_H",4046,80,5392,"Kipper",0,0
"5e9084139da60e38c68353a4",8,"Highlight vs normal D","FLOOR","DISCOVER","Study1","U","JOL",2833,0,7245,"Ceiling ",26.666666666667,0
"5e9084139da60e38c68353a4",8,"Highlight vs normal D","FLOWER","ORCHID","Study1","B","JOL",3725,75,4170,"Orchid",100,100
"5e9084139da60e38c68353a4",8,"Highlight vs normal D","FOOT","SHOE","Study1","S","JOL_H",3591,75,3536,"Shoe",100,100
"5e9084139da60e38c68353a4",8,"Highlight vs normal D","FUTURE","PAST","Study1","S","JOL",3342,75,3140,"Past",100,100
"5e9084139da60e38c68353a4",8,"Highlight vs normal D","GROWTH","HEIGHT","Study1","F","JOL",3170,0,3829,"Height",100,100
"5e9084139da60e38c68353a4",8,"Highlight vs normal D","HAMMER","CHISEL","Study1","B","JOL_H",3203,75,3624,"Chisel",100,100
"5e9084139da60e38c68353a4",8,"Highlight vs normal D","HAND","FIX","Study1","U","JOL_H",4116,28,3715,"Give",28.571428571429,0
"5e9084139da60e38c68353a4",8,"Highlight vs normal D","HUNGRY","PARK","Study1","U","JOL_H",3571,0,5068,"Famine ",20,0
"5e9084139da60e38c68353a4",8,"Highlight vs normal D","JURY","TRIAL","Study1","S","JOL_H",3132,100,6805,"Judge",0,0
"5e9084139da60e38c68353a4",8,"Highlight vs normal D","LATCH","KEY","Study1","F","JOL",3173,20,3117,"Key",100,100
"5e9084139da60e38c68353a4",8,"Highlight vs normal D","LION","ART","Study1","U","JOL",3007,10,4727,"Art ",100,100
"5e9084139da60e38c68353a4",8,"Highlight vs normal D","LIVER","KIDNEY","Study1","S","JOL",4717,75,4194,"Kidney",100,100
"5e9084139da60e38c68353a4",8,"Highlight vs normal D","MONEY","WAGE","Study1","B","JOL",4452,75,3716,"Credit",20,0
"5e9084139da60e38c68353a4",8,"Highlight vs normal D","NEWS","EDITOR","Study1","B","JOL",3229,75,3397,"Editor",100,100
"5e9084139da60e38c68353a4",8,"Highlight vs normal D","OUT","WAY","Study1","B","JOL_H",3778,75,5162,"Away",85.714285714286,100
"5e9084139da60e38c68353a4",8,"Highlight vs normal D","PILOT","PLANE","Study1","F","JOL_H",3322,80,4472,"Aircraft ",15.384615384615,0
"5e9084139da60e38c68353a4",8,"Highlight vs normal D","PLANT","ROOT","Study1","B","JOL_H",3598,60,6233,"Root",100,100
"5e9084139da60e38c68353a4",8,"Highlight vs normal D","POSITION","MACHINE","Study1","U","JOL_H",4043,0,4335,"Top",0,0
"5e9084139da60e38c68353a4",8,"Highlight vs normal D","RACKET","BALL","Study1","F","JOL_H",3837,38,4295,"Ball",100,100
"5e9084139da60e38c68353a4",8,"Highlight vs normal D","RIDDLE","SUGAR","Study1","U","JOL",3051,0,4277,"Joke",0,0
"5e9084139da60e38c68353a4",8,"Highlight vs normal D","ROCK","GEOLOGY","Study1","B","JOL",4968,50,3536,"Climb",16.666666666667,0
"5e9084139da60e38c68353a4",8,"Highlight vs normal D","ROUND","CIRCLE","Study1","S","JOL_H",4240,100,3721,"Circle",100,100
"5e9084139da60e38c68353a4",8,"Highlight vs normal D","SACKING","DIETARY","Study1","U","JOL_H",3591,0,4920,"Fired",33.333333333333,0
"5e9084139da60e38c68353a4",8,"Highlight vs normal D","SALAD","LETTUCE","Study1","S","JOL",4196,70,4158,"Lettuce",100,100
"5e9084139da60e38c68353a4",8,"Highlight vs normal D","SEIZE","TAKE","Study1","F","JOL",4453,50,3474,"Steal",44.444444444444,0
"5e9084139da60e38c68353a4",8,"Highlight vs normal D","SICK","HIDE","Study1","U","JOL_H",2889,0,4773,"Avoid",44.444444444444,0
"5e9084139da60e38c68353a4",8,"Highlight vs normal D","SIGHT","DEBATE","Study1","U","JOL_H",6830,30,4064,"Sound",18.181818181818,0
"5e9084139da60e38c68353a4",8,"Highlight vs normal D","SIP","DRINK","Study1","F","JOL_H",3679,100,3624,"Drink",100,100
"5e9084139da60e38c68353a4",8,"Highlight vs normal D","SITE","LOCATION","Study1","S","JOL_H",3393,80,5290,"Location ",100,100
"5e9084139da60e38c68353a4",8,"Highlight vs normal D","SODA","POP","Study1","S","JOL_H",4343,90,3072,"Pop",100,100
"5e9084139da60e38c68353a4",8,"Highlight vs normal D","STENCH","SMELL","Study1","F","JOL_H",3314,75,4329,"Odour ",0,0
"5e9084139da60e38c68353a4",8,"Highlight vs normal D","STING","HORNET","Study1","B","JOL",4482,0,3849,"Hornett",92.307692307692,100
"5e9084139da60e38c68353a4",8,"Highlight vs normal D","STOMACH","DIGESTION","Study1","B","JOL",4878,80,6758,"Digestion ",100,100
"5e9084139da60e38c68353a4",8,"Highlight vs normal D","TALK","DISCUSSION","Study1","B","JOL_H",3223,100,9490,"Iisten",37.5,0
"5e9084139da60e38c68353a4",8,"Highlight vs normal D","TOILET","BATHROOM","Study1","S","JOL",3375,100,6266,"Break",30.769230769231,0
"5e9084139da60e38c68353a4",8,"Highlight vs normal D","TUCK","ALLOW","Study1","U","JOL_H",4325,0,2897,"Away",44.444444444444,0
"5e9084139da60e38c68353a4",8,"Highlight vs normal D","VASE","KING","Study1","U","JOL",3778,0,5956,"King ",100,100
"5e9084139da60e38c68353a4",8,"Highlight vs normal D","WAR","REVOLUTION","Study1","B","JOL",3562,65,3600,"Peace",13.333333333333,0
"5e9084139da60e38c68353a4",8,"Highlight vs normal D","WASP","BUG","Study1","F","JOL_H",3701,100,3474,"Sting",25,0
"5e9084139da60e38c68353a4",8,"Highlight vs normal D","WASTE","DUMP","Study1","S","JOL_H",4542,100,8808,"Dump",100,100
"5e9084139da60e38c68353a4",8,"Highlight vs normal D","WATER","BRIDGE","Study1","B","JOL_H",3993,90,5033,"Drink",36.363636363636,0
"5e9084139da60e38c68353a4",8,"Highlight vs normal D","WIND","BLOW","Study1","S","JOL",7825,95,3213,"Blow",100,100
"5e9084139da60e38c68353a4",8,"Highlight vs normal D","WOMAN","LIFT","Study1","U","JOL",3530,40,5672,"Lift",100,100
"5e9084139da60e38c68353a4",8,"Highlight vs normal D","WORD","SENTENCE","Study1","F","JOL",6464,40,6444,"Language",25,0
"5e9084139da60e38c68353a4",8,"Highlight vs normal D","WOULD","CASH","Study1","U","JOL",7239,30,3284,"Not",0,0
"w968356_cj",5,"Highlight vs normal A","ADJOURN","END","Study2","F","JOL_H",2929,87,1744,"end",100,100
"w968356_cj",5,"Highlight vs normal A","AFFECTION","LOVE","Study2","F","JOL_H",1365,98,7459,"love",100,100
"w968356_cj",5,"Highlight vs normal A","ALONE","LONELY","Study2","S","JOL_H",1523,98,2242,"with me",15.384615384615,0
"w968356_cj",5,"Highlight vs normal A","BAD","VILLAIN","Study2","B","JOL_H",2744,56,2272,"romance",28.571428571429,0
"w968356_cj",5,"Highlight vs normal A","BASEBALL","LEAGUE","Study2","B","JOL",1861,87,1533,"game",40,0
"w968356_cj",5,"Highlight vs normal A","BEST","FAVORITE","Study2","B","JOL_H",2164,67,2397,"friend ",57.142857142857,0
"w968356_cj",5,"Highlight vs normal A","BIRD","PENGUIN","Study2","B","JOL",2934,87,1552,"chest",16.666666666667,0
"w968356_cj",5,"Highlight vs normal A","BOTH","OUNCE","Study2","U","JOL",5447,45,2273,"together",30.769230769231,0
"w968356_cj",5,"Highlight vs normal A","CACTUS","PLANT","Study2","F","JOL",3496,45,1452,"plant",100,100
"w968356_cj",5,"Highlight vs normal A","CAKE","CLOTHES","Study2","U","JOL_H",3231,45,1633,"batter",30.769230769231,0
"w968356_cj",5,"Highlight vs normal A","CANDLE","WAX","Study2","S","JOL",1144,5,1407,"light",0,0
"w968356_cj",5,"Highlight vs normal A","CAR","WINDSHIELD","Study2","B","JOL",2289,87,1849,"lot",15.384615384615,0
"w968356_cj",5,"Highlight vs normal A","CAT","PANTHER","Study2","B","JOL_H",1920,87,2611,"delta",16.666666666667,0
"w968356_cj",5,"Highlight vs normal A","CHERRY","RED","Study2","F","JOL",1227,56,1704,"bomb",0,0
"w968356_cj",5,"Highlight vs normal A","CHILL","COLD","Study2","F","JOL_H",2449,46,2003,"hot",28.571428571429,0
"w968356_cj",5,"Highlight vs normal A","CHOP","CUT","Study2","F","JOL_H",1397,87,18256,"cut",100,100
"w968356_cj",5,"Highlight vs normal A","CLUE","GAME","Study2","F","JOL",1451,6,7842,"game",100,100
"w968356_cj",5,"Highlight vs normal A","CRACKLE","ABLE","Study2","U","JOL_H",2428,56,5646,"barrel",40,0
"w968356_cj",5,"Highlight vs normal A","DEAD","COFFIN","Study2","B","JOL_H",7981,45,22677,"away",0,0
"w968356_cj",5,"Highlight vs normal A","DETECTIVE","MYSTERY","Study2","F","JOL",1301,7,2851,"police",15.384615384615,0
"w968356_cj",5,"Highlight vs normal A","DINE","EAT","Study2","F","JOL_H",2636,87,1445,"in",0,0
"w968356_cj",5,"Highlight vs normal A","DOCUMENT","PAPER","Study2","F","JOL",1436,98,4404,"paper",100,100
"w968356_cj",5,"Highlight vs normal A","DRIVER","CAR","Study2","F","JOL",2946,45,2253,"car",100,100
"w968356_cj",5,"Highlight vs normal A","DRY","WET","Study2","S","JOL",5341,65,1635,"fit",33.333333333333,0
"w968356_cj",5,"Highlight vs normal A","EARTH","GROUND","Study2","S","JOL_H",3834,79,4058,"ground",100,100
"w968356_cj",5,"Highlight vs normal A","ELEMENT","CARBON","Study2","S","JOL",1549,87,1669,"plany",36.363636363636,0
"w968356_cj",5,"Highlight vs normal A","EVEN","REVENGE","Study2","B","JOL_H",3144,68,7155,"better",30.769230769231,0
"w968356_cj",5,"Highlight vs normal A","EXTENSION","LONG","Study2","F","JOL_H",1226,56,3772,"cord",25,0
"w968356_cj",5,"Highlight vs normal A","FEUD","FIGHT","Study2","F","JOL_H",9935,98,1592,"famiyl",36.363636363636,0
"w968356_cj",5,"Highlight vs normal A","FIGHT","BRAWL","Study2","B","JOL",3051,78,2379,"brutal",72.727272727273,0
"w968356_cj",5,"Highlight vs normal A","FISH","SARDINE","Study2","B","JOL_H",1528,87,1571,"tuna",18.181818181818,0
"w968356_cj",5,"Highlight vs normal A","FLEA","TICK","Study2","S","JOL",2099,78,1770,"tick",100,100
"w968356_cj",5,"Highlight vs normal A","FRUIT","STRAWBERRY","Study2","B","JOL_H",1188,56,3106,"tray",57.142857142857,0
"w968356_cj",5,"Highlight vs normal A","FURRY","DOG","Study2","F","JOL_H",1328,98,1709,"plant",0,0
"w968356_cj",5,"Highlight vs normal A","FUZZY","BANG","Study2","U","JOL",5466,89,4295,"ball",50,0
"w968356_cj",5,"Highlight vs normal A","GIVE","STEAK","Study2","U","JOL",3385,87,1481,"back",44.444444444444,0
"w968356_cj",5,"Highlight vs normal A","GLASS","BREAKABLE","Study2","B","JOL",5313,56,1587,"makler",53.333333333333,0
"w968356_cj",5,"Highlight vs normal A","GONE","AWAY","Study2","S","JOL_H",30570,56,1728,"away",100,100
"w968356_cj",5,"Highlight vs normal A","HONEST","TRUTHFUL","Study2","B","JOL_H",1180,98,1654,"truth",76.923076923077,0
"w968356_cj",5,"Highlight vs normal A","INCENSE","SMELL","Study2","F","JOL_H",2416,67,2304,"smell",100,100
"w968356_cj",5,"Highlight vs normal A","JUSTICE","MAROON","Study2","U","JOL",1211,56,2508,"peace",18.181818181818,0
"w968356_cj",5,"Highlight vs normal A","KEYS","JOKE","Study2","U","JOL_H",1123,67,12061,"fob",28.571428571429,0
"w968356_cj",5,"Highlight vs normal A","LEASE","TOIL","Study2","U","JOL_H",9251,56,3771,"agreement",15.384615384615,0
"w968356_cj",5,"Highlight vs normal A","LISTEN","FICTION","Study2","U","JOL_H",1852,78,1803,"closely",28.571428571429,0
"w968356_cj",5,"Highlight vs normal A","LITTER","TRASH","Study2","F","JOL",5177,67,1603,"box",0,0
"w968356_cj",5,"Highlight vs normal A","LOAN","SIGN","Study2","U","JOL",3777,45,1814,"loan",25,0
"w968356_cj",5,"Highlight vs normal A","LOUD","NOISE","Study2","S","JOL",1136,67,1717,"silent",36.363636363636,0
"w968356_cj",5,"Highlight vs normal A","MAIN","SCAR","Study2","U","JOL",1289,98,1999,"street",40,0
"w968356_cj",5,"Highlight vs normal A","MASON","JAR","Study2","S","JOL_H",7236,67,1578,"jar",100,100
"w968356_cj",5,"Highlight vs normal A","MAZE","ELECTION","Study2","U","JOL",1157,77,38310,"runner",14.285714285714,0
"w968356_cj",5,"Highlight vs normal A","MEAT","OBTAIN","Study2","U","JOL",1634,87,2475,"loaf",40,0
"w968356_cj",5,"Highlight vs normal A","MIRROR","CHILDREN","Study2","U","JOL",7007,67,1663,"wall",16.666666666667,0
"w968356_cj",5,"Highlight vs normal A","MOAT","CLEAR","Study2","U","JOL_H",2093,56,57706,"trigger",16.666666666667,0
"w968356_cj",5,"Highlight vs normal A","MONEY","BANKER","Study2","B","JOL_H",1359,67,4018,"heist",18.181818181818,0
"w968356_cj",5,"Highlight vs normal A","MULE","DONKEY","Study2","F","JOL_H",5229,87,3162,"donkey",100,100
"w968356_cj",5,"Highlight vs normal A","NAME","HATE","Study2","U","JOL_H",1285,87,2261,"badge",44.444444444444,0
"w968356_cj",5,"Highlight vs normal A","OWN","HAVE","Study2","S","JOL",3161,56,1575,"tv",33.333333333333,0
"w968356_cj",5,"Highlight vs normal A","PHONE","COMMUNICATION","Study2","S","JOL_H",1344,77,1436,"call",23.529411764706,0
"w968356_cj",5,"Highlight vs normal A","PLANE","AIRCRAFT","Study2","B","JOL",2556,89,2601,"aircrafy",87.5,100
"w968356_cj",5,"Highlight vs normal A","POP","BALLOON","Study2","B","JOL_H",1755,87,2554,"for pimp",13.333333333333,0
"w968356_cj",5,"Highlight vs normal A","RAZOR","SHAVE","Study2","S","JOL",3388,67,25357,"blade",40,0
"w968356_cj",5,"Highlight vs normal A","RIGHTS","EQUAL","Study2","S","JOL",5271,88,7893,"own",0,0
"w968356_cj",5,"Highlight vs normal A","ROD","REEL","Study2","S","JOL",1392,87,12423,"shower",20,0
"w968356_cj",5,"Highlight vs normal A","SAFETY","SEATBELT","Study2","S","JOL",2594,56,5375,"first",30.769230769231,0
"w968356_cj",5,"Highlight vs normal A","SCALP","HEAD","Study2","F","JOL_H",3341,79,2120,"head",100,100
"w968356_cj",5,"Highlight vs normal A","SHEARS","SCISSORS","Study2","F","JOL",2172,56,2555,"cut",18.181818181818,0
"w968356_cj",5,"Highlight vs normal A","SHELL","SHAKE","Study2","U","JOL",1049,45,6959,"fish",44.444444444444,0
"w968356_cj",5,"Highlight vs normal A","SHOELACE","TIE","Study2","F","JOL_H",4364,5,1784,"tie",100,100
"w968356_cj",5,"Highlight vs normal A","SLEEP","NAP","Study2","B","JOL",2734,78,1803,"tight",0,0
"w968356_cj",5,"Highlight vs normal A","STAR","ACTRESS","Study2","B","JOL",11335,67,2396,"fish",18.181818181818,0
"w968356_cj",5,"Highlight vs normal A","STRETCH","CLOTH","Study2","U","JOL",1256,77,2538,"finish ",18.181818181818,0
"w968356_cj",5,"Highlight vs normal A","SUN","TAN","Study2","S","JOL_H",1480,87,1533,"kiss",0,0
"w968356_cj",5,"Highlight vs normal A","TANTRUM","TEMPER","Study2","S","JOL_H",6647,57,1289,"fit",22.222222222222,0
"w968356_cj",5,"Highlight vs normal A","TEMPERATURE","MORNING","Study2","U","JOL",7491,45,1555,"rising",61.538461538462,0
"w968356_cj",5,"Highlight vs normal A","THREAD","THIMBLE","Study2","B","JOL_H",1464,98,2523,"finish",15.384615384615,0
"w968356_cj",5,"Highlight vs normal A","TRUTH","LIE","Study2","S","JOL",2869,56,1216,"lie",100,100
"w968356_cj",5,"Highlight vs normal A","TURN","FLIP","Study2","B","JOL_H",1624,87,1389,"around",0,0
"w968356_cj",5,"Highlight vs normal A","VEHICLE","CHARM","Study2","U","JOL_H",2379,78,1860,"car",75,0
"w968356_cj",5,"Highlight vs normal A","WATER","DRINK","Study2","S","JOL_H",2619,68,2717,"tank",44.444444444444,0
"w968356_cj",5,"Highlight vs normal A","WRIST","BRACELET","Study2","S","JOL",2544,98,1501,"broke",46.153846153846,0
"5ea4409abe6bbd2724455893",6,"Highlight vs normal B","ADJOURN","END","Study2","F","JOL_H",2928,99,10745,"",0,0
"5ea4409abe6bbd2724455893",6,"Highlight vs normal B","AFFECTION","LOVE","Study2","F","JOL",3519,99,7632,"love",100,100
"5ea4409abe6bbd2724455893",6,"Highlight vs normal B","ALONE","LONELY","Study2","S","JOL_H",4211,88,7092,"together",28.571428571429,0
"5ea4409abe6bbd2724455893",6,"Highlight vs normal B","BAD","VILLAIN","Study2","B","JOL_H",5946,80,3575,"good",0,0
"5ea4409abe6bbd2724455893",6,"Highlight vs normal B","BASEBALL","LEAGUE","Study2","B","JOL",5719,26,8122,"bat",22.222222222222,0
"5ea4409abe6bbd2724455893",6,"Highlight vs normal B","BEST","FAVORITE","Study2","B","JOL",4023,32,10014,"bad",18.181818181818,0
"5ea4409abe6bbd2724455893",6,"Highlight vs normal B","BIRD","PENGUIN","Study2","B","JOL",5872,75,4249,"watch",0,0
"5ea4409abe6bbd2724455893",6,"Highlight vs normal B","BOTH","OUNCE","Study2","U","JOL_H",4941,10,16441,"",0,0
"5ea4409abe6bbd2724455893",6,"Highlight vs normal B","CACTUS","PLANT","Study2","F","JOL_H",9127,6,4106,"plant",100,100
"5ea4409abe6bbd2724455893",6,"Highlight vs normal B","CAKE","CLOTHES","Study2","U","JOL_H",2888,88,10337,"chocolate",37.5,0
"5ea4409abe6bbd2724455893",6,"Highlight vs normal B","CANDLE","WAX","Study2","S","JOL",4977,12,3523,"wax",100,100
"5ea4409abe6bbd2724455893",6,"Highlight vs normal B","CAR","WINDSHIELD","Study2","B","JOL",9199,15,4998,"",0,0
"5ea4409abe6bbd2724455893",6,"Highlight vs normal B","CAT","PANTHER","Study2","B","JOL",7699,63,5372,"dog",0,0
"5ea4409abe6bbd2724455893",6,"Highlight vs normal B","CHERRY","RED","Study2","F","JOL",4659,45,4062,"red",100,100
"5ea4409abe6bbd2724455893",6,"Highlight vs normal B","CHILL","COLD","Study2","F","JOL",3821,90,4135,"cold",100,100
"5ea4409abe6bbd2724455893",6,"Highlight vs normal B","CHOP","CUT","Study2","F","JOL",3974,78,20936,"soy",0,0
"5ea4409abe6bbd2724455893",6,"Highlight vs normal B","CLUE","GAME","Study2","F","JOL_H",3016,66,1693,"",0,0
"5ea4409abe6bbd2724455893",6,"Highlight vs normal B","CRACKLE","ABLE","Study2","U","JOL_H",8012,21,4195,"pop",0,0
"5ea4409abe6bbd2724455893",6,"Highlight vs normal B","DEAD","COFFIN","Study2","B","JOL_H",3606,45,4943,"alive",18.181818181818,0
"5ea4409abe6bbd2724455893",6,"Highlight vs normal B","DETECTIVE","MYSTERY","Study2","F","JOL_H",6028,44,9267,"Sargent",28.571428571429,0
"5ea4409abe6bbd2724455893",6,"Highlight vs normal B","DINE","EAT","Study2","F","JOL_H",3456,88,6511,"eat",100,100
"5ea4409abe6bbd2724455893",6,"Highlight vs normal B","DOCUMENT","PAPER","Study2","F","JOL",3041,77,7061,"paper",100,100
"5ea4409abe6bbd2724455893",6,"Highlight vs normal B","DRIVER","CAR","Study2","F","JOL_H",5463,98,3728,"car",100,100
"5ea4409abe6bbd2724455893",6,"Highlight vs normal B","DRY","WET","Study2","S","JOL_H",5239,87,6354,"ice",33.333333333333,0
"5ea4409abe6bbd2724455893",6,"Highlight vs normal B","EARTH","GROUND","Study2","S","JOL",6089,57,4605,"ground",100,100
"5ea4409abe6bbd2724455893",6,"Highlight vs normal B","ELEMENT","CARBON","Study2","S","JOL_H",3755,15,11274,"ground",50,0
"5ea4409abe6bbd2724455893",6,"Highlight vs normal B","EVEN","REVENGE","Study2","B","JOL_H",5246,89,7266,"odd",0,0
"5ea4409abe6bbd2724455893",6,"Highlight vs normal B","EXTENSION","LONG","Study2","F","JOL",3402,77,7318,"floor",44.444444444444,0
"5ea4409abe6bbd2724455893",6,"Highlight vs normal B","FEUD","FIGHT","Study2","F","JOL",3961,55,11767,"argue",20,0
"5ea4409abe6bbd2724455893",6,"Highlight vs normal B","FIGHT","BRAWL","Study2","B","JOL",5962,56,6171,"fued",0,0
"5ea4409abe6bbd2724455893",6,"Highlight vs normal B","FISH","SARDINE","Study2","B","JOL_H",4470,21,6357,"shrimp",46.153846153846,0
"5ea4409abe6bbd2724455893",6,"Highlight vs normal B","FLEA","TICK","Study2","S","JOL",6524,49,6664,"market",20,0
"5ea4409abe6bbd2724455893",6,"Highlight vs normal B","FRUIT","STRAWBERRY","Study2","B","JOL",4380,89,11434,"cherry",50,0
"5ea4409abe6bbd2724455893",6,"Highlight vs normal B","FURRY","DOG","Study2","F","JOL",4200,99,8471,"",0,0
"5ea4409abe6bbd2724455893",6,"Highlight vs normal B","FUZZY","BANG","Study2","U","JOL_H",4292,33,12373,"straight",33.333333333333,0
"5ea4409abe6bbd2724455893",6,"Highlight vs normal B","GIVE","STEAK","Study2","U","JOL_H",4738,36,4785,"take",66.666666666667,100
"5ea4409abe6bbd2724455893",6,"Highlight vs normal B","GLASS","BREAKABLE","Study2","B","JOL",6112,16,5472,"",0,0
"5ea4409abe6bbd2724455893",6,"Highlight vs normal B","GONE","AWAY","Study2","S","JOL_H",5625,75,6051,"away",100,100
"5ea4409abe6bbd2724455893",6,"Highlight vs normal B","HONEST","TRUTHFUL","Study2","B","JOL_H",4179,90,8566,"",0,0
"5ea4409abe6bbd2724455893",6,"Highlight vs normal B","INCENSE","SMELL","Study2","F","JOL",5644,67,13405,"candle",18.181818181818,0
"5ea4409abe6bbd2724455893",6,"Highlight vs normal B","JUSTICE","MAROON","Study2","U","JOL",4365,10,7130,"peace",18.181818181818,0
"5ea4409abe6bbd2724455893",6,"Highlight vs normal B","KEYS","JOKE","Study2","U","JOL_H",4238,55,6294,"door",25,0
"5ea4409abe6bbd2724455893",6,"Highlight vs normal B","LEASE","TOIL","Study2","U","JOL_H",4483,11,7009,"loan",25,0
"5ea4409abe6bbd2724455893",6,"Highlight vs normal B","LISTEN","FICTION","Study2","U","JOL",9034,31,10052,"",0,0
"5ea4409abe6bbd2724455893",6,"Highlight vs normal B","LITTER","TRASH","Study2","F","JOL_H",5217,23,5874,"bug",0,0
"5ea4409abe6bbd2724455893",6,"Highlight vs normal B","LOAN","SIGN","Study2","U","JOL_H",6349,76,5257,"shark",22.222222222222,0
"5ea4409abe6bbd2724455893",6,"Highlight vs normal B","LOUD","NOISE","Study2","S","JOL",5068,66,5907,"",0,0
"5ea4409abe6bbd2724455893",6,"Highlight vs normal B","MAIN","SCAR","Study2","U","JOL",3802,23,2107,"",0,0
"5ea4409abe6bbd2724455893",6,"Highlight vs normal B","MASON","JAR","Study2","S","JOL",3274,25,2916,"",0,0
"5ea4409abe6bbd2724455893",6,"Highlight vs normal B","MAZE","ELECTION","Study2","U","JOL",6670,85,5878,"",0,0
"5ea4409abe6bbd2724455893",6,"Highlight vs normal B","MEAT","OBTAIN","Study2","U","JOL",4898,5,9875,"chop",20,0
"5ea4409abe6bbd2724455893",6,"Highlight vs normal B","MIRROR","CHILDREN","Study2","U","JOL",5373,85,8727,"door",33.333333333333,0
"5ea4409abe6bbd2724455893",6,"Highlight vs normal B","MOAT","CLEAR","Study2","U","JOL",8506,23,4922,"boat",22.222222222222,0
"5ea4409abe6bbd2724455893",6,"Highlight vs normal B","MONEY","BANKER","Study2","B","JOL",5610,68,16445,"value",36.363636363636,0
"5ea4409abe6bbd2724455893",6,"Highlight vs normal B","MULE","DONKEY","Study2","F","JOL_H",7162,34,4390,"donkey",100,100
"5ea4409abe6bbd2724455893",6,"Highlight vs normal B","NAME","HATE","Study2","U","JOL",5495,88,15046,"",0,0
"5ea4409abe6bbd2724455893",6,"Highlight vs normal B","OWN","HAVE","Study2","S","JOL_H",3202,34,11076,"bought",20,0
"5ea4409abe6bbd2724455893",6,"Highlight vs normal B","PHONE","COMMUNICATION","Study2","S","JOL_H",8301,16,13511,"number",10.526315789474,0
"5ea4409abe6bbd2724455893",6,"Highlight vs normal B","PLANE","AIRCRAFT","Study2","B","JOL",5562,87,7215,"areoplane",35.294117647059,0
"5ea4409abe6bbd2724455893",6,"Highlight vs normal B","POP","BALLOON","Study2","B","JOL",3225,44,5889,"star",18.181818181818,0
"5ea4409abe6bbd2724455893",6,"Highlight vs normal B","RAZOR","SHAVE","Study2","S","JOL_H",3219,66,7369,"sharp",60,0
"5ea4409abe6bbd2724455893",6,"Highlight vs normal B","RIGHTS","EQUAL","Study2","S","JOL_H",7385,17,12437,"",0,0
"5ea4409abe6bbd2724455893",6,"Highlight vs normal B","ROD","REEL","Study2","S","JOL_H",4915,21,13664,"",0,0
"5ea4409abe6bbd2724455893",6,"Highlight vs normal B","SAFETY","SEATBELT","Study2","S","JOL_H",6677,65,5287,"lock",16.666666666667,0
"5ea4409abe6bbd2724455893",6,"Highlight vs normal B","SCALP","HEAD","Study2","F","JOL_H",5956,45,5960,"head",100,100
"5ea4409abe6bbd2724455893",6,"Highlight vs normal B","SHEARS","SCISSORS","Study2","F","JOL",6293,73,7199,"scissors",100,100
"5ea4409abe6bbd2724455893",6,"Highlight vs normal B","SHELL","SHAKE","Study2","U","JOL_H",5234,77,11410,"fish",44.444444444444,0
"5ea4409abe6bbd2724455893",6,"Highlight vs normal B","SHOELACE","TIE","Study2","F","JOL_H",3667,87,4752,"tie",100,100
"5ea4409abe6bbd2724455893",6,"Highlight vs normal B","SLEEP","NAP","Study2","B","JOL",5201,43,11984,"over",0,0
"5ea4409abe6bbd2724455893",6,"Highlight vs normal B","STAR","ACTRESS","Study2","B","JOL_H",5035,75,13151,"fish",18.181818181818,0
"5ea4409abe6bbd2724455893",6,"Highlight vs normal B","STRETCH","CLOTH","Study2","U","JOL",5743,41,2109,"",0,0
"5ea4409abe6bbd2724455893",6,"Highlight vs normal B","SUN","TAN","Study2","S","JOL_H",5925,23,3989,"tan",100,100
"5ea4409abe6bbd2724455893",6,"Highlight vs normal B","TANTRUM","TEMPER","Study2","S","JOL_H",5994,25,19787,"temper",100,100
"5ea4409abe6bbd2724455893",6,"Highlight vs normal B","TEMPERATURE","MORNING","Study2","U","JOL",6149,14,9588,"cool",18.181818181818,0
"5ea4409abe6bbd2724455893",6,"Highlight vs normal B","THREAD","THIMBLE","Study2","B","JOL",5527,22,12442,"thimble",100,100
"5ea4409abe6bbd2724455893",6,"Highlight vs normal B","TRUTH","LIE","Study2","S","JOL_H",7368,44,3367,"liar",57.142857142857,0
"5ea4409abe6bbd2724455893",6,"Highlight vs normal B","TURN","FLIP","Study2","B","JOL",5597,15,5163,"up",33.333333333333,0
"5ea4409abe6bbd2724455893",6,"Highlight vs normal B","VEHICLE","CHARM","Study2","U","JOL",3669,12,8848,"",0,0
"5ea4409abe6bbd2724455893",6,"Highlight vs normal B","WATER","DRINK","Study2","S","JOL_H",6371,43,14212,"fall",0,0
"5ea4409abe6bbd2724455893",6,"Highlight vs normal B","WRIST","BRACELET","Study2","S","JOL_H",3293,44,4053,"band",33.333333333333,0
"5ed5230c05bbbb07f62be62b",7,"Highlight vs normal C","ABLE","CRACKLE","Study2","U","JOL",2620,1,7094,"person",15.384615384615,0
"5ed5230c05bbbb07f62be62b",7,"Highlight vs normal C","ACTRESS","STAR","Study2","F","JOL",1606,80,1623,"star",100,100
"5ed5230c05bbbb07f62be62b",7,"Highlight vs normal C","AIRCRAFT","PLANE","Study2","F","JOL_H",1300,70,1891,"plane",100,100
"5ed5230c05bbbb07f62be62b",7,"Highlight vs normal C","AWAY","GONE","Study2","S","JOL",2515,40,4186,"near",50,0
"5ed5230c05bbbb07f62be62b",7,"Highlight vs normal C","BALLOON","POP","Study2","F","JOL_H",1262,20,1575,"pop",100,100
"5ed5230c05bbbb07f62be62b",7,"Highlight vs normal C","BANG","FUZZY","Study2","U","JOL_H",1906,30,3919,"loud",22.222222222222,0
"5ed5230c05bbbb07f62be62b",7,"Highlight vs normal C","BANKER","MONEY","Study2","F","JOL_H",1670,80,2803,"money",100,100
"5ed5230c05bbbb07f62be62b",7,"Highlight vs normal C","BRACELET","WRIST","Study2","S","JOL",1676,60,1664,"wrist",100,100
"5ed5230c05bbbb07f62be62b",7,"Highlight vs normal C","BRAWL","FIGHT","Study2","F","JOL_H",1258,20,2264,"crawl",0,0
"5ed5230c05bbbb07f62be62b",7,"Highlight vs normal C","BREAKABLE","GLASS","Study2","F","JOL",1837,50,2086,"glass",100,100
"5ed5230c05bbbb07f62be62b",7,"Highlight vs normal C","CAR","DRIVER","Study2","B","JOL_H",1557,70,4332,"vehicle",30.769230769231,0
"5ed5230c05bbbb07f62be62b",7,"Highlight vs normal C","CARBON","ELEMENT","Study2","S","JOL",2208,60,1976,"element",100,100
"5ed5230c05bbbb07f62be62b",7,"Highlight vs normal C","CHARM","VEHICLE","Study2","U","JOL",1781,10,8723,"cold",36.363636363636,0
"5ed5230c05bbbb07f62be62b",7,"Highlight vs normal C","CHILDREN","MIRROR","Study2","U","JOL_H",2338,10,2291,"young",18.181818181818,0
"5ed5230c05bbbb07f62be62b",7,"Highlight vs normal C","CLEAR","MOAT","Study2","U","JOL",2107,1,2967,"unclear",18.181818181818,0
"5ed5230c05bbbb07f62be62b",7,"Highlight vs normal C","CLOTH","STRETCH","Study2","U","JOL_H",2247,40,2918,"clothes",28.571428571429,0
"5ed5230c05bbbb07f62be62b",7,"Highlight vs normal C","CLOTHES","CAKE","Study2","U","JOL",1631,10,3807,"bought",0,0
"5ed5230c05bbbb07f62be62b",7,"Highlight vs normal C","COFFIN","DEAD","Study2","F","JOL_H",2656,70,1803,"dead",100,100
"5ed5230c05bbbb07f62be62b",7,"Highlight vs normal C","COLD","CHILL","Study2","B","JOL_H",1803,60,2964,"wet",0,0
"5ed5230c05bbbb07f62be62b",7,"Highlight vs normal C","COMMUNICATION","PHONE","Study2","S","JOL_H",2763,70,3956,"words",20,0
"5ed5230c05bbbb07f62be62b",7,"Highlight vs normal C","CUT","CHOP","Study2","B","JOL_H",3063,50,4560,"clean",22.222222222222,0
"5ed5230c05bbbb07f62be62b",7,"Highlight vs normal C","DOG","FURRY","Study2","B","JOL",2472,80,1400,"cat",0,0
"5ed5230c05bbbb07f62be62b",7,"Highlight vs normal C","DONKEY","MULE","Study2","B","JOL_H",1891,70,2176,"mule",100,100
"5ed5230c05bbbb07f62be62b",7,"Highlight vs normal C","DRINK","WATER","Study2","S","JOL",1540,80,1556,"water",100,100
"5ed5230c05bbbb07f62be62b",7,"Highlight vs normal C","EAT","DINE","Study2","B","JOL_H",1542,30,1927,"food",25,0
"5ed5230c05bbbb07f62be62b",7,"Highlight vs normal C","ELECTION","MAZE","Study2","U","JOL_H",2036,10,2203,"maze",100,100
"5ed5230c05bbbb07f62be62b",7,"Highlight vs normal C","END","ADJOURN","Study2","B","JOL_H",2080,1,2488,"begin",16.666666666667,0
"5ed5230c05bbbb07f62be62b",7,"Highlight vs normal C","EQUAL","RIGHTS","Study2","S","JOL",1518,70,1627,"rights",100,100
"5ed5230c05bbbb07f62be62b",7,"Highlight vs normal C","FAVORITE","BEST","Study2","F","JOL_H",2609,60,3032,"love",25,0
"5ed5230c05bbbb07f62be62b",7,"Highlight vs normal C","FICTION","LISTEN","Study2","U","JOL_H",2075,40,1556,"story",36.363636363636,0
"5ed5230c05bbbb07f62be62b",7,"Highlight vs normal C","FIGHT","FEUD","Study2","B","JOL_H",2096,80,2760,"win",0,0
"5ed5230c05bbbb07f62be62b",7,"Highlight vs normal C","FLIP","TURN","Study2","F","JOL",3522,10,4443,"tuck",50,0
"5ed5230c05bbbb07f62be62b",7,"Highlight vs normal C","GAME","CLUE","Study2","B","JOL_H",1939,40,2557,"clue",100,100
"5ed5230c05bbbb07f62be62b",7,"Highlight vs normal C","GROUND","EARTH","Study2","S","JOL",2097,70,3479,"earth",100,100
"5ed5230c05bbbb07f62be62b",7,"Highlight vs normal C","HATE","NAME","Study2","U","JOL",2764,10,3591,"love",25,0
"5ed5230c05bbbb07f62be62b",7,"Highlight vs normal C","HAVE","OWN","Study2","S","JOL",2512,50,3526,"hold",28.571428571429,0
"5ed5230c05bbbb07f62be62b",7,"Highlight vs normal C","HEAD","SCALP","Study2","B","JOL_H",1395,80,2336,"scalp",100,100
"5ed5230c05bbbb07f62be62b",7,"Highlight vs normal C","JAR","MASON","Study2","S","JOL",1868,20,4073,"glass",40,0
"5ed5230c05bbbb07f62be62b",7,"Highlight vs normal C","JOKE","KEYS","Study2","U","JOL",1667,10,3248,"funny",22.222222222222,0
"5ed5230c05bbbb07f62be62b",7,"Highlight vs normal C","LEAGUE","BASEBALL","Study2","F","JOL_H",1778,30,2149,"win",0,0
"5ed5230c05bbbb07f62be62b",7,"Highlight vs normal C","LIE","TRUTH","Study2","S","JOL",2242,70,2041,"truth",100,100
"5ed5230c05bbbb07f62be62b",7,"Highlight vs normal C","LONELY","ALONE","Study2","S","JOL",1716,70,2692,"alone",100,100
"5ed5230c05bbbb07f62be62b",7,"Highlight vs normal C","LONG","EXTENSION","Study2","B","JOL_H",1937,70,1384,"short",28.571428571429,0
"5ed5230c05bbbb07f62be62b",7,"Highlight vs normal C","LOVE","AFFECTION","Study2","B","JOL",1241,80,4232,"affection",100,100
"5ed5230c05bbbb07f62be62b",7,"Highlight vs normal C","MAROON","JUSTICE","Study2","U","JOL_H",1934,1,1982,"justice",100,100
"5ed5230c05bbbb07f62be62b",7,"Highlight vs normal C","MORNING","TEMPERATURE","Study2","U","JOL_H",2622,30,2856,"temperature",100,100
"5ed5230c05bbbb07f62be62b",7,"Highlight vs normal C","MYSTERY","DETECTIVE","Study2","B","JOL",2182,20,2639,"solve",28.571428571429,0
"5ed5230c05bbbb07f62be62b",7,"Highlight vs normal C","NAP","SLEEP","Study2","F","JOL_H",1404,80,1824,"sleep",100,100
"5ed5230c05bbbb07f62be62b",7,"Highlight vs normal C","NOISE","LOUD","Study2","S","JOL",1727,70,1567,"loud",100,100
"5ed5230c05bbbb07f62be62b",7,"Highlight vs normal C","OBTAIN","MEAT","Study2","U","JOL_H",1517,1,3327,"have",25,0
"5ed5230c05bbbb07f62be62b",7,"Highlight vs normal C","OUNCE","BOTH","Study2","U","JOL_H",5259,10,2955,"blank",22.222222222222,0
"5ed5230c05bbbb07f62be62b",7,"Highlight vs normal C","PANTHER","CAT","Study2","F","JOL_H",2039,40,1687,"cat",100,100
"5ed5230c05bbbb07f62be62b",7,"Highlight vs normal C","PAPER","DOCUMENT","Study2","B","JOL",1301,80,4158,"document",100,100
"5ed5230c05bbbb07f62be62b",7,"Highlight vs normal C","PENGUIN","BIRD","Study2","F","JOL",2022,60,2510,"bird",100,100
"5ed5230c05bbbb07f62be62b",7,"Highlight vs normal C","PLANT","CACTUS","Study2","B","JOL_H",1860,60,3594,"cactus",100,100
"5ed5230c05bbbb07f62be62b",7,"Highlight vs normal C","RED","CHERRY","Study2","B","JOL",1850,60,4153,"strawberry",50,0
"5ed5230c05bbbb07f62be62b",7,"Highlight vs normal C","REEL","ROD","Study2","S","JOL",1507,10,3872,"eek",0,0
"5ed5230c05bbbb07f62be62b",7,"Highlight vs normal C","REVENGE","EVEN","Study2","F","JOL_H",1885,30,4537,"anger",22.222222222222,0
"5ed5230c05bbbb07f62be62b",7,"Highlight vs normal C","SARDINE","FISH","Study2","F","JOL",1963,50,1455,"fish",100,100
"5ed5230c05bbbb07f62be62b",7,"Highlight vs normal C","SCAR","MAIN","Study2","U","JOL_H",2338,20,2886,"pain",75,100
"5ed5230c05bbbb07f62be62b",7,"Highlight vs normal C","SCISSORS","SHEARS","Study2","B","JOL_H",1909,10,5556,"sheld",54.545454545455,0
"5ed5230c05bbbb07f62be62b",7,"Highlight vs normal C","SEATBELT","SAFETY","Study2","S","JOL",4101,70,4368,"wear",20,0
"5ed5230c05bbbb07f62be62b",7,"Highlight vs normal C","SHAKE","SHELL","Study2","U","JOL",1847,40,3686,"shack",40,0
"5ed5230c05bbbb07f62be62b",7,"Highlight vs normal C","SHAVE","RAZOR","Study2","S","JOL",1220,80,1785,"razor",100,100
"5ed5230c05bbbb07f62be62b",7,"Highlight vs normal C","SIGN","LOAN","Study2","U","JOL",3197,10,1877,"loan",100,100
"5ed5230c05bbbb07f62be62b",7,"Highlight vs normal C","SMELL","INCENSE","Study2","B","JOL",2350,30,1844,"stench",30.769230769231,0
"5ed5230c05bbbb07f62be62b",7,"Highlight vs normal C","STEAK","GIVE","Study2","U","JOL",1747,10,1564,"dry",0,0
"5ed5230c05bbbb07f62be62b",7,"Highlight vs normal C","STRAWBERRY","FRUIT","Study2","F","JOL_H",1458,70,1677,"fruit",100,100
"5ed5230c05bbbb07f62be62b",7,"Highlight vs normal C","TAN","SUN","Study2","S","JOL",1987,70,1701,"sun",100,100
"5ed5230c05bbbb07f62be62b",7,"Highlight vs normal C","TEMPER","TANTRUM","Study2","S","JOL_H",2345,60,4489,"tantrum",100,100
"5ed5230c05bbbb07f62be62b",7,"Highlight vs normal C","THIMBLE","THREAD","Study2","F","JOL_H",3324,440,2643,"thumb",36.363636363636,0
"5ed5230c05bbbb07f62be62b",7,"Highlight vs normal C","TICK","FLEA","Study2","S","JOL",2710,30,4358,"cross",0,0
"5ed5230c05bbbb07f62be62b",7,"Highlight vs normal C","TIE","SHOELACE","Study2","B","JOL",1792,90,8711,"loose",30.769230769231,0
"5ed5230c05bbbb07f62be62b",7,"Highlight vs normal C","TOIL","LEASE","Study2","U","JOL_H",1982,10,2326,"coik",0,0
"5ed5230c05bbbb07f62be62b",7,"Highlight vs normal C","TRASH","LITTER","Study2","B","JOL",2062,50,2693,"po",0,0
"5ed5230c05bbbb07f62be62b",7,"Highlight vs normal C","TRUTHFUL","HONEST","Study2","F","JOL_H",1914,70,3976,"lie",22.222222222222,0
"5ed5230c05bbbb07f62be62b",7,"Highlight vs normal C","VILLAIN","BAD","Study2","F","JOL_H",1667,60,2819,"bad",100,100
"5ed5230c05bbbb07f62be62b",7,"Highlight vs normal C","WAX","CANDLE","Study2","S","JOL",1398,70,5487,"candle",100,100
"5ed5230c05bbbb07f62be62b",7,"Highlight vs normal C","WET","DRY","Study2","S","JOL",1927,90,4074,"dry",100,100
"5ed5230c05bbbb07f62be62b",7,"Highlight vs normal C","WINDSHIELD","CAR","Study2","F","JOL_H",1765,30,5556,"weather",40,0
"5e9084139da60e38c68353a4",8,"Highlight vs normal D","ABLE","CRACKLE","Study2","U","JOL",6150,15,5429,"Bodied",15.384615384615,0
"5e9084139da60e38c68353a4",8,"Highlight vs normal D","ACTRESS","STAR","Study2","F","JOL",9666,60,4269,"Star",100,100
"5e9084139da60e38c68353a4",8,"Highlight vs normal D","AIRCRAFT","PLANE","Study2","F","JOL",3900,70,6397,"Plane",100,100
"5e9084139da60e38c68353a4",8,"Highlight vs normal D","AWAY","GONE","Study2","S","JOL",4147,75,4645,"Gone",100,100
"5e9084139da60e38c68353a4",8,"Highlight vs normal D","BALLOON","POP","Study2","F","JOL",4432,100,7877,"Pop",100,100
"5e9084139da60e38c68353a4",8,"Highlight vs normal D","BANG","FUZZY","Study2","U","JOL",5497,10,7546,"Noise",0,0
"5e9084139da60e38c68353a4",8,"Highlight vs normal D","BANKER","MONEY","Study2","F","JOL",5483,70,4233,"Money",100,100
"5e9084139da60e38c68353a4",8,"Highlight vs normal D","BRACELET","WRIST","Study2","S","JOL_H",4671,70,3389,"Charm",20,0
"5e9084139da60e38c68353a4",8,"Highlight vs normal D","BRAWL","FIGHT","Study2","F","JOL",3687,70,4410,"Fight",100,100
"5e9084139da60e38c68353a4",8,"Highlight vs normal D","BREAKABLE","GLASS","Study2","F","JOL_H",3775,100,3438,"Glass",100,100
"5e9084139da60e38c68353a4",8,"Highlight vs normal D","CAR","DRIVER","Study2","B","JOL",3478,75,13074,"Door",40,0
"5e9084139da60e38c68353a4",8,"Highlight vs normal D","CARBON","ELEMENT","Study2","S","JOL_H",6935,100,3753,"Element",100,100
"5e9084139da60e38c68353a4",8,"Highlight vs normal D","CHARM","VEHICLE","Study2","U","JOL_H",5679,10,5950,"Bracelet ",40,0
"5e9084139da60e38c68353a4",8,"Highlight vs normal D","CHILDREN","MIRROR","Study2","U","JOL_H",5152,50,3459,"Mirror",100,100
"5e9084139da60e38c68353a4",8,"Highlight vs normal D","CLEAR","MOAT","Study2","U","JOL_H",5458,25,4583,"Moat",100,100
"5e9084139da60e38c68353a4",8,"Highlight vs normal D","CLOTH","STRETCH","Study2","U","JOL_H",4468,20,4653,"Stretch",100,100
"5e9084139da60e38c68353a4",8,"Highlight vs normal D","CLOTHES","CAKE","Study2","U","JOL",7998,10,4947,"Stretch",18.181818181818,0
"5e9084139da60e38c68353a4",8,"Highlight vs normal D","COFFIN","DEAD","Study2","F","JOL",7730,90,3476,"Dead",100,100
"5e9084139da60e38c68353a4",8,"Highlight vs normal D","COLD","CHILL","Study2","B","JOL_H",8527,100,7984,"Temperature ",0,0
"5e9084139da60e38c68353a4",8,"Highlight vs normal D","COMMUNICATION","PHONE","Study2","S","JOL",3864,75,3873,"Phone",100,100
"5e9084139da60e38c68353a4",8,"Highlight vs normal D","CUT","CHOP","Study2","B","JOL",4013,70,5347,"Chop",100,100
"5e9084139da60e38c68353a4",8,"Highlight vs normal D","DOG","FURRY","Study2","B","JOL_H",4057,70,9567,"Fluffy",54.545454545455,0
"5e9084139da60e38c68353a4",8,"Highlight vs normal D","DONKEY","MULE","Study2","B","JOL",4361,80,3233,"Mule",100,100
"5e9084139da60e38c68353a4",8,"Highlight vs normal D","DRINK","WATER","Study2","S","JOL_H",4396,90,5331,"Water",100,100
"5e9084139da60e38c68353a4",8,"Highlight vs normal D","EAT","DINE","Study2","B","JOL",3260,75,3820,"Food",25,0
"5e9084139da60e38c68353a4",8,"Highlight vs normal D","ELECTION","MAZE","Study2","U","JOL_H",5782,0,4305,"Result",20,0
"5e9084139da60e38c68353a4",8,"Highlight vs normal D","END","ADJOURN","Study2","B","JOL_H",5696,0,5508,"Middle",15.384615384615,0
"5e9084139da60e38c68353a4",8,"Highlight vs normal D","EQUAL","RIGHTS","Study2","S","JOL_H",3817,90,6826,"Right",90.909090909091,100
"5e9084139da60e38c68353a4",8,"Highlight vs normal D","FAVORITE","BEST","Study2","F","JOL_H",3954,100,4285,"Best",100,100
"5e9084139da60e38c68353a4",8,"Highlight vs normal D","FICTION","LISTEN","Study2","U","JOL",4359,60,3719,"Listen",100,100
"5e9084139da60e38c68353a4",8,"Highlight vs normal D","FIGHT","FEUD","Study2","B","JOL_H",5201,75,3800,"Brawl",0,0
"5e9084139da60e38c68353a4",8,"Highlight vs normal D","FLIP","TURN","Study2","F","JOL_H",3762,80,5788,"Turn",100,100
"5e9084139da60e38c68353a4",8,"Highlight vs normal D","GAME","CLUE","Study2","B","JOL",4939,30,7158,"Winner",20,0
"5e9084139da60e38c68353a4",8,"Highlight vs normal D","GROUND","EARTH","Study2","S","JOL",3548,100,3300,"Earth",100,100
"5e9084139da60e38c68353a4",8,"Highlight vs normal D","HATE","NAME","Study2","U","JOL_H",4710,50,7101,"Love",25,0
"5e9084139da60e38c68353a4",8,"Highlight vs normal D","HAVE","OWN","Study2","S","JOL",3525,80,5815,"Give",0,0
"5e9084139da60e38c68353a4",8,"Highlight vs normal D","HEAD","SCALP","Study2","B","JOL_H",4107,100,4143,"Ache",22.222222222222,0
"5e9084139da60e38c68353a4",8,"Highlight vs normal D","JAR","MASON","Study2","S","JOL",3411,75,5930,"Mason ",100,100
"5e9084139da60e38c68353a4",8,"Highlight vs normal D","JOKE","KEYS","Study2","U","JOL",4187,20,7217,"Keys",100,100
"5e9084139da60e38c68353a4",8,"Highlight vs normal D","LEAGUE","BASEBALL","Study2","F","JOL",4505,30,14710,"Legend",14.285714285714,0
"5e9084139da60e38c68353a4",8,"Highlight vs normal D","LIE","TRUTH","Study2","S","JOL_H",3614,100,3427,"Truth",100,100
"5e9084139da60e38c68353a4",8,"Highlight vs normal D","LONELY","ALONE","Study2","S","JOL_H",6112,100,4137,"Alone",100,100
"5e9084139da60e38c68353a4",8,"Highlight vs normal D","LONG","EXTENSION","Study2","B","JOL_H",4839,100,5321,"Distance",23.529411764706,0
"5e9084139da60e38c68353a4",8,"Highlight vs normal D","LOVE","AFFECTION","Study2","B","JOL_H",3864,100,5350,"Give",15.384615384615,0
"5e9084139da60e38c68353a4",8,"Highlight vs normal D","MAROON","JUSTICE","Study2","U","JOL_H",4180,10,5343,"Alone",16.666666666667,0
"5e9084139da60e38c68353a4",8,"Highlight vs normal D","MORNING","TEMPERATURE","Study2","U","JOL",3874,10,7052,"Temperature ",100,100
"5e9084139da60e38c68353a4",8,"Highlight vs normal D","MYSTERY","DETECTIVE","Study2","B","JOL_H",6111,65,25532,"Detective",100,100
"5e9084139da60e38c68353a4",8,"Highlight vs normal D","NAP","SLEEP","Study2","F","JOL",4058,100,3261,"Sleep",100,100
"5e9084139da60e38c68353a4",8,"Highlight vs normal D","NOISE","LOUD","Study2","S","JOL",4561,100,4252,"Loud",100,100
"5e9084139da60e38c68353a4",8,"Highlight vs normal D","OBTAIN","MEAT","Study2","U","JOL_H",8685,10,3338,"Give",25,0
"5e9084139da60e38c68353a4",8,"Highlight vs normal D","OUNCE","BOTH","Study2","U","JOL",4017,0,6108,"Both",100,100
"5e9084139da60e38c68353a4",8,"Highlight vs normal D","PANTHER","CAT","Study2","F","JOL",3772,90,4274,"Cat",100,100
"5e9084139da60e38c68353a4",8,"Highlight vs normal D","PAPER","DOCUMENT","Study2","B","JOL_H",6153,80,6509,"Cut",54.545454545455,0
"5e9084139da60e38c68353a4",8,"Highlight vs normal D","PENGUIN","BIRD","Study2","F","JOL",7935,90,3384,"Bird",100,100
"5e9084139da60e38c68353a4",8,"Highlight vs normal D","PLANT","CACTUS","Study2","B","JOL_H",4306,70,4359,"Able",20,0
"5e9084139da60e38c68353a4",8,"Highlight vs normal D","RED","CHERRY","Study2","B","JOL",5245,60,5329,"Apple",18.181818181818,0
"5e9084139da60e38c68353a4",8,"Highlight vs normal D","REEL","ROD","Study2","S","JOL_H",3512,75,2955,"Rod",100,100
"5e9084139da60e38c68353a4",8,"Highlight vs normal D","REVENGE","EVEN","Study2","F","JOL",4486,75,3239,"Even",100,100
"5e9084139da60e38c68353a4",8,"Highlight vs normal D","SARDINE","FISH","Study2","F","JOL_H",3248,80,3137,"Fish",100,100
"5e9084139da60e38c68353a4",8,"Highlight vs normal D","SCAR","MAIN","Study2","U","JOL",5588,20,3927,"Foil",25,0
"5e9084139da60e38c68353a4",8,"Highlight vs normal D","SCISSORS","SHEARS","Study2","B","JOL",5589,70,5275,"Serate",50,0
"5e9084139da60e38c68353a4",8,"Highlight vs normal D","SEATBELT","SAFETY","Study2","S","JOL",12268,90,4719,"Safety",100,100
"5e9084139da60e38c68353a4",8,"Highlight vs normal D","SHAKE","SHELL","Study2","U","JOL_H",5239,50,3099,"Away",0,0
"5e9084139da60e38c68353a4",8,"Highlight vs normal D","SHAVE","RAZOR","Study2","S","JOL",4532,90,6559,"Down",22.222222222222,0
"5e9084139da60e38c68353a4",8,"Highlight vs normal D","SIGN","LOAN","Study2","U","JOL",4052,15,5450,"Language ",50,0
"5e9084139da60e38c68353a4",8,"Highlight vs normal D","SMELL","INCENSE","Study2","B","JOL_H",3422,90,4492,"Noise",50,0
"5e9084139da60e38c68353a4",8,"Highlight vs normal D","STEAK","GIVE","Study2","U","JOL",3923,20,3358,"Give",100,100
"5e9084139da60e38c68353a4",8,"Highlight vs normal D","STRAWBERRY","FRUIT","Study2","F","JOL",3535,80,3537,"Fruit",100,100
"5e9084139da60e38c68353a4",8,"Highlight vs normal D","TAN","SUN","Study2","S","JOL_H",4868,75,3818,"Sun",100,100
"5e9084139da60e38c68353a4",8,"Highlight vs normal D","TEMPER","TANTRUM","Study2","S","JOL_H",3808,100,6447,"Tantrum",100,100
"5e9084139da60e38c68353a4",8,"Highlight vs normal D","THIMBLE","THREAD","Study2","F","JOL_H",4586,50,13609,"Thread",100,100
"5e9084139da60e38c68353a4",8,"Highlight vs normal D","TICK","FLEA","Study2","S","JOL_H",15139,70,4636,"Flea",100,100
"5e9084139da60e38c68353a4",8,"Highlight vs normal D","TIE","SHOELACE","Study2","B","JOL",4990,100,12112,"Shoelace ",100,100
"5e9084139da60e38c68353a4",8,"Highlight vs normal D","TOIL","LEASE","Study2","U","JOL_H",7892,5,3473,"Work",0,0
"5e9084139da60e38c68353a4",8,"Highlight vs normal D","TRASH","LITTER","Study2","B","JOL_H",3504,100,3578,"Litter",100,100
"5e9084139da60e38c68353a4",8,"Highlight vs normal D","TRUTHFUL","HONEST","Study2","F","JOL",4102,90,5738,"Lie",22.222222222222,0
"5e9084139da60e38c68353a4",8,"Highlight vs normal D","VILLAIN","BAD","Study2","F","JOL",3468,80,4193,"Evil",0,0
"5e9084139da60e38c68353a4",8,"Highlight vs normal D","WAX","CANDLE","Study2","S","JOL_H",3590,100,3653,"Candle",100,100
"5e9084139da60e38c68353a4",8,"Highlight vs normal D","WET","DRY","Study2","S","JOL_H",7433,60,3219,"Dry",100,100
"5e9084139da60e38c68353a4",8,"Highlight vs normal D","WINDSHIELD","CAR","Study2","F","JOL_H",4381,100,2953,"Car",100,100
