"Username","Condition.Number","Condition.Description","Stimuli.Cue","Stimuli.Answer","Stimuli.Shuffle","Stimuli.Stimuli.Notes","Procedure.Trial.Type","JOL.RT","Response.JOL","Response.RT.1","Response.Response","Response.Accuracy","Recall_Score"
"5ede2531cff15e047a4e356e",1,"Large vs small A","ALLOW","TUCK","Study1","U","JOL_Small",3908,0,4422,"deny",0,0
"5ede2531cff15e047a4e356e",1,"Large vs small A","ARCHITECTURE","DESIGN","Study1","S","JOL_Large",10622,1,10951,"building",28.571428571429,0
"5ede2531cff15e047a4e356e",1,"Large vs small A","ART","LION","Study1","U","JOL_Small",7197,33,9073,"school",20,0
"5ede2531cff15e047a4e356e",1,"Large vs small A","ARTERY","BRONZE","Study1","U","JOL_Large",11261,32,10701,"vein",20,0
"5ede2531cff15e047a4e356e",1,"Large vs small A","BABY","CHILD","Study1","S","JOL_Large",3125,23,10507,"child",100,100
"5ede2531cff15e047a4e356e",1,"Large vs small A","BALL","RACKET","Study1","B","JOL_Small",19404,30,33690,"park",40,0
"5ede2531cff15e047a4e356e",1,"Large vs small A","BATHROOM","TOILET","Study1","S","JOL_Small",4501,70,5028,"key",22.222222222222,0
"5ede2531cff15e047a4e356e",1,"Large vs small A","BEGIN","END","Study1","S","JOL_Large",6106,64,5278,"start",0,0
"5ede2531cff15e047a4e356e",1,"Large vs small A","BITTER","COLD","Study1","F","JOL_Small",5874,56,10732,"sweet",0,0
"5ede2531cff15e047a4e356e",1,"Large vs small A","BLOW","WIND","Study1","S","JOL_Large",3133,43,6142,"wind",100,100
"5ede2531cff15e047a4e356e",1,"Large vs small A","BRIDGE","WATER","Study1","F","JOL_Large",6393,50,12648,"water",100,100
"5ede2531cff15e047a4e356e",1,"Large vs small A","BUG","WASP","Study1","B","JOL_Small",6249,6,12432,"insect",20,0
"5ede2531cff15e047a4e356e",1,"Large vs small A","CASH","WOULD","Study1","U","JOL_Large",18288,21,3419,"out",50,0
"5ede2531cff15e047a4e356e",1,"Large vs small A","CHISEL","HAMMER","Study1","F","JOL_Large",8793,60,4663,"tool",0,0
"5ede2531cff15e047a4e356e",1,"Large vs small A","CIRCLE","ROUND","Study1","S","JOL_Large",4363,44,5095,"round",100,100
"5ede2531cff15e047a4e356e",1,"Large vs small A","CLOTHES","ATTIRE","Study1","B","JOL_Large",6683,34,9371,"jumper",16.666666666667,0
"5ede2531cff15e047a4e356e",1,"Large vs small A","CREDIT","CARD","Study1","F","JOL_Large",4967,99,7426,"card",100,100
"5ede2531cff15e047a4e356e",1,"Large vs small A","DARK","CAVE","Study1","B","JOL_Large",4748,34,7265,"night",0,0
"5ede2531cff15e047a4e356e",1,"Large vs small A","DEATH","BUSINESS","Study1","U","JOL_Large",5813,83,4265,"life",33.333333333333,0
"5ede2531cff15e047a4e356e",1,"Large vs small A","DEBATE","SIGHT","Study1","U","JOL_Small",4702,0,5966,"jury",0,0
"5ede2531cff15e047a4e356e",1,"Large vs small A","DELINQUENT","BAD","Study1","F","JOL_Small",9647,3,3577,"",0,0
"5ede2531cff15e047a4e356e",1,"Large vs small A","DIETARY","SACKING","Study1","U","JOL_Small",5633,2,5538,"food",0,0
"5ede2531cff15e047a4e356e",1,"Large vs small A","DIGESTION","STOMACH","Study1","F","JOL_Small",3879,12,5833,"guts",18.181818181818,0
"5ede2531cff15e047a4e356e",1,"Large vs small A","DISCOVER","FLOOR","Study1","U","JOL_Large",9558,37,6002,"find",22.222222222222,0
"5ede2531cff15e047a4e356e",1,"Large vs small A","DISCUSSION","TALK","Study1","F","JOL_Large",27478,57,5256,"chat",25,0
"5ede2531cff15e047a4e356e",1,"Large vs small A","DRINK","SIP","Study1","B","JOL_Small",6439,20,17032,"water",0,0
"5ede2531cff15e047a4e356e",1,"Large vs small A","DUE","ASSIGNMENT","Study1","S","JOL_Large",7060,50,4935,"date",28.571428571429,0
"5ede2531cff15e047a4e356e",1,"Large vs small A","DUMP","WASTE","Study1","S","JOL_Small",13214,53,12873,"trash",40,0
"5ede2531cff15e047a4e356e",1,"Large vs small A","EDITOR","NEWS","Study1","F","JOL_Small",6631,23,11490,"newspaper",61.538461538462,0
"5ede2531cff15e047a4e356e",1,"Large vs small A","FIRE","BLAZE","Study1","B","JOL_Small",9500,40,7643,"hydrant",16.666666666667,0
"5ede2531cff15e047a4e356e",1,"Large vs small A","FIX","HAND","Study1","U","JOL_Small",5402,2,11373,"repair",20,0
"5ede2531cff15e047a4e356e",1,"Large vs small A","FULL","ENOUGH","Study1","B","JOL_Small",9653,21,5724,"empty",18.181818181818,0
"5ede2531cff15e047a4e356e",1,"Large vs small A","GEOLOGY","ROCK","Study1","F","JOL_Small",12554,30,6785,"rock",100,100
"5ede2531cff15e047a4e356e",1,"Large vs small A","GREAT","FANTASTIC","Study1","B","JOL_Large",5425,29,8548,"wall",15.384615384615,0
"5ede2531cff15e047a4e356e",1,"Large vs small A","GRILL","BAR","Study1","S","JOL_Small",7226,33,3196,"bar",100,100
"5ede2531cff15e047a4e356e",1,"Large vs small A","HAPPY","CAR","Study1","U","JOL_Large",6784,31,6350,"ending",0,0
"5ede2531cff15e047a4e356e",1,"Large vs small A","HEIGHT","GROWTH","Study1","B","JOL_Small",6089,52,6015,"tall",20,0
"5ede2531cff15e047a4e356e",1,"Large vs small A","HERD","COW","Study1","F","JOL_Large",6094,80,5027,"cows",85.714285714286,100
"5ede2531cff15e047a4e356e",1,"Large vs small A","HIDE","SICK","Study1","U","JOL_Large",19642,NA,12700,"seek",50,0
"5ede2531cff15e047a4e356e",1,"Large vs small A","HONEY","BEE","Study1","S","JOL_Small",4619,89,4491,"bees",85.714285714286,100
"5ede2531cff15e047a4e356e",1,"Large vs small A","HORNET","STING","Study1","F","JOL_Small",4191,66,6085,"sting",100,100
"5ede2531cff15e047a4e356e",1,"Large vs small A","HOT","CHILI","Study1","B","JOL_Large",3586,87,5851,"chilli",90.909090909091,100
"5ede2531cff15e047a4e356e",1,"Large vs small A","HUNGER","FAMINE","Study1","B","JOL_Large",5979,34,6003,"games",54.545454545455,0
"5ede2531cff15e047a4e356e",1,"Large vs small A","HYGIENE","CLEAN","Study1","F","JOL_Large",5600,56,6312,"wash",22.222222222222,0
"5ede2531cff15e047a4e356e",1,"Large vs small A","KEY","LATCH","Study1","B","JOL_Small",8074,13,5506,"lock",44.444444444444,0
"5ede2531cff15e047a4e356e",1,"Large vs small A","KIDNEY","LIVER","Study1","S","JOL_Large",4730,57,5138,"liver",100,100
"5ede2531cff15e047a4e356e",1,"Large vs small A","KING","VASE","Study1","U","JOL_Large",3491,3,8939,"crown",0,0
"5ede2531cff15e047a4e356e",1,"Large vs small A","LAW","ATTORNEY","Study1","B","JOL_Small",8351,30,1983,"",0,0
"5ede2531cff15e047a4e356e",1,"Large vs small A","LETTUCE","SALAD","Study1","S","JOL_Small",4478,60,7908,"salad",100,100
"5ede2531cff15e047a4e356e",1,"Large vs small A","LIFT","WOMAN","Study1","U","JOL_Large",4243,9,4182,"up",0,0
"5ede2531cff15e047a4e356e",1,"Large vs small A","LOCATION","SITE","Study1","S","JOL_Large",8405,33,21281,"map",0,0
"5ede2531cff15e047a4e356e",1,"Large vs small A","MACHINE","POSITION","Study1","U","JOL_Small",7996,21,4484,"made",0,0
"5ede2531cff15e047a4e356e",1,"Large vs small A","MATH","DIVISION","Study1","B","JOL_Small",5825,26,7680,"numbers",13.333333333333,0
"5ede2531cff15e047a4e356e",1,"Large vs small A","MEANING","DEFINITION","Study1","S","JOL_Small",6244,71,2657,"",0,0
"5ede2531cff15e047a4e356e",1,"Large vs small A","NUMBER","AMOUNT","Study1","S","JOL_Large",4445,42,3485,"",0,0
"5ede2531cff15e047a4e356e",1,"Large vs small A","ORCHID","FLOWER","Study1","F","JOL_Large",8202,32,5775,"apples",33.333333333333,0
"5ede2531cff15e047a4e356e",1,"Large vs small A","PARK","HUNGRY","Study1","U","JOL_Large",4044,2,20080,"brake",18.181818181818,0
"5ede2531cff15e047a4e356e",1,"Large vs small A","PAST","FUTURE","Study1","S","JOL_Small",7636,56,7687,"presant",30.769230769231,0
"5ede2531cff15e047a4e356e",1,"Large vs small A","PAW","DOG","Study1","F","JOL_Large",22428,31,7676,"wolf",28.571428571429,0
"5ede2531cff15e047a4e356e",1,"Large vs small A","PLANE","PILOT","Study1","B","JOL_Large",5249,55,21607,"airport",50,0
"5ede2531cff15e047a4e356e",1,"Large vs small A","POP","SODA","Study1","S","JOL_Small",4835,23,8555,"work",25,0
"5ede2531cff15e047a4e356e",1,"Large vs small A","PUSHER","CLUTTER","Study1","U","JOL_Large",3622,0,9813,"button",46.153846153846,0
"5ede2531cff15e047a4e356e",1,"Large vs small A","REVOLUTION","WAR","Study1","F","JOL_Small",4621,34,5759,"war",100,100
"5ede2531cff15e047a4e356e",1,"Large vs small A","ROOT","PLANT","Study1","F","JOL_Small",6864,6,7994,"vegetable",14.285714285714,0
"5ede2531cff15e047a4e356e",1,"Large vs small A","SENTENCE","WORD","Study1","B","JOL_Small",9129,NA,5172,"",0,0
"5ede2531cff15e047a4e356e",1,"Large vs small A","SHOE","FOOT","Study1","S","JOL_Small",4515,56,6795,"shop",25,0
"5ede2531cff15e047a4e356e",1,"Large vs small A","SLEEP","DROWSY","Study1","B","JOL_Small",7478,19,22827,"night",0,0
"5ede2531cff15e047a4e356e",1,"Large vs small A","SMELL","STENCH","Study1","B","JOL_Large",9672,40,15427,"whiff",18.181818181818,0
"5ede2531cff15e047a4e356e",1,"Large vs small A","SOON","BELT","Study1","U","JOL_Small",3772,5,8719,"after",22.222222222222,0
"5ede2531cff15e047a4e356e",1,"Large vs small A","STRONG","ACCIDENT","Study1","U","JOL_Small",3052,NA,5717,"hard",33.333333333333,0
"5ede2531cff15e047a4e356e",1,"Large vs small A","SUGAR","RIDDLE","Study1","U","JOL_Large",5825,34,8944,"sweet",18.181818181818,0
"5ede2531cff15e047a4e356e",1,"Large vs small A","SWAN","BIRD","Study1","F","JOL_Large",4767,69,4798,"bird",100,100
"5ede2531cff15e047a4e356e",1,"Large vs small A","TAKE","SEIZE","Study1","B","JOL_Small",11074,32,5503,"away",0,0
"5ede2531cff15e047a4e356e",1,"Large vs small A","TRIAL","JURY","Study1","S","JOL_Small",8127,45,4509,"jury",100,100
"5ede2531cff15e047a4e356e",1,"Large vs small A","TUNA","FISH","Study1","F","JOL_Large",7087,70,5520,"fish",100,100
"5ede2531cff15e047a4e356e",1,"Large vs small A","VALLEY","ADD","Study1","U","JOL_Small",6810,20,9810,"river",0,0
"5ede2531cff15e047a4e356e",1,"Large vs small A","WAGE","MONEY","Study1","F","JOL_Small",5935,46,7465,"money",100,100
"5ede2531cff15e047a4e356e",1,"Large vs small A","WAY","OUT","Study1","F","JOL_Large",6993,NA,4336,"out",100,100
"5ede2531cff15e047a4e356e",1,"Large vs small A","WINE","CHEESE","Study1","S","JOL_Large",4714,67,6461,"drink",0,0
"5ede2531cff15e047a4e356e",1,"Large vs small A","WORK","CHORE","Study1","B","JOL_Large",11741,66,4511,"out",25,0
"5db0cfa9c2978c001923d74d",2,"Large vs small B","ALLOW","TUCK","Study1","U","JOL_Large",1780,30,2879,"truck",88.888888888889,100
"5db0cfa9c2978c001923d74d",2,"Large vs small B","ARCHITECTURE","DESIGN","Study1","S","JOL_Small",2366,70,3338,"design",100,100
"5db0cfa9c2978c001923d74d",2,"Large vs small B","ART","LION","Study1","U","JOL_Small",2888,50,3320,"dealer",20,0
"5db0cfa9c2978c001923d74d",2,"Large vs small B","ARTERY","BRONZE","Study1","U","JOL_Small",3771,50,2753,"vein",20,0
"5db0cfa9c2978c001923d74d",2,"Large vs small B","BABY","CHILD","Study1","S","JOL_Large",2174,40,8514,"cry",25,0
"5db0cfa9c2978c001923d74d",2,"Large vs small B","BALL","RACKET","Study1","B","JOL_Large",1917,40,3718,"glove",18.181818181818,0
"5db0cfa9c2978c001923d74d",2,"Large vs small B","BATHROOM","TOILET","Study1","S","JOL_Small",2376,70,2416,"toilet",100,100
"5db0cfa9c2978c001923d74d",2,"Large vs small B","BEGIN","END","Study1","S","JOL_Large",1484,50,1930,"end",100,100
"5db0cfa9c2978c001923d74d",2,"Large vs small B","BITTER","COLD","Study1","F","JOL_Large",1943,50,1959,"lemon",22.222222222222,0
"5db0cfa9c2978c001923d74d",2,"Large vs small B","BLOW","WIND","Study1","S","JOL_Large",1993,50,5275,"suck",0,0
"5db0cfa9c2978c001923d74d",2,"Large vs small B","BRIDGE","WATER","Study1","F","JOL_Small",2294,40,2321,"water",100,100
"5db0cfa9c2978c001923d74d",2,"Large vs small B","BUG","WASP","Study1","B","JOL_Small",2354,60,2838,"lice",0,0
"5db0cfa9c2978c001923d74d",2,"Large vs small B","CASH","WOULD","Study1","U","JOL_Small",2010,30,2302,"money",20,0
"5db0cfa9c2978c001923d74d",2,"Large vs small B","CHISEL","HAMMER","Study1","F","JOL_Small",3735,60,5121,"sculpt",0,0
"5db0cfa9c2978c001923d74d",2,"Large vs small B","CIRCLE","ROUND","Study1","S","JOL_Small",2288,70,5739,"round",100,100
"5db0cfa9c2978c001923d74d",2,"Large vs small B","CLOTHES","ATTIRE","Study1","B","JOL_Small",2485,60,3897,"rail",20,0
"5db0cfa9c2978c001923d74d",2,"Large vs small B","CREDIT","CARD","Study1","F","JOL_Small",1976,80,2125,"card",100,100
"5db0cfa9c2978c001923d74d",2,"Large vs small B","DARK","CAVE","Study1","B","JOL_Large",1911,60,3944,"cave",100,100
"5db0cfa9c2978c001923d74d",2,"Large vs small B","DEATH","BUSINESS","Study1","U","JOL_Small",2115,40,3016,"coffin",28.571428571429,0
"5db0cfa9c2978c001923d74d",2,"Large vs small B","DEBATE","SIGHT","Study1","U","JOL_Small",2651,30,2805,"discuss",16.666666666667,0
"5db0cfa9c2978c001923d74d",2,"Large vs small B","DELINQUENT","BAD","Study1","F","JOL_Large",2357,40,2978,"war",33.333333333333,0
"5db0cfa9c2978c001923d74d",2,"Large vs small B","DIETARY","SACKING","Study1","U","JOL_Large",3420,30,4517,"needs",16.666666666667,0
"5db0cfa9c2978c001923d74d",2,"Large vs small B","DIGESTION","STOMACH","Study1","F","JOL_Large",2516,60,2548,"stomach",100,100
"5db0cfa9c2978c001923d74d",2,"Large vs small B","DISCOVER","FLOOR","Study1","U","JOL_Large",1993,30,6149,"adventure",14.285714285714,0
"5db0cfa9c2978c001923d74d",2,"Large vs small B","DISCUSSION","TALK","Study1","F","JOL_Large",1390,80,4609,"voice",0,0
"5db0cfa9c2978c001923d74d",2,"Large vs small B","DRINK","SIP","Study1","B","JOL_Small",1331,70,4356,"Water",0,0
"5db0cfa9c2978c001923d74d",2,"Large vs small B","DUE","ASSIGNMENT","Study1","S","JOL_Small",1830,70,5967,"assignment",100,100
"5db0cfa9c2978c001923d74d",2,"Large vs small B","DUMP","WASTE","Study1","S","JOL_Small",2800,60,6286,"rubbish",16.666666666667,0
"5db0cfa9c2978c001923d74d",2,"Large vs small B","EDITOR","NEWS","Study1","F","JOL_Small",2232,60,4110,"magazine",33.333333333333,0
"5db0cfa9c2978c001923d74d",2,"Large vs small B","FIRE","BLAZE","Study1","B","JOL_Large",2617,60,3420,"engine ",18.181818181818,0
"5db0cfa9c2978c001923d74d",2,"Large vs small B","FIX","HAND","Study1","U","JOL_Small",2337,30,4199,"build",22.222222222222,0
"5db0cfa9c2978c001923d74d",2,"Large vs small B","FULL","ENOUGH","Study1","B","JOL_Small",2417,30,4616,"empty",18.181818181818,0
"5db0cfa9c2978c001923d74d",2,"Large vs small B","GEOLOGY","ROCK","Study1","F","JOL_Small",1690,50,4703,"rocks",88.888888888889,100
"5db0cfa9c2978c001923d74d",2,"Large vs small B","GREAT","FANTASTIC","Study1","B","JOL_Large",1839,70,4838,"fantastic",100,100
"5db0cfa9c2978c001923d74d",2,"Large vs small B","GRILL","BAR","Study1","S","JOL_Large",2039,30,5197,"meat",28.571428571429,0
"5db0cfa9c2978c001923d74d",2,"Large vs small B","HAPPY","CAR","Study1","U","JOL_Large",3656,30,3150,"endings",0,0
"5db0cfa9c2978c001923d74d",2,"Large vs small B","HEIGHT","GROWTH","Study1","B","JOL_Large",1566,6,3840,"growth",100,100
"5db0cfa9c2978c001923d74d",2,"Large vs small B","HERD","COW","Study1","F","JOL_Large",1530,70,2044,"cow",100,100
"5db0cfa9c2978c001923d74d",2,"Large vs small B","HIDE","SICK","Study1","U","JOL_Small",2295,40,4352,"scared",40,0
"5db0cfa9c2978c001923d74d",2,"Large vs small B","HONEY","BEE","Study1","S","JOL_Large",958,7,1651,"bee",100,100
"5db0cfa9c2978c001923d74d",2,"Large vs small B","HORNET","STING","Study1","F","JOL_Large",2836,80,2189,"nest",44.444444444444,0
"5db0cfa9c2978c001923d74d",2,"Large vs small B","HOT","CHILI","Study1","B","JOL_Small",2928,30,3114,"sauce",20,0
"5db0cfa9c2978c001923d74d",2,"Large vs small B","HUNGER","FAMINE","Study1","B","JOL_Large",1961,30,4709,"food",20,0
"5db0cfa9c2978c001923d74d",2,"Large vs small B","HYGIENE","CLEAN","Study1","F","JOL_Large",1456,60,3771,"shower",18.181818181818,0
"5db0cfa9c2978c001923d74d",2,"Large vs small B","KEY","LATCH","Study1","B","JOL_Small",2179,70,2999,"latch",100,100
"5db0cfa9c2978c001923d74d",2,"Large vs small B","KIDNEY","LIVER","Study1","S","JOL_Small",1694,70,2358,"liver",100,100
"5db0cfa9c2978c001923d74d",2,"Large vs small B","KING","VASE","Study1","U","JOL_Large",2640,40,5027,"royal",22.222222222222,0
"5db0cfa9c2978c001923d74d",2,"Large vs small B","LAW","ATTORNEY","Study1","B","JOL_Large",2783,70,4976,"attorney",100,100
"5db0cfa9c2978c001923d74d",2,"Large vs small B","LETTUCE","SALAD","Study1","S","JOL_Small",1467,50,2609,"leaf",44.444444444444,0
"5db0cfa9c2978c001923d74d",2,"Large vs small B","LIFT","WOMAN","Study1","U","JOL_Large",2168,30,2004,"woman",100,100
"5db0cfa9c2978c001923d74d",2,"Large vs small B","LOCATION","SITE","Study1","S","JOL_Large",1586,60,3360,"Site",100,100
"5db0cfa9c2978c001923d74d",2,"Large vs small B","MACHINE","POSITION","Study1","U","JOL_Small",2237,4,3109,"factory",26.666666666667,0
"5db0cfa9c2978c001923d74d",2,"Large vs small B","MATH","DIVISION","Study1","B","JOL_Small",3659,50,5836,"Division",100,100
"5db0cfa9c2978c001923d74d",2,"Large vs small B","MEANING","DEFINITION","Study1","S","JOL_Large",3507,40,6469,"word",14.285714285714,0
"5db0cfa9c2978c001923d74d",2,"Large vs small B","NUMBER","AMOUNT","Study1","S","JOL_Large",2489,50,6463,"phone",36.363636363636,0
"5db0cfa9c2978c001923d74d",2,"Large vs small B","ORCHID","FLOWER","Study1","F","JOL_Small",1648,60,2224,"flower",100,100
"5db0cfa9c2978c001923d74d",2,"Large vs small B","PARK","HUNGRY","Study1","U","JOL_Large",2217,40,2533,"glass",18.181818181818,0
"5db0cfa9c2978c001923d74d",2,"Large vs small B","PAST","FUTURE","Study1","S","JOL_Small",3666,50,2807,"future",100,100
"5db0cfa9c2978c001923d74d",2,"Large vs small B","PAW","DOG","Study1","F","JOL_Small",1727,60,1605,"dog",100,100
"5db0cfa9c2978c001923d74d",2,"Large vs small B","PLANE","PILOT","Study1","B","JOL_Large",1594,50,2806,"pilot",100,100
"5db0cfa9c2978c001923d74d",2,"Large vs small B","POP","SODA","Study1","S","JOL_Small",1822,70,6600,"art",28.571428571429,0
"5db0cfa9c2978c001923d74d",2,"Large vs small B","PUSHER","CLUTTER","Study1","U","JOL_Large",2289,20,8058,"pull",18.181818181818,0
"5db0cfa9c2978c001923d74d",2,"Large vs small B","REVOLUTION","WAR","Study1","F","JOL_Small",2626,30,2569,"war",100,100
"5db0cfa9c2978c001923d74d",2,"Large vs small B","ROOT","PLANT","Study1","F","JOL_Large",4424,70,3626,"PLant",100,100
"5db0cfa9c2978c001923d74d",2,"Large vs small B","SENTENCE","WORD","Study1","B","JOL_Large",1730,60,2727,"words",88.888888888889,100
"5db0cfa9c2978c001923d74d",2,"Large vs small B","SHOE","FOOT","Study1","S","JOL_Large",1642,80,4902,"lace",0,0
"5db0cfa9c2978c001923d74d",2,"Large vs small B","SLEEP","DROWSY","Study1","B","JOL_Small",2690,70,2724,"bed",22.222222222222,0
"5db0cfa9c2978c001923d74d",2,"Large vs small B","SMELL","STENCH","Study1","B","JOL_Large",2051,70,3154,"stink",54.545454545455,0
"5db0cfa9c2978c001923d74d",2,"Large vs small B","SOON","BELT","Study1","U","JOL_Small",2032,40,5209,"near",25,0
"5db0cfa9c2978c001923d74d",2,"Large vs small B","STRONG","ACCIDENT","Study1","U","JOL_Large",3525,30,2837,"wire",33.333333333333,0
"5db0cfa9c2978c001923d74d",2,"Large vs small B","SUGAR","RIDDLE","Study1","U","JOL_Small",2199,30,4748,"cake",20,0
"5db0cfa9c2978c001923d74d",2,"Large vs small B","SWAN","BIRD","Study1","F","JOL_Large",1437,6,2775,"bird",100,100
"5db0cfa9c2978c001923d74d",2,"Large vs small B","TAKE","SEIZE","Study1","B","JOL_Small",2598,40,2576,"give",44.444444444444,0
"5db0cfa9c2978c001923d74d",2,"Large vs small B","TRIAL","JURY","Study1","S","JOL_Large",1409,70,3082,"jury",100,100
"5db0cfa9c2978c001923d74d",2,"Large vs small B","TUNA","FISH","Study1","F","JOL_Small",2261,70,1886,"fish",100,100
"5db0cfa9c2978c001923d74d",2,"Large vs small B","VALLEY","ADD","Study1","U","JOL_Large",2072,3,5147,"hill",0,0
"5db0cfa9c2978c001923d74d",2,"Large vs small B","WAGE","MONEY","Study1","F","JOL_Large",2429,60,2902,"money",100,100
"5db0cfa9c2978c001923d74d",2,"Large vs small B","WAY","OUT","Study1","F","JOL_Small",1894,60,1593,"out",100,100
"5db0cfa9c2978c001923d74d",2,"Large vs small B","WINE","CHEESE","Study1","S","JOL_Small",3372,50,2920,"drink",0,0
"5db0cfa9c2978c001923d74d",2,"Large vs small B","WORK","CHORE","Study1","B","JOL_Small",2885,40,2215,"out",25,0
"5d9c8a8033801b00145a6803",3,"Large vs small C","ACCIDENT","STRONG","Study1","U","JOL_Small",3151,36,2892,"",0,0
"5d9c8a8033801b00145a6803",3,"Large vs small C","ADD","VALLEY","Study1","U","JOL_Large",2668,41,3982,"",0,0
"5d9c8a8033801b00145a6803",3,"Large vs small C","AMOUNT","NUMBER","Study1","S","JOL_Small",5892,55,9101,"NUMBER",100,100
"5d9c8a8033801b00145a6803",3,"Large vs small C","ASSIGNMENT","DUE","Study1","S","JOL_Small",5693,99,3858,"",0,0
"5d9c8a8033801b00145a6803",3,"Large vs small C","ATTIRE","CLOTHES","Study1","F","JOL_Small",4275,85,6023,"CLOTHING",66.666666666667,0
"5d9c8a8033801b00145a6803",3,"Large vs small C","ATTORNEY","LAW","Study1","F","JOL_Large",4403,66,5387,"",0,0
"5d9c8a8033801b00145a6803",3,"Large vs small C","BAD","DELINQUENT","Study1","B","JOL_Large",4885,66,7008,"DELINQUENT",100,100
"5d9c8a8033801b00145a6803",3,"Large vs small C","BAR","GRILL","Study1","S","JOL_Small",4002,92,4552,"GRILL",100,100
"5d9c8a8033801b00145a6803",3,"Large vs small C","BEE","HONEY","Study1","S","JOL_Small",2707,99,3570,"HONEY",100,100
"5d9c8a8033801b00145a6803",3,"Large vs small C","BELT","SOON","Study1","U","JOL_Large",4559,28,3214,"",0,0
"5d9c8a8033801b00145a6803",3,"Large vs small C","BIRD","SWAN","Study1","B","JOL_Large",3076,55,3833,"SWAN",100,100
"5d9c8a8033801b00145a6803",3,"Large vs small C","BLAZE","FIRE","Study1","F","JOL_Small",4395,85,4149,"FIRE",100,100
"5d9c8a8033801b00145a6803",3,"Large vs small C","BRONZE","ARTERY","Study1","U","JOL_Large",5327,14,10549,"TALLY",36.363636363636,0
"5d9c8a8033801b00145a6803",3,"Large vs small C","BUSINESS","DEATH","Study1","U","JOL_Large",4934,86,3587,"DEATH",100,100
"5d9c8a8033801b00145a6803",3,"Large vs small C","CAR","HAPPY","Study1","U","JOL_Small",4488,24,3976,"",0,0
"5d9c8a8033801b00145a6803",3,"Large vs small C","CARD","CREDIT","Study1","B","JOL_Small",5257,74,4650,"CREDIT",100,100
"5d9c8a8033801b00145a6803",3,"Large vs small C","CAVE","DARK","Study1","F","JOL_Large",9048,84,3963,"DARK",100,100
"5d9c8a8033801b00145a6803",3,"Large vs small C","CHEESE","WINE","Study1","S","JOL_Large",2934,85,7545,"WINE",100,100
"5d9c8a8033801b00145a6803",3,"Large vs small C","CHILD","BABY","Study1","S","JOL_Small",5703,88,2631,"",0,0
"5d9c8a8033801b00145a6803",3,"Large vs small C","CHILI","HOT","Study1","F","JOL_Large",5443,65,5807,"HOT",100,100
"5d9c8a8033801b00145a6803",3,"Large vs small C","CHORE","WORK","Study1","F","JOL_Small",3747,45,6113,"WORK",100,100
"5d9c8a8033801b00145a6803",3,"Large vs small C","CLEAN","HYGIENE","Study1","B","JOL_Small",3902,94,6726,"HYGIENE",100,100
"5d9c8a8033801b00145a6803",3,"Large vs small C","CLUTTER","PUSHER","Study1","U","JOL_Large",4164,22,15209,"",0,0
"5d9c8a8033801b00145a6803",3,"Large vs small C","COLD","BITTER","Study1","B","JOL_Small",3588,24,5405,"",0,0
"5d9c8a8033801b00145a6803",3,"Large vs small C","COW","HERD","Study1","B","JOL_Large",5801,83,3664,"HERD",100,100
"5d9c8a8033801b00145a6803",3,"Large vs small C","DEFINITION","MEANING","Study1","S","JOL_Large",5800,74,4344,"MEANING",100,100
"5d9c8a8033801b00145a6803",3,"Large vs small C","DESIGN","ARCHITECTURE","Study1","S","JOL_Large",2875,64,11078,"ARCHITECTURE",100,100
"5d9c8a8033801b00145a6803",3,"Large vs small C","DIVISION","MATH","Study1","F","JOL_Small",4528,54,2251,"",0,0
"5d9c8a8033801b00145a6803",3,"Large vs small C","DOG","PAW","Study1","B","JOL_Large",4012,86,3692,"PAW",100,100
"5d9c8a8033801b00145a6803",3,"Large vs small C","DROWSY","SLEEP","Study1","F","JOL_Small",3291,72,4276,"TIRED",20,0
"5d9c8a8033801b00145a6803",3,"Large vs small C","END","BEGIN","Study1","S","JOL_Small",6812,82,3708,"BEGIN",100,100
"5d9c8a8033801b00145a6803",3,"Large vs small C","ENOUGH","FULL","Study1","F","JOL_Small",6436,83,8863,"FULL",100,100
"5d9c8a8033801b00145a6803",3,"Large vs small C","FAMINE","HUNGER","Study1","F","JOL_Small",2733,66,4838,"HUNGRY",83.333333333333,100
"5d9c8a8033801b00145a6803",3,"Large vs small C","FANTASTIC","GREAT","Study1","F","JOL_Small",2904,54,4239,"GREAT",100,100
"5d9c8a8033801b00145a6803",3,"Large vs small C","FISH","TUNA","Study1","B","JOL_Small",4127,74,4531,"TUNA",100,100
"5d9c8a8033801b00145a6803",3,"Large vs small C","FLOOR","DISCOVER","Study1","U","JOL_Large",4792,22,9872,"BASEBALL",25,0
"5d9c8a8033801b00145a6803",3,"Large vs small C","FLOWER","ORCHID","Study1","B","JOL_Small",3435,99,4616,"ORCHID",100,100
"5d9c8a8033801b00145a6803",3,"Large vs small C","FOOT","SHOE","Study1","S","JOL_Large",3930,86,2750,"",0,0
"5d9c8a8033801b00145a6803",3,"Large vs small C","FUTURE","PAST","Study1","S","JOL_Small",5890,78,4892,"",0,0
"5d9c8a8033801b00145a6803",3,"Large vs small C","GROWTH","HEIGHT","Study1","F","JOL_Large",3480,87,5549,"HEIGHT",100,100
"5d9c8a8033801b00145a6803",3,"Large vs small C","HAMMER","CHISEL","Study1","B","JOL_Small",4299,56,5630,"CHISEL",100,100
"5d9c8a8033801b00145a6803",3,"Large vs small C","HAND","FIX","Study1","U","JOL_Large",9683,35,5416,"",0,0
"5d9c8a8033801b00145a6803",3,"Large vs small C","HUNGRY","PARK","Study1","U","JOL_Large",4299,32,5271,"FAMINE",20,0
"5d9c8a8033801b00145a6803",3,"Large vs small C","JURY","TRIAL","Study1","S","JOL_Large",6184,87,14032,"LAWYER",18.181818181818,0
"5d9c8a8033801b00145a6803",3,"Large vs small C","LATCH","KEY","Study1","F","JOL_Large",2441,69,3525,"KEY",100,100
"5d9c8a8033801b00145a6803",3,"Large vs small C","LION","ART","Study1","U","JOL_Small",3503,23,8392,"",0,0
"5d9c8a8033801b00145a6803",3,"Large vs small C","LIVER","KIDNEY","Study1","S","JOL_Large",5260,90,3589,"KIDNEY",100,100
"5d9c8a8033801b00145a6803",3,"Large vs small C","MONEY","WAGE","Study1","B","JOL_Large",3312,97,16809,"",0,0
"5d9c8a8033801b00145a6803",3,"Large vs small C","NEWS","EDITOR","Study1","B","JOL_Small",3372,58,3856,"",0,0
"5d9c8a8033801b00145a6803",3,"Large vs small C","OUT","WAY","Study1","B","JOL_Small",3749,57,3500,"",0,0
"5d9c8a8033801b00145a6803",3,"Large vs small C","PILOT","PLANE","Study1","F","JOL_Large",3050,65,3655,"PLANE",100,100
"5d9c8a8033801b00145a6803",3,"Large vs small C","PLANT","ROOT","Study1","B","JOL_Large",5580,62,6915,"ORCHID",20,0
"5d9c8a8033801b00145a6803",3,"Large vs small C","POSITION","MACHINE","Study1","U","JOL_Large",4685,34,1787,"",0,0
"5d9c8a8033801b00145a6803",3,"Large vs small C","RACKET","BALL","Study1","F","JOL_Large",5148,55,5031,"",0,0
"5d9c8a8033801b00145a6803",3,"Large vs small C","RIDDLE","SUGAR","Study1","U","JOL_Large",10734,32,1198,"",0,0
"5d9c8a8033801b00145a6803",3,"Large vs small C","ROCK","GEOLOGY","Study1","B","JOL_Large",4930,75,1762,"",0,0
"5d9c8a8033801b00145a6803",3,"Large vs small C","ROUND","CIRCLE","Study1","S","JOL_Small",3972,85,4585,"CIRCLE",100,100
"5d9c8a8033801b00145a6803",3,"Large vs small C","SACKING","DIETARY","Study1","U","JOL_Small",4569,15,1603,"",0,0
"5d9c8a8033801b00145a6803",3,"Large vs small C","SALAD","LETTUCE","Study1","S","JOL_Small",4568,89,4370,"LETTUCE",100,100
"5d9c8a8033801b00145a6803",3,"Large vs small C","SEIZE","TAKE","Study1","F","JOL_Small",3339,89,3467,"TAKE",100,100
"5d9c8a8033801b00145a6803",3,"Large vs small C","SICK","HIDE","Study1","U","JOL_Small",3772,15,8988,"",0,0
"5d9c8a8033801b00145a6803",3,"Large vs small C","SIGHT","DEBATE","Study1","U","JOL_Large",4018,35,4977,"",0,0
"5d9c8a8033801b00145a6803",3,"Large vs small C","SIP","DRINK","Study1","F","JOL_Large",4857,58,4356,"DRINK",100,100
"5d9c8a8033801b00145a6803",3,"Large vs small C","SITE","LOCATION","Study1","S","JOL_Small",2650,74,6085,"LOCATION",100,100
"5d9c8a8033801b00145a6803",3,"Large vs small C","SODA","POP","Study1","S","JOL_Large",3954,96,3400,"POP",100,100
"5d9c8a8033801b00145a6803",3,"Large vs small C","STENCH","SMELL","Study1","F","JOL_Small",3593,85,4396,"SMELL",100,100
"5d9c8a8033801b00145a6803",3,"Large vs small C","STING","HORNET","Study1","B","JOL_Small",4048,36,3380,"BEE",22.222222222222,0
"5d9c8a8033801b00145a6803",3,"Large vs small C","STOMACH","DIGESTION","Study1","B","JOL_Small",4897,65,6061,"DIGESTION",100,100
"5d9c8a8033801b00145a6803",3,"Large vs small C","TALK","DISCUSSION","Study1","B","JOL_Small",4172,71,3662,"",0,0
"5d9c8a8033801b00145a6803",3,"Large vs small C","TOILET","BATHROOM","Study1","S","JOL_Small",5595,82,4659,"BATHROOM",100,100
"5d9c8a8033801b00145a6803",3,"Large vs small C","TUCK","ALLOW","Study1","U","JOL_Large",2458,44,4241,"",0,0
"5d9c8a8033801b00145a6803",3,"Large vs small C","VASE","KING","Study1","U","JOL_Small",3600,32,1513,"",0,0
"5d9c8a8033801b00145a6803",3,"Large vs small C","WAR","REVOLUTION","Study1","B","JOL_Large",3574,22,6554,"REVOLUTION",100,100
"5d9c8a8033801b00145a6803",3,"Large vs small C","WASP","BUG","Study1","F","JOL_Large",3057,88,4314,"STING",25,0
"5d9c8a8033801b00145a6803",3,"Large vs small C","WASTE","DUMP","Study1","S","JOL_Small",6041,83,15710,"DUMP",100,100
"5d9c8a8033801b00145a6803",3,"Large vs small C","WATER","BRIDGE","Study1","B","JOL_Large",7350,81,3406,"",0,0
"5d9c8a8033801b00145a6803",3,"Large vs small C","WIND","BLOW","Study1","S","JOL_Small",3535,87,5468,"BLOW",100,100
"5d9c8a8033801b00145a6803",3,"Large vs small C","WOMAN","LIFT","Study1","U","JOL_Large",3079,40,1415,"",0,0
"5d9c8a8033801b00145a6803",3,"Large vs small C","WORD","SENTENCE","Study1","F","JOL_Large",4748,68,5539,"",0,0
"5d9c8a8033801b00145a6803",3,"Large vs small C","WOULD","CASH","Study1","U","JOL_Large",5386,35,2149,"",0,0
"5ef695acd994c4392445cce9",4,"Large vs small D","ACCIDENT","STRONG","Study1","U","JOL_Large",2296,0,7784,"pain ",20,0
"w10015293_bnp",4,"Large vs small D","ACCIDENT","STRONG","Study1","U","JOL_Large",3337,3,1858,"",0,0
"5ef695acd994c4392445cce9",4,"Large vs small D","ADD","VALLEY","Study1","U","JOL_Small",1713,0,3572,"subtract",14.285714285714,0
"w10015293_bnp",4,"Large vs small D","ADD","VALLEY","Study1","U","JOL_Small",2929,0,2710,"",0,0
"5ef695acd994c4392445cce9",4,"Large vs small D","AMOUNT","NUMBER","Study1","S","JOL_Small",2483,45,3870,"number",100,100
"w10015293_bnp",4,"Large vs small D","AMOUNT","NUMBER","Study1","S","JOL_Small",3966,10,3576,"",0,0
"5ef695acd994c4392445cce9",4,"Large vs small D","ASSIGNMENT","DUE","Study1","S","JOL_Large",5578,85,3142,"complete",18.181818181818,0
"w10015293_bnp",4,"Large vs small D","ASSIGNMENT","DUE","Study1","S","JOL_Small",2440,100,5136,"DUE",100,100
"5ef695acd994c4392445cce9",4,"Large vs small D","ATTIRE","CLOTHES","Study1","F","JOL_Small",4353,45,2478,"clothes",100,100
"w10015293_bnp",4,"Large vs small D","ATTIRE","CLOTHES","Study1","F","JOL_Large",3889,25,3369,"CLOTHES",100,100
"5ef695acd994c4392445cce9",4,"Large vs small D","ATTORNEY","LAW","Study1","F","JOL_Large",3306,100,1940,"law",100,100
"w10015293_bnp",4,"Large vs small D","ATTORNEY","LAW","Study1","F","JOL_Large",2945,100,3577,"LAW",100,100
"5ef695acd994c4392445cce9",4,"Large vs small D","BAD","DELINQUENT","Study1","B","JOL_Small",3206,30,7173,"delinquent ",100,100
"w10015293_bnp",4,"Large vs small D","BAD","DELINQUENT","Study1","B","JOL_Large",3778,9,1590,"GOOD",14.285714285714,0
"5ef695acd994c4392445cce9",4,"Large vs small D","BAR","GRILL","Study1","S","JOL_Small",5053,75,2270,"top",0,0
"w10015293_bnp",4,"Large vs small D","BAR","GRILL","Study1","S","JOL_Large",8783,90,2897,"",0,0
"5ef695acd994c4392445cce9",4,"Large vs small D","BEE","HONEY","Study1","S","JOL_Small",2131,80,4197,"sting",20,0
"w10015293_bnp",4,"Large vs small D","BEE","HONEY","Study1","S","JOL_Small",2415,100,2125,"HONEY",100,100
"5ef695acd994c4392445cce9",4,"Large vs small D","BELT","SOON","Study1","U","JOL_Small",1786,0,3754,"shackle",18.181818181818,0
"w10015293_bnp",4,"Large vs small D","BELT","SOON","Study1","U","JOL_Large",3029,10,2587,"LOOP",50,0
"5ef695acd994c4392445cce9",4,"Large vs small D","BIRD","SWAN","Study1","B","JOL_Small",3418,55,5320,"penguin",18.181818181818,0
"w10015293_bnp",4,"Large vs small D","BIRD","SWAN","Study1","B","JOL_Large",6567,50,6213,"",0,0
"5ef695acd994c4392445cce9",4,"Large vs small D","BLAZE","FIRE","Study1","F","JOL_Small",1757,20,2328,"fire",100,100
"w10015293_bnp",4,"Large vs small D","BLAZE","FIRE","Study1","F","JOL_Large",3101,6,3122,"",0,0
"5ef695acd994c4392445cce9",4,"Large vs small D","BRONZE","ARTERY","Study1","U","JOL_Small",1798,0,11684,"artery",100,100
"w10015293_bnp",4,"Large vs small D","BRONZE","ARTERY","Study1","U","JOL_Large",8979,15,2314,"MEDAL",18.181818181818,0
"5ef695acd994c4392445cce9",4,"Large vs small D","BUSINESS","DEATH","Study1","U","JOL_Small",4117,5,7909,"work",0,0
"w10015293_bnp",4,"Large vs small D","BUSINESS","DEATH","Study1","U","JOL_Small",2194,10,2696,"GAME",22.222222222222,0
"5ef695acd994c4392445cce9",4,"Large vs small D","CAR","HAPPY","Study1","U","JOL_Small",2004,0,7869,"happy",100,100
"w10015293_bnp",4,"Large vs small D","CAR","HAPPY","Study1","U","JOL_Small",14988,21,8592,"SEAT",22.222222222222,0
"5ef695acd994c4392445cce9",4,"Large vs small D","CARD","CREDIT","Study1","B","JOL_Small",2912,50,2009,"debit",54.545454545455,0
"w10015293_bnp",4,"Large vs small D","CARD","CREDIT","Study1","B","JOL_Small",2903,100,8891,"CREDIT",100,100
"5ef695acd994c4392445cce9",4,"Large vs small D","CAVE","DARK","Study1","F","JOL_Large",2128,100,1896,"dark",100,100
"w10015293_bnp",4,"Large vs small D","CAVE","DARK","Study1","F","JOL_Large",6236,0,1916,"IN",0,0
"5ef695acd994c4392445cce9",4,"Large vs small D","CHEESE","WINE","Study1","S","JOL_Large",2054,20,3291,"wine",100,100
"w10015293_bnp",4,"Large vs small D","CHEESE","WINE","Study1","S","JOL_Large",2245,0,1388,"",0,0
"5ef695acd994c4392445cce9",4,"Large vs small D","CHILD","BABY","Study1","S","JOL_Small",2877,95,4614,"baby",100,100
"w10015293_bnp",4,"Large vs small D","CHILD","BABY","Study1","S","JOL_Large",3388,90,6074,"",0,0
"5ef695acd994c4392445cce9",4,"Large vs small D","CHILI","HOT","Study1","F","JOL_Large",2437,100,1791,"hot",100,100
"w10015293_bnp",4,"Large vs small D","CHILI","HOT","Study1","F","JOL_Small",25022,100,10541,"SAUCE",0,0
"5ef695acd994c4392445cce9",4,"Large vs small D","CHORE","WORK","Study1","F","JOL_Large",1995,50,3844,"work",100,100
"w10015293_bnp",4,"Large vs small D","CHORE","WORK","Study1","F","JOL_Small",4100,50,27343,"WORK",100,100
"5ef695acd994c4392445cce9",4,"Large vs small D","CLEAN","HYGIENE","Study1","B","JOL_Large",2337,100,4231,"hygenic",71.428571428571,100
"w10015293_bnp",4,"Large vs small D","CLEAN","HYGIENE","Study1","B","JOL_Small",25152,40,1200,"",0,0
"5ef695acd994c4392445cce9",4,"Large vs small D","CLUTTER","PUSHER","Study1","U","JOL_Large",1820,0,1685,"mess",20,0
"w10015293_bnp",4,"Large vs small D","CLUTTER","PUSHER","Study1","U","JOL_Large",2346,0,1442,"",0,0
"5ef695acd994c4392445cce9",4,"Large vs small D","COLD","BITTER","Study1","B","JOL_Small",5026,90,1966,"shiver",50,0
"w10015293_bnp",4,"Large vs small D","COLD","BITTER","Study1","B","JOL_Small",42294,87,4876,"",0,0
"5ef695acd994c4392445cce9",4,"Large vs small D","COW","HERD","Study1","B","JOL_Large",3152,95,2803,"herd",100,100
"w10015293_bnp",4,"Large vs small D","COW","HERD","Study1","B","JOL_Large",5125,100,7342,"HERD",100,100
"5ef695acd994c4392445cce9",4,"Large vs small D","DEFINITION","MEANING","Study1","S","JOL_Large",3012,95,4478,"meaning",100,100
"w10015293_bnp",4,"Large vs small D","DEFINITION","MEANING","Study1","S","JOL_Large",3451,100,3086,"MEANING",100,100
"5ef695acd994c4392445cce9",4,"Large vs small D","DESIGN","ARCHITECTURE","Study1","S","JOL_Small",2169,20,6292,"interior",40,0
"w10015293_bnp",4,"Large vs small D","DESIGN","ARCHITECTURE","Study1","S","JOL_Small",3105,0,7865,"ARCHITCT",80,0
"5ef695acd994c4392445cce9",4,"Large vs small D","DIVISION","MATH","Study1","F","JOL_Large",1707,85,5565,"multiplication ",33.333333333333,0
"w10015293_bnp",4,"Large vs small D","DIVISION","MATH","Study1","F","JOL_Small",15563,20,2555,"MATH",100,100
"5ef695acd994c4392445cce9",4,"Large vs small D","DOG","PAW","Study1","B","JOL_Small",4668,80,3324,"paw",100,100
"w10015293_bnp",4,"Large vs small D","DOG","PAW","Study1","B","JOL_Large",6065,98,2452,"CAT",33.333333333333,0
"5ef695acd994c4392445cce9",4,"Large vs small D","DROWSY","SLEEP","Study1","F","JOL_Large",1728,55,2149,"sleepy",90.909090909091,100
"w10015293_bnp",4,"Large vs small D","DROWSY","SLEEP","Study1","F","JOL_Large",5290,10,2354,"SLEEP",100,100
"5ef695acd994c4392445cce9",4,"Large vs small D","END","BEGIN","Study1","S","JOL_Small",4579,75,8290,"begin",100,100
"w10015293_bnp",4,"Large vs small D","END","BEGIN","Study1","S","JOL_Large",2590,100,10956,"START",0,0
"5ef695acd994c4392445cce9",4,"Large vs small D","ENOUGH","FULL","Study1","F","JOL_Small",2836,100,2308,"full",100,100
"w10015293_bnp",4,"Large vs small D","ENOUGH","FULL","Study1","F","JOL_Small",2864,20,4218,"MORE",0,0
"5ef695acd994c4392445cce9",4,"Large vs small D","FAMINE","HUNGER","Study1","F","JOL_Small",3334,65,2696,"hunger",100,100
"w10015293_bnp",4,"Large vs small D","FAMINE","HUNGER","Study1","F","JOL_Small",4060,40,3741,"HUNGRY",83.333333333333,100
"5ef695acd994c4392445cce9",4,"Large vs small D","FANTASTIC","GREAT","Study1","F","JOL_Large",2740,70,3528,"great",100,100
"w10015293_bnp",4,"Large vs small D","FANTASTIC","GREAT","Study1","F","JOL_Small",3476,30,3100,"",0,0
"5ef695acd994c4392445cce9",4,"Large vs small D","FISH","TUNA","Study1","B","JOL_Large",2356,65,2691,"tuna",100,100
"w10015293_bnp",4,"Large vs small D","FISH","TUNA","Study1","B","JOL_Large",2143,100,3398,"TUNA",100,100
"5ef695acd994c4392445cce9",4,"Large vs small D","FLOOR","DISCOVER","Study1","U","JOL_Large",4361,25,3357,"discover",100,100
"w10015293_bnp",4,"Large vs small D","FLOOR","DISCOVER","Study1","U","JOL_Large",2093,0,4334,"",0,0
"5ef695acd994c4392445cce9",4,"Large vs small D","FLOWER","ORCHID","Study1","B","JOL_Large",2551,45,2690,"orchid",100,100
"w10015293_bnp",4,"Large vs small D","FLOWER","ORCHID","Study1","B","JOL_Small",4196,20,2630,"ORCHID",100,100
"5ef695acd994c4392445cce9",4,"Large vs small D","FOOT","SHOE","Study1","S","JOL_Large",2551,88,2996,"shoe",100,100
"w10015293_bnp",4,"Large vs small D","FOOT","SHOE","Study1","S","JOL_Small",2458,100,1846,"",0,0
"5ef695acd994c4392445cce9",4,"Large vs small D","FUTURE","PAST","Study1","S","JOL_Large",3691,55,3280,"past",100,100
"w10015293_bnp",4,"Large vs small D","FUTURE","PAST","Study1","S","JOL_Small",2542,100,2068,"PAST",100,100
"5ef695acd994c4392445cce9",4,"Large vs small D","GROWTH","HEIGHT","Study1","F","JOL_Small",6309,75,2422,"height",100,100
"w10015293_bnp",4,"Large vs small D","GROWTH","HEIGHT","Study1","F","JOL_Small",3574,70,2308,"",0,0
"5ef695acd994c4392445cce9",4,"Large vs small D","HAMMER","CHISEL","Study1","B","JOL_Small",2846,40,4038,"chisel",100,100
"w10015293_bnp",4,"Large vs small D","HAMMER","CHISEL","Study1","B","JOL_Small",8669,0,2708,"NAIL",40,0
"5ef695acd994c4392445cce9",4,"Large vs small D","HAND","FIX","Study1","U","JOL_Large",2790,85,4607,"finger",44.444444444444,0
"w10015293_bnp",4,"Large vs small D","HAND","FIX","Study1","U","JOL_Large",4560,20,6171,"SHAKE",0,0
"5ef695acd994c4392445cce9",4,"Large vs small D","HUNGRY","PARK","Study1","U","JOL_Large",4804,20,2981,"famine",20,0
"w10015293_bnp",4,"Large vs small D","HUNGRY","PARK","Study1","U","JOL_Large",1769,0,3078,"",0,0
"5ef695acd994c4392445cce9",4,"Large vs small D","JURY","TRIAL","Study1","S","JOL_Large",2033,99,4308,"trial",100,100
"w10015293_bnp",4,"Large vs small D","JURY","TRIAL","Study1","S","JOL_Small",2513,60,1816,"JUDGE",0,0
"5ef695acd994c4392445cce9",4,"Large vs small D","LATCH","KEY","Study1","F","JOL_Large",2592,45,7023,"key",100,100
"w10015293_bnp",4,"Large vs small D","LATCH","KEY","Study1","F","JOL_Large",3738,20,1611,"KEY",100,100
"5ef695acd994c4392445cce9",4,"Large vs small D","LION","ART","Study1","U","JOL_Small",1972,0,3078,"anger",50,0
"w10015293_bnp",4,"Large vs small D","LION","ART","Study1","U","JOL_Small",3460,20,1750,"ART",100,100
"5ef695acd994c4392445cce9",4,"Large vs small D","LIVER","KIDNEY","Study1","S","JOL_Large",4531,50,4792,"drink",36.363636363636,0
"w10015293_bnp",4,"Large vs small D","LIVER","KIDNEY","Study1","S","JOL_Small",3920,100,2960,"KIDNEY",100,100
"5ef695acd994c4392445cce9",4,"Large vs small D","MONEY","WAGE","Study1","B","JOL_Small",3012,80,4282,"card",25,0
"w10015293_bnp",4,"Large vs small D","MONEY","WAGE","Study1","B","JOL_Large",5697,10,9464,"",0,0
"5ef695acd994c4392445cce9",4,"Large vs small D","NEWS","EDITOR","Study1","B","JOL_Large",2759,10,6397,"outlet",16.666666666667,0
"w10015293_bnp",4,"Large vs small D","NEWS","EDITOR","Study1","B","JOL_Large",3428,30,5735,"LETTER",50,0
"5ef695acd994c4392445cce9",4,"Large vs small D","OUT","WAY","Study1","B","JOL_Small",4945,35,3921,"in",0,0
"w10015293_bnp",4,"Large vs small D","OUT","WAY","Study1","B","JOL_Large",5044,1,1996,"IN",0,0
"5ef695acd994c4392445cce9",4,"Large vs small D","PILOT","PLANE","Study1","F","JOL_Small",2493,80,4283,"plane",100,100
"w10015293_bnp",4,"Large vs small D","PILOT","PLANE","Study1","F","JOL_Small",5491,99,2907,"PLANE",100,100
"5ef695acd994c4392445cce9",4,"Large vs small D","PLANT","ROOT","Study1","B","JOL_Small",5531,75,14771,"cactus",20,0
"w10015293_bnp",4,"Large vs small D","PLANT","ROOT","Study1","B","JOL_Large",5875,50,6076,"TREES",22.222222222222,0
"5ef695acd994c4392445cce9",4,"Large vs small D","POSITION","MACHINE","Study1","U","JOL_Large",3442,15,2200,"",0,0
"w10015293_bnp",4,"Large vs small D","POSITION","MACHINE","Study1","U","JOL_Large",2206,0,2904,"TURN",18.181818181818,0
"5ef695acd994c4392445cce9",4,"Large vs small D","RACKET","BALL","Study1","F","JOL_Large",2273,65,6805,"ball",100,100
"w10015293_bnp",4,"Large vs small D","RACKET","BALL","Study1","F","JOL_Large",7289,20,10302,"BALL",100,100
"5ef695acd994c4392445cce9",4,"Large vs small D","RIDDLE","SUGAR","Study1","U","JOL_Small",2839,0,2788,"fun",25,0
"w10015293_bnp",4,"Large vs small D","RIDDLE","SUGAR","Study1","U","JOL_Small",4513,0,4058,"GUESS",20,0
"5ef695acd994c4392445cce9",4,"Large vs small D","ROCK","GEOLOGY","Study1","B","JOL_Large",2979,25,7925,"boulder",28.571428571429,0
"w10015293_bnp",4,"Large vs small D","ROCK","GEOLOGY","Study1","B","JOL_Large",14138,0,12243,"",0,0
"5ef695acd994c4392445cce9",4,"Large vs small D","ROUND","CIRCLE","Study1","S","JOL_Small",3108,85,2556,"circle",100,100
"w10015293_bnp",4,"Large vs small D","ROUND","CIRCLE","Study1","S","JOL_Small",4444,100,16061,"",0,0
"5ef695acd994c4392445cce9",4,"Large vs small D","SACKING","DIETARY","Study1","U","JOL_Large",3562,15,4448,"",0,0
"w10015293_bnp",4,"Large vs small D","SACKING","DIETARY","Study1","U","JOL_Small",8773,0,1434,"",0,0
"5ef695acd994c4392445cce9",4,"Large vs small D","SALAD","LETTUCE","Study1","S","JOL_Large",2106,85,2904,"lettuce",100,100
"w10015293_bnp",4,"Large vs small D","SALAD","LETTUCE","Study1","S","JOL_Large",3133,100,1505,"",0,0
"5ef695acd994c4392445cce9",4,"Large vs small D","SEIZE","TAKE","Study1","F","JOL_Small",2032,0,3417,"take",100,100
"w10015293_bnp",4,"Large vs small D","SEIZE","TAKE","Study1","F","JOL_Small",4541,30,1973,"TAKE",100,100
"5ef695acd994c4392445cce9",4,"Large vs small D","SICK","HIDE","Study1","U","JOL_Small",2325,50,2035,"ill",28.571428571429,0
"w10015293_bnp",4,"Large vs small D","SICK","HIDE","Study1","U","JOL_Large",3225,20,1460,"",0,0
"5ef695acd994c4392445cce9",4,"Large vs small D","SIGHT","DEBATE","Study1","U","JOL_Large",3105,10,3156,"see",44.444444444444,0
"w10015293_bnp",4,"Large vs small D","SIGHT","DEBATE","Study1","U","JOL_Small",16649,0,1448,"SEE",44.444444444444,0
"5ef695acd994c4392445cce9",4,"Large vs small D","SIP","DRINK","Study1","F","JOL_Small",1946,85,2554,"slurp",20,0
"w10015293_bnp",4,"Large vs small D","SIP","DRINK","Study1","F","JOL_Large",4326,80,4161,"DRINK",100,100
"5ef695acd994c4392445cce9",4,"Large vs small D","SITE","LOCATION","Study1","S","JOL_Large",3377,65,2490,"location",100,100
"w10015293_bnp",4,"Large vs small D","SITE","LOCATION","Study1","S","JOL_Small",5209,25,5267,"LOCATION",100,100
"5ef695acd994c4392445cce9",4,"Large vs small D","SODA","POP","Study1","S","JOL_Small",3133,50,1737,"pop",100,100
"w10015293_bnp",4,"Large vs small D","SODA","POP","Study1","S","JOL_Small",2239,100,2654,"POP",100,100
"5ef695acd994c4392445cce9",4,"Large vs small D","STENCH","SMELL","Study1","F","JOL_Large",4371,75,2203,"smell",100,100
"w10015293_bnp",4,"Large vs small D","STENCH","SMELL","Study1","F","JOL_Small",2597,100,4945,"SMELL",100,100
"5ef695acd994c4392445cce9",4,"Large vs small D","STING","HORNET","Study1","B","JOL_Small",1903,55,2037,"bee",22.222222222222,0
"w10015293_bnp",4,"Large vs small D","STING","HORNET","Study1","B","JOL_Large",5812,40,6378,"",0,0
"5ef695acd994c4392445cce9",4,"Large vs small D","STOMACH","DIGESTION","Study1","B","JOL_Small",2284,55,2044,"hurt",15.384615384615,0
"w10015293_bnp",4,"Large vs small D","STOMACH","DIGESTION","Study1","B","JOL_Small",2943,50,3341,"DIGEST",80,0
"5ef695acd994c4392445cce9",4,"Large vs small D","TALK","DISCUSSION","Study1","B","JOL_Large",2731,80,3280,"listen",37.5,0
"w10015293_bnp",4,"Large vs small D","TALK","DISCUSSION","Study1","B","JOL_Small",27885,0,4418,"",0,0
"5ef695acd994c4392445cce9",4,"Large vs small D","TOILET","BATHROOM","Study1","S","JOL_Small",2416,65,6666,"lavatory",37.5,0
"w10015293_bnp",4,"Large vs small D","TOILET","BATHROOM","Study1","S","JOL_Small",4094,70,6404,"SEAT",33.333333333333,0
"5ef695acd994c4392445cce9",4,"Large vs small D","TUCK","ALLOW","Study1","U","JOL_Small",2102,0,3195,"fold ",22.222222222222,0
"w10015293_bnp",4,"Large vs small D","TUCK","ALLOW","Study1","U","JOL_Large",2833,10,4707,"IN",0,0
"5ef695acd994c4392445cce9",4,"Large vs small D","VASE","KING","Study1","U","JOL_Large",2496,40,3888,"glass",22.222222222222,0
"w10015293_bnp",4,"Large vs small D","VASE","KING","Study1","U","JOL_Small",1808,0,9041,"GLASS",22.222222222222,0
"5ef695acd994c4392445cce9",4,"Large vs small D","WAR","REVOLUTION","Study1","B","JOL_Large",6398,5,6609,"disaster",11.111111111111,0
"w10015293_bnp",4,"Large vs small D","WAR","REVOLUTION","Study1","B","JOL_Large",1900,10,3131,"",0,0
"5ef695acd994c4392445cce9",4,"Large vs small D","WASP","BUG","Study1","F","JOL_Large",2162,100,2167,"bug",100,100
"w10015293_bnp",4,"Large vs small D","WASP","BUG","Study1","F","JOL_Large",3868,100,4138,"BUG",100,100
"5ef695acd994c4392445cce9",4,"Large vs small D","WASTE","DUMP","Study1","S","JOL_Small",3137,45,4011,"litter",0,0
"w10015293_bnp",4,"Large vs small D","WASTE","DUMP","Study1","S","JOL_Small",15037,0,2261,"TRASH",0,0
"5ef695acd994c4392445cce9",4,"Large vs small D","WATER","BRIDGE","Study1","B","JOL_Small",3142,65,6470,"drink",36.363636363636,0
"w10015293_bnp",4,"Large vs small D","WATER","BRIDGE","Study1","B","JOL_Large",9769,100,14193,"",0,0
"5ef695acd994c4392445cce9",4,"Large vs small D","WIND","BLOW","Study1","S","JOL_Large",2852,100,3016,"blow",100,100
"w10015293_bnp",4,"Large vs small D","WIND","BLOW","Study1","S","JOL_Small",14270,0,1473,"",0,0
"5ef695acd994c4392445cce9",4,"Large vs small D","WOMAN","LIFT","Study1","U","JOL_Large",3978,0,2877,"lift",100,100
"w10015293_bnp",4,"Large vs small D","WOMAN","LIFT","Study1","U","JOL_Large",13165,0,2060,"NOT",28.571428571429,0
"5ef695acd994c4392445cce9",4,"Large vs small D","WORD","SENTENCE","Study1","F","JOL_Small",3398,70,3212,"sentence",100,100
"w10015293_bnp",4,"Large vs small D","WORD","SENTENCE","Study1","F","JOL_Small",4334,100,6520,"",0,0
"5ef695acd994c4392445cce9",4,"Large vs small D","WOULD","CASH","Study1","U","JOL_Large",3889,10,5187,"money",0,0
"w10015293_bnp",4,"Large vs small D","WOULD","CASH","Study1","U","JOL_Large",7940,9,1112,"",0,0
"5ede2531cff15e047a4e356e",1,"Large vs small A","ADJOURN","END","Study2","F","JOL_Large",2939,0,7072,"time",28.571428571429,0
"5ede2531cff15e047a4e356e",1,"Large vs small A","AFFECTION","LOVE","Study2","F","JOL_Small",3828,70,3637,"love",100,100
"5ede2531cff15e047a4e356e",1,"Large vs small A","ALONE","LONELY","Study2","S","JOL_Small",9884,2,7315,"lonely",100,100
"5ede2531cff15e047a4e356e",1,"Large vs small A","BAD","VILLAIN","Study2","B","JOL_Large",6120,42,4942,"breath",15.384615384615,0
"5ede2531cff15e047a4e356e",1,"Large vs small A","BASEBALL","LEAGUE","Study2","B","JOL_Large",2902,90,13980,"catcher",30.769230769231,0
"5ede2531cff15e047a4e356e",1,"Large vs small A","BEST","FAVORITE","Study2","B","JOL_Small",4276,42,4892,"days",16.666666666667,0
"5ede2531cff15e047a4e356e",1,"Large vs small A","BIRD","PENGUIN","Study2","B","JOL_Large",4015,32,10737,"penguin",100,100
"5ede2531cff15e047a4e356e",1,"Large vs small A","BOTH","OUNCE","Study2","U","JOL_Large",6754,32,5466,"time",22.222222222222,0
"5ede2531cff15e047a4e356e",1,"Large vs small A","CACTUS","PLANT","Study2","F","JOL_Small",4334,34,4329,"plant",100,100
"5ede2531cff15e047a4e356e",1,"Large vs small A","CAKE","CLOTHES","Study2","U","JOL_Large",4987,20,7477,"decoration",11.764705882353,0
"5ede2531cff15e047a4e356e",1,"Large vs small A","CANDLE","WAX","Study2","S","JOL_Small",5181,80,4500,"light",0,0
"5ede2531cff15e047a4e356e",1,"Large vs small A","CAR","WINDSHIELD","Study2","B","JOL_Small",2705,34,4728,"drive",40,0
"5ede2531cff15e047a4e356e",1,"Large vs small A","CAT","PANTHER","Study2","B","JOL_Small",3281,50,5465,"dog",0,0
"5ede2531cff15e047a4e356e",1,"Large vs small A","CHERRY","RED","Study2","F","JOL_Small",3385,12,6995,"red",100,100
"5ede2531cff15e047a4e356e",1,"Large vs small A","CHILL","COLD","Study2","F","JOL_Small",14366,70,4582,"cold",100,100
"5ede2531cff15e047a4e356e",1,"Large vs small A","CHOP","CUT","Study2","F","JOL_Large",4432,34,5155,"sticks",22.222222222222,0
"5ede2531cff15e047a4e356e",1,"Large vs small A","CLUE","GAME","Study2","F","JOL_Large",3327,45,4005,"game",100,100
"5ede2531cff15e047a4e356e",1,"Large vs small A","CRACKLE","ABLE","Study2","U","JOL_Small",2760,12,3751,"pop",0,0
"5ede2531cff15e047a4e356e",1,"Large vs small A","DEAD","COFFIN","Study2","B","JOL_Small",4024,45,3279,"wood",20,0
"5ede2531cff15e047a4e356e",1,"Large vs small A","DETECTIVE","MYSTERY","Study2","F","JOL_Small",4280,72,3023,"cop",0,0
"5ede2531cff15e047a4e356e",1,"Large vs small A","DINE","EAT","Study2","F","JOL_Large",6381,36,8868,"eat",100,100
"5ede2531cff15e047a4e356e",1,"Large vs small A","DOCUMENT","PAPER","Study2","F","JOL_Large",4610,2,4966,"paper",100,100
"5ede2531cff15e047a4e356e",1,"Large vs small A","DRIVER","CAR","Study2","F","JOL_Small",4135,59,3703,"car",100,100
"5ede2531cff15e047a4e356e",1,"Large vs small A","DRY","WET","Study2","S","JOL_Small",2986,23,6632,"wet",100,100
"5ede2531cff15e047a4e356e",1,"Large vs small A","EARTH","GROUND","Study2","S","JOL_Large",6970,21,6883,"ground",100,100
"5ede2531cff15e047a4e356e",1,"Large vs small A","ELEMENT","CARBON","Study2","S","JOL_Large",6491,19,14699,"carbon",100,100
"5ede2531cff15e047a4e356e",1,"Large vs small A","EVEN","REVENGE","Study2","B","JOL_Large",4508,9,4809,"number",30.769230769231,0
"5ede2531cff15e047a4e356e",1,"Large vs small A","EXTENSION","LONG","Study2","F","JOL_Small",5522,78,8401,"length",60,0
"5ede2531cff15e047a4e356e",1,"Large vs small A","FEUD","FIGHT","Study2","F","JOL_Large",28562,60,4462,"fight",100,100
"5ede2531cff15e047a4e356e",1,"Large vs small A","FIGHT","BRAWL","Study2","B","JOL_Large",4713,31,19808,"war",25,0
"5ede2531cff15e047a4e356e",1,"Large vs small A","FISH","SARDINE","Study2","B","JOL_Large",4092,79,6964,"sardine",100,100
"5ede2531cff15e047a4e356e",1,"Large vs small A","FLEA","TICK","Study2","S","JOL_Small",5919,12,4985,"ticks",88.888888888889,100
"5ede2531cff15e047a4e356e",1,"Large vs small A","FRUIT","STRAWBERRY","Study2","B","JOL_Small",9216,13,22302,"strawberries",81.818181818182,100
"5ede2531cff15e047a4e356e",1,"Large vs small A","FURRY","DOG","Study2","F","JOL_Small",5325,69,7221,"",0,0
"5ede2531cff15e047a4e356e",1,"Large vs small A","FUZZY","BANG","Study2","U","JOL_Large",3300,2,5838,"paws",25,0
"5ede2531cff15e047a4e356e",1,"Large vs small A","GIVE","STEAK","Study2","U","JOL_Small",6948,23,3409,"away",22.222222222222,0
"5ede2531cff15e047a4e356e",1,"Large vs small A","GLASS","BREAKABLE","Study2","B","JOL_Small",5475,56,14531,"clear",28.571428571429,0
"5ede2531cff15e047a4e356e",1,"Large vs small A","GONE","AWAY","Study2","S","JOL_Large",4465,23,7053,"away",100,100
"5ede2531cff15e047a4e356e",1,"Large vs small A","HONEST","TRUTHFUL","Study2","B","JOL_Small",5786,80,5944,"",0,0
"5ede2531cff15e047a4e356e",1,"Large vs small A","INCENSE","SMELL","Study2","F","JOL_Large",4362,45,4778,"smell",100,100
"5ede2531cff15e047a4e356e",1,"Large vs small A","JUSTICE","MAROON","Study2","U","JOL_Large",7209,43,8680,"law",22.222222222222,0
"5ede2531cff15e047a4e356e",1,"Large vs small A","KEYS","JOKE","Study2","U","JOL_Small",3078,0,4319,"lock",50,0
"5ede2531cff15e047a4e356e",1,"Large vs small A","LEASE","TOIL","Study2","U","JOL_Small",12723,21,3593,"let",28.571428571429,0
"5ede2531cff15e047a4e356e",1,"Large vs small A","LISTEN","FICTION","Study2","U","JOL_Small",4092,0,5575,"noise",16.666666666667,0
"5ede2531cff15e047a4e356e",1,"Large vs small A","LITTER","TRASH","Study2","F","JOL_Small",9509,52,4631,"trash",100,100
"5ede2531cff15e047a4e356e",1,"Large vs small A","LOAN","SIGN","Study2","U","JOL_Large",7256,45,6559,"credit",20,0
"5ede2531cff15e047a4e356e",1,"Large vs small A","LOUD","NOISE","Study2","S","JOL_Large",5204,80,5012,"noise",100,100
"5ede2531cff15e047a4e356e",1,"Large vs small A","MAIN","SCAR","Study2","U","JOL_Large",13722,2,11214,"hall",25,0
"5ede2531cff15e047a4e356e",1,"Large vs small A","MASON","JAR","Study2","S","JOL_Large",3000,1,8689,"brick",25,0
"5ede2531cff15e047a4e356e",1,"Large vs small A","MAZE","ELECTION","Study2","U","JOL_Large",12104,34,7130,"maize",15.384615384615,0
"5ede2531cff15e047a4e356e",1,"Large vs small A","MEAT","OBTAIN","Study2","U","JOL_Small",4954,10,20630,"",0,0
"5ede2531cff15e047a4e356e",1,"Large vs small A","MIRROR","CHILDREN","Study2","U","JOL_Small",15178,7,8377,"reflection",33.333333333333,0
"5ede2531cff15e047a4e356e",1,"Large vs small A","MOAT","CLEAR","Study2","U","JOL_Small",4956,69,5540,"castle",54.545454545455,0
"5ede2531cff15e047a4e356e",1,"Large vs small A","MONEY","BANKER","Study2","B","JOL_Small",3232,60,4966,"tree",20,0
"5ede2531cff15e047a4e356e",1,"Large vs small A","MULE","DONKEY","Study2","F","JOL_Large",10307,56,5178,"donkey",100,100
"5ede2531cff15e047a4e356e",1,"Large vs small A","NAME","HATE","Study2","U","JOL_Small",9312,20,6401,"",0,0
"5ede2531cff15e047a4e356e",1,"Large vs small A","OWN","HAVE","Study2","S","JOL_Small",4675,70,5129,"goal",25,0
"5ede2531cff15e047a4e356e",1,"Large vs small A","PHONE","COMMUNICATION","Study2","S","JOL_Large",10777,60,4688,"number",10.526315789474,0
"5ede2531cff15e047a4e356e",1,"Large vs small A","PLANE","AIRCRAFT","Study2","B","JOL_Small",5336,70,22240,"pilot",30.769230769231,0
"5ede2531cff15e047a4e356e",1,"Large vs small A","POP","BALLOON","Study2","B","JOL_Large",5375,8,6088,"bubble",30.769230769231,0
"5ede2531cff15e047a4e356e",1,"Large vs small A","RAZOR","SHAVE","Study2","S","JOL_Large",7193,78,5052,"shave",100,100
"5ede2531cff15e047a4e356e",1,"Large vs small A","RIGHTS","EQUAL","Study2","S","JOL_Small",3496,40,7272,"human",40,0
"5ede2531cff15e047a4e356e",1,"Large vs small A","ROD","REEL","Study2","S","JOL_Large",4135,1,17446,"",0,0
"5ede2531cff15e047a4e356e",1,"Large vs small A","SAFETY","SEATBELT","Study2","S","JOL_Large",3754,64,7516,"seatbelt",100,100
"5ede2531cff15e047a4e356e",1,"Large vs small A","SCALP","HEAD","Study2","F","JOL_Large",7952,56,3857,"head",100,100
"5ede2531cff15e047a4e356e",1,"Large vs small A","SHEARS","SCISSORS","Study2","F","JOL_Small",3969,75,15794,"scissors ",100,100
"5ede2531cff15e047a4e356e",1,"Large vs small A","SHELL","SHAKE","Study2","U","JOL_Large",3687,34,5703,"sea",50,0
"5ede2531cff15e047a4e356e",1,"Large vs small A","SHOELACE","TIE","Study2","F","JOL_Small",4608,23,7548,"tie",100,100
"5ede2531cff15e047a4e356e",1,"Large vs small A","SLEEP","NAP","Study2","B","JOL_Small",3495,23,6715,"awake",25,0
"5ede2531cff15e047a4e356e",1,"Large vs small A","STAR","ACTRESS","Study2","B","JOL_Large",4308,12,4375,"turn",36.363636363636,0
"5ede2531cff15e047a4e356e",1,"Large vs small A","STRETCH","CLOTH","Study2","U","JOL_Large",6038,42,5965,"pants",20,0
"5ede2531cff15e047a4e356e",1,"Large vs small A","SUN","TAN","Study2","S","JOL_Large",3923,100,5060,"news",28.571428571429,0
"5ede2531cff15e047a4e356e",1,"Large vs small A","TANTRUM","TEMPER","Study2","S","JOL_Small",3545,3,5207,"cry",22.222222222222,0
"5ede2531cff15e047a4e356e",1,"Large vs small A","TEMPERATURE","MORNING","Study2","U","JOL_Small",4394,0,5726,"heat",0,0
"5ede2531cff15e047a4e356e",1,"Large vs small A","THREAD","THIMBLE","Study2","B","JOL_Large",3090,45,17645,"line",36.363636363636,0
"5ede2531cff15e047a4e356e",1,"Large vs small A","TRUTH","LIE","Study2","S","JOL_Small",4086,52,3690,"lie",100,100
"5ede2531cff15e047a4e356e",1,"Large vs small A","TURN","FLIP","Study2","B","JOL_Large",3337,28,6395,"left",25,0
"5ede2531cff15e047a4e356e",1,"Large vs small A","VEHICLE","CHARM","Study2","U","JOL_Small",2850,34,7326,"move",22.222222222222,0
"5ede2531cff15e047a4e356e",1,"Large vs small A","WATER","DRINK","Study2","S","JOL_Large",3917,12,5031,"drink",100,100
"5ede2531cff15e047a4e356e",1,"Large vs small A","WRIST","BRACELET","Study2","S","JOL_Large",4634,23,5838,"arm",18.181818181818,0
"5db0cfa9c2978c001923d74d",2,"Large vs small B","ADJOURN","END","Study2","F","JOL_Large",3187,50,5745,"together",18.181818181818,0
"5db0cfa9c2978c001923d74d",2,"Large vs small B","AFFECTION","LOVE","Study2","F","JOL_Large",3744,80,2566,"love",100,100
"5db0cfa9c2978c001923d74d",2,"Large vs small B","ALONE","LONELY","Study2","S","JOL_Small",2930,60,2960,"lonely",100,100
"5db0cfa9c2978c001923d74d",2,"Large vs small B","BAD","VILLAIN","Study2","B","JOL_Small",2522,66,2030,"good",0,0
"5db0cfa9c2978c001923d74d",2,"Large vs small B","BASEBALL","LEAGUE","Study2","B","JOL_Large",7919,59,3446,"glove",36.363636363636,0
"5db0cfa9c2978c001923d74d",2,"Large vs small B","BEST","FAVORITE","Study2","B","JOL_Large",2678,88,5813,"worst",46.153846153846,0
"5db0cfa9c2978c001923d74d",2,"Large vs small B","BIRD","PENGUIN","Study2","B","JOL_Large",3093,77,4935,"penguin",100,100
"5db0cfa9c2978c001923d74d",2,"Large vs small B","BOTH","OUNCE","Study2","U","JOL_Small",3730,67,9432,"together",30.769230769231,0
"5db0cfa9c2978c001923d74d",2,"Large vs small B","CACTUS","PLANT","Study2","F","JOL_Large",4450,78,2120,"plant",100,100
"5db0cfa9c2978c001923d74d",2,"Large vs small B","CAKE","CLOTHES","Study2","U","JOL_Small",2874,90,5816,"fruit",16.666666666667,0
"5db0cfa9c2978c001923d74d",2,"Large vs small B","CANDLE","WAX","Study2","S","JOL_Small",3771,50,2600,"light",0,0
"5db0cfa9c2978c001923d74d",2,"Large vs small B","CAR","WINDSHIELD","Study2","B","JOL_Small",5040,49,3810,"driver",37.5,0
"5db0cfa9c2978c001923d74d",2,"Large vs small B","CAT","PANTHER","Study2","B","JOL_Large",4403,50,3968,"panther",100,100
"5db0cfa9c2978c001923d74d",2,"Large vs small B","CHERRY","RED","Study2","F","JOL_Small",3274,89,2441,"tree",57.142857142857,0
"5db0cfa9c2978c001923d74d",2,"Large vs small B","CHILL","COLD","Study2","F","JOL_Large",2843,56,4609,"hang",0,0
"5db0cfa9c2978c001923d74d",2,"Large vs small B","CHOP","CUT","Study2","F","JOL_Large",3570,77,4194,"prepare",0,0
"5db0cfa9c2978c001923d74d",2,"Large vs small B","CLUE","GAME","Study2","F","JOL_Large",2256,66,4694,"detective",15.384615384615,0
"5db0cfa9c2978c001923d74d",2,"Large vs small B","CRACKLE","ABLE","Study2","U","JOL_Large",2869,50,7867,"laugh",22.222222222222,0
"5db0cfa9c2978c001923d74d",2,"Large vs small B","DEAD","COFFIN","Study2","B","JOL_Small",3083,69,2852,"alive",18.181818181818,0
"5db0cfa9c2978c001923d74d",2,"Large vs small B","DETECTIVE","MYSTERY","Study2","F","JOL_Small",2714,90,3466,"mystery",100,100
"5db0cfa9c2978c001923d74d",2,"Large vs small B","DINE","EAT","Study2","F","JOL_Small",2395,90,3844,"food",0,0
"5db0cfa9c2978c001923d74d",2,"Large vs small B","DOCUMENT","PAPER","Study2","F","JOL_Small",2654,60,2366,"paper",100,100
"5db0cfa9c2978c001923d74d",2,"Large vs small B","DRIVER","CAR","Study2","F","JOL_Large",2857,60,1992,"car",100,100
"5db0cfa9c2978c001923d74d",2,"Large vs small B","DRY","WET","Study2","S","JOL_Small",4603,70,3261,"Wet",100,100
"5db0cfa9c2978c001923d74d",2,"Large vs small B","EARTH","GROUND","Study2","S","JOL_Large",3199,40,4865,"Ground",100,100
"5db0cfa9c2978c001923d74d",2,"Large vs small B","ELEMENT","CARBON","Study2","S","JOL_Large",8637,30,2937,"carbon",100,100
"5db0cfa9c2978c001923d74d",2,"Large vs small B","EVEN","REVENGE","Study2","B","JOL_Large",3599,89,3238,"odd",0,0
"5db0cfa9c2978c001923d74d",2,"Large vs small B","EXTENSION","LONG","Study2","F","JOL_Large",3660,60,5727,"big",28.571428571429,0
"5db0cfa9c2978c001923d74d",2,"Large vs small B","FEUD","FIGHT","Study2","F","JOL_Large",3361,69,2237,"fight",100,100
"5db0cfa9c2978c001923d74d",2,"Large vs small B","FIGHT","BRAWL","Study2","B","JOL_Large",3796,50,3382,"feud",0,0
"5db0cfa9c2978c001923d74d",2,"Large vs small B","FISH","SARDINE","Study2","B","JOL_Large",4175,56,4255,"shrimp",46.153846153846,0
"5db0cfa9c2978c001923d74d",2,"Large vs small B","FLEA","TICK","Study2","S","JOL_Small",4414,38,2251,"tick",100,100
"5db0cfa9c2978c001923d74d",2,"Large vs small B","FRUIT","STRAWBERRY","Study2","B","JOL_Large",3880,66,3095,"banana",12.5,0
"5db0cfa9c2978c001923d74d",2,"Large vs small B","FURRY","DOG","Study2","F","JOL_Large",3458,90,4012,"brow",28.571428571429,0
"5db0cfa9c2978c001923d74d",2,"Large vs small B","FUZZY","BANG","Study2","U","JOL_Small",2835,77,2111,"bear",50,0
"5db0cfa9c2978c001923d74d",2,"Large vs small B","GIVE","STEAK","Study2","U","JOL_Small",2052,60,4553,"recieve",16.666666666667,0
"5db0cfa9c2978c001923d74d",2,"Large vs small B","GLASS","BREAKABLE","Study2","B","JOL_Small",8315,50,2737,"broken",53.333333333333,0
"5db0cfa9c2978c001923d74d",2,"Large vs small B","GONE","AWAY","Study2","S","JOL_Small",2900,50,4320,"away",100,100
"5db0cfa9c2978c001923d74d",2,"Large vs small B","HONEST","TRUTHFUL","Study2","B","JOL_Large",3272,70,8582,"truthful",100,100
"5db0cfa9c2978c001923d74d",2,"Large vs small B","INCENSE","SMELL","Study2","F","JOL_Small",5614,80,4241,"light",20,0
"5db0cfa9c2978c001923d74d",2,"Large vs small B","JUSTICE","MAROON","Study2","U","JOL_Small",3330,37,2109,"law",22.222222222222,0
"5db0cfa9c2978c001923d74d",2,"Large vs small B","KEYS","JOKE","Study2","U","JOL_Small",4210,89,3495,"door",25,0
"5db0cfa9c2978c001923d74d",2,"Large vs small B","LEASE","TOIL","Study2","U","JOL_Large",2639,70,4251,"own",28.571428571429,0
"5db0cfa9c2978c001923d74d",2,"Large vs small B","LISTEN","FICTION","Study2","U","JOL_Small",5153,50,2998,"ear",0,0
"5db0cfa9c2978c001923d74d",2,"Large vs small B","LITTER","TRASH","Study2","F","JOL_Large",3736,56,4760,"trash",100,100
"5db0cfa9c2978c001923d74d",2,"Large vs small B","LOAN","SIGN","Study2","U","JOL_Small",3444,67,3756,"bank",25,0
"5db0cfa9c2978c001923d74d",2,"Large vs small B","LOUD","NOISE","Study2","S","JOL_Small",2315,80,3416,"quiet",40,0
"5db0cfa9c2978c001923d74d",2,"Large vs small B","MAIN","SCAR","Study2","U","JOL_Small",6354,44,3870,"now",0,0
"5db0cfa9c2978c001923d74d",2,"Large vs small B","MASON","JAR","Study2","S","JOL_Small",2710,87,6731,"loft",0,0
"5db0cfa9c2978c001923d74d",2,"Large vs small B","MAZE","ELECTION","Study2","U","JOL_Large",8506,56,9100,"justice",26.666666666667,0
"5db0cfa9c2978c001923d74d",2,"Large vs small B","MEAT","OBTAIN","Study2","U","JOL_Large",2000,70,4800,"butcher",30.769230769231,0
"5db0cfa9c2978c001923d74d",2,"Large vs small B","MIRROR","CHILDREN","Study2","U","JOL_Small",4321,60,4674,"children",100,100
"5db0cfa9c2978c001923d74d",2,"Large vs small B","MOAT","CLEAR","Study2","U","JOL_Small",2635,70,4241,"water",40,0
"5db0cfa9c2978c001923d74d",2,"Large vs small B","MONEY","BANKER","Study2","B","JOL_Small",2965,70,3288,"heist",18.181818181818,0
"5db0cfa9c2978c001923d74d",2,"Large vs small B","MULE","DONKEY","Study2","F","JOL_Small",3212,80,2852,"donkey",100,100
"5db0cfa9c2978c001923d74d",2,"Large vs small B","NAME","HATE","Study2","U","JOL_Small",5491,70,9128,"said",25,0
"5db0cfa9c2978c001923d74d",2,"Large vs small B","OWN","HAVE","Study2","S","JOL_Large",5073,60,2466,"house",44.444444444444,0
"5db0cfa9c2978c001923d74d",2,"Large vs small B","PHONE","COMMUNICATION","Study2","S","JOL_Small",4583,60,2055,"call",23.529411764706,0
"5db0cfa9c2978c001923d74d",2,"Large vs small B","PLANE","AIRCRAFT","Study2","B","JOL_Large",3746,46,3650,"aircraft",100,100
"5db0cfa9c2978c001923d74d",2,"Large vs small B","POP","BALLOON","Study2","B","JOL_Small",2781,90,4815,"Balloon",100,100
"5db0cfa9c2978c001923d74d",2,"Large vs small B","RAZOR","SHAVE","Study2","S","JOL_Large",2506,66,3091,"shave",100,100
"5db0cfa9c2978c001923d74d",2,"Large vs small B","RIGHTS","EQUAL","Study2","S","JOL_Large",3987,33,2621,"law",25,0
"5db0cfa9c2978c001923d74d",2,"Large vs small B","ROD","REEL","Study2","S","JOL_Small",3796,40,6185,"riddle",40,0
"5db0cfa9c2978c001923d74d",2,"Large vs small B","SAFETY","SEATBELT","Study2","S","JOL_Small",3250,50,1983,"net",36.363636363636,0
"5db0cfa9c2978c001923d74d",2,"Large vs small B","SCALP","HEAD","Study2","F","JOL_Large",2253,80,1856,"head",100,100
"5db0cfa9c2978c001923d74d",2,"Large vs small B","SHEARS","SCISSORS","Study2","F","JOL_Large",2655,76,4028,"bush",16.666666666667,0
"5db0cfa9c2978c001923d74d",2,"Large vs small B","SHELL","SHAKE","Study2","U","JOL_Small",3289,50,3291,"stone",40,0
"5db0cfa9c2978c001923d74d",2,"Large vs small B","SHOELACE","TIE","Study2","F","JOL_Large",4359,77,2607,"tie",100,100
"5db0cfa9c2978c001923d74d",2,"Large vs small B","SLEEP","NAP","Study2","B","JOL_Large",2568,77,3209,"nap",100,100
"5db0cfa9c2978c001923d74d",2,"Large vs small B","STAR","ACTRESS","Study2","B","JOL_Small",2533,40,4086,"moon",0,0
"5db0cfa9c2978c001923d74d",2,"Large vs small B","STRETCH","CLOTH","Study2","U","JOL_Small",2925,67,4268,"reach",40,0
"5db0cfa9c2978c001923d74d",2,"Large vs small B","SUN","TAN","Study2","S","JOL_Large",2688,90,7375,"sand",57.142857142857,0
"5db0cfa9c2978c001923d74d",2,"Large vs small B","TANTRUM","TEMPER","Study2","S","JOL_Large",4919,70,3487,"cry",22.222222222222,0
"5db0cfa9c2978c001923d74d",2,"Large vs small B","TEMPERATURE","MORNING","Study2","U","JOL_Small",3281,89,3704,"Heat",0,0
"5db0cfa9c2978c001923d74d",2,"Large vs small B","THREAD","THIMBLE","Study2","B","JOL_Large",4194,78,3932,"thimble",100,100
"5db0cfa9c2978c001923d74d",2,"Large vs small B","TRUTH","LIE","Study2","S","JOL_Large",2649,68,2222,"lie",100,100
"5db0cfa9c2978c001923d74d",2,"Large vs small B","TURN","FLIP","Study2","B","JOL_Large",4473,57,4533,"twist",22.222222222222,0
"5db0cfa9c2978c001923d74d",2,"Large vs small B","VEHICLE","CHARM","Study2","U","JOL_Small",6028,49,3808,"car",75,0
"5db0cfa9c2978c001923d74d",2,"Large vs small B","WATER","DRINK","Study2","S","JOL_Small",3433,60,6662,"drink",100,100
"5db0cfa9c2978c001923d74d",2,"Large vs small B","WRIST","BRACELET","Study2","S","JOL_Large",5686,67,8544,"Watch",30.769230769231,0
"5d9c8a8033801b00145a6803",3,"Large vs small C","ABLE","CRACKLE","Study2","U","JOL_Large",5462,13,1425,"",0,0
"5d9c8a8033801b00145a6803",3,"Large vs small C","ACTRESS","STAR","Study2","F","JOL_Large",4178,56,2965,"STAR",100,100
"5d9c8a8033801b00145a6803",3,"Large vs small C","AIRCRAFT","PLANE","Study2","F","JOL_Large",7546,57,3218,"PILOT",40,0
"5d9c8a8033801b00145a6803",3,"Large vs small C","AWAY","GONE","Study2","S","JOL_Small",6545,57,1651,"",0,0
"5d9c8a8033801b00145a6803",3,"Large vs small C","BALLOON","POP","Study2","F","JOL_Small",3466,67,4474,"POP",100,100
"5d9c8a8033801b00145a6803",3,"Large vs small C","BANG","FUZZY","Study2","U","JOL_Large",6582,21,993,"",0,0
"5d9c8a8033801b00145a6803",3,"Large vs small C","BANKER","MONEY","Study2","F","JOL_Large",3500,66,9977,"",0,0
"5d9c8a8033801b00145a6803",3,"Large vs small C","BRACELET","WRIST","Study2","S","JOL_Small",6187,50,3116,"WRIST",100,100
"5d9c8a8033801b00145a6803",3,"Large vs small C","BRAWL","FIGHT","Study2","F","JOL_Large",2882,66,14147,"FIGHT",100,100
"5d9c8a8033801b00145a6803",3,"Large vs small C","BREAKABLE","GLASS","Study2","F","JOL_Small",5879,61,4022,"ABLE",22.222222222222,0
"5d9c8a8033801b00145a6803",3,"Large vs small C","CAR","DRIVER","Study2","B","JOL_Large",4392,65,9236,"WINDSHIELD",25,0
"5d9c8a8033801b00145a6803",3,"Large vs small C","CARBON","ELEMENT","Study2","S","JOL_Small",3043,11,3241,"",0,0
"5d9c8a8033801b00145a6803",3,"Large vs small C","CHARM","VEHICLE","Study2","U","JOL_Large",4086,15,2055,"",0,0
"5d9c8a8033801b00145a6803",3,"Large vs small C","CHILDREN","MIRROR","Study2","U","JOL_Large",5040,21,3507,"",0,0
"5d9c8a8033801b00145a6803",3,"Large vs small C","CLEAR","MOAT","Study2","U","JOL_Small",5290,12,3345,"",0,0
"5d9c8a8033801b00145a6803",3,"Large vs small C","CLOTH","STRETCH","Study2","U","JOL_Small",5910,23,5954,"",0,0
"5d9c8a8033801b00145a6803",3,"Large vs small C","CLOTHES","CAKE","Study2","U","JOL_Small",3252,24,2954,"",0,0
"5d9c8a8033801b00145a6803",3,"Large vs small C","COFFIN","DEAD","Study2","F","JOL_Large",3100,88,2784,"DEAD",100,100
"5d9c8a8033801b00145a6803",3,"Large vs small C","COLD","CHILL","Study2","B","JOL_Small",4222,56,7362,"CHILL",100,100
"5d9c8a8033801b00145a6803",3,"Large vs small C","COMMUNICATION","PHONE","Study2","S","JOL_Small",6129,61,12105,"PHONE",100,100
"5d9c8a8033801b00145a6803",3,"Large vs small C","CUT","CHOP","Study2","B","JOL_Small",3600,60,7555,"",0,0
"5d9c8a8033801b00145a6803",3,"Large vs small C","DOG","FURRY","Study2","B","JOL_Small",3032,55,14634,"FURRY",100,100
"5d9c8a8033801b00145a6803",3,"Large vs small C","DONKEY","MULE","Study2","B","JOL_Large",3348,66,4931,"MULE",100,100
"5d9c8a8033801b00145a6803",3,"Large vs small C","DRINK","WATER","Study2","S","JOL_Large",4838,62,3053,"WATER",100,100
"5d9c8a8033801b00145a6803",3,"Large vs small C","EAT","DINE","Study2","B","JOL_Large",3903,74,5254,"",0,0
"5d9c8a8033801b00145a6803",3,"Large vs small C","ELECTION","MAZE","Study2","U","JOL_Small",2743,23,2240,"",0,0
"5d9c8a8033801b00145a6803",3,"Large vs small C","END","ADJOURN","Study2","B","JOL_Small",4065,45,26445,"",0,0
"5d9c8a8033801b00145a6803",3,"Large vs small C","EQUAL","RIGHTS","Study2","S","JOL_Small",3274,58,3815,"RIGHTS",100,100
"5d9c8a8033801b00145a6803",3,"Large vs small C","FAVORITE","BEST","Study2","F","JOL_Large",3370,78,3030,"BEST",100,100
"5d9c8a8033801b00145a6803",3,"Large vs small C","FICTION","LISTEN","Study2","U","JOL_Large",4121,23,2568,"",0,0
"5d9c8a8033801b00145a6803",3,"Large vs small C","FIGHT","FEUD","Study2","B","JOL_Small",6704,12,3051,"BRAWL",0,0
"5d9c8a8033801b00145a6803",3,"Large vs small C","FLIP","TURN","Study2","F","JOL_Small",8457,41,3672,"TURN",100,100
"5d9c8a8033801b00145a6803",3,"Large vs small C","GAME","CLUE","Study2","B","JOL_Small",4251,24,7185,"CLUE",100,100
"5d9c8a8033801b00145a6803",3,"Large vs small C","GROUND","EARTH","Study2","S","JOL_Small",5033,41,2421,"",0,0
"5d9c8a8033801b00145a6803",3,"Large vs small C","HATE","NAME","Study2","U","JOL_Small",4514,11,901,"",0,0
"5d9c8a8033801b00145a6803",3,"Large vs small C","HAVE","OWN","Study2","S","JOL_Large",6321,62,2380,"",0,0
"5d9c8a8033801b00145a6803",3,"Large vs small C","HEAD","SCALP","Study2","B","JOL_Small",4627,33,3014,"SCALP",100,100
"5d9c8a8033801b00145a6803",3,"Large vs small C","JAR","MASON","Study2","S","JOL_Large",8606,21,2919,"MASON",100,100
"5d9c8a8033801b00145a6803",3,"Large vs small C","JOKE","KEYS","Study2","U","JOL_Large",5405,31,2851,"",0,0
"5d9c8a8033801b00145a6803",3,"Large vs small C","LEAGUE","BASEBALL","Study2","F","JOL_Large",3766,55,4924,"BASEBALL",100,100
"5d9c8a8033801b00145a6803",3,"Large vs small C","LIE","TRUTH","Study2","S","JOL_Small",2449,84,4554,"",0,0
"5d9c8a8033801b00145a6803",3,"Large vs small C","LONELY","ALONE","Study2","S","JOL_Large",5071,78,3397,"ALONE",100,100
"5d9c8a8033801b00145a6803",3,"Large vs small C","LONG","EXTENSION","Study2","B","JOL_Small",5087,67,8432,"EXTENSION",100,100
"5d9c8a8033801b00145a6803",3,"Large vs small C","LOVE","AFFECTION","Study2","B","JOL_Small",6878,69,2460,"",0,0
"5d9c8a8033801b00145a6803",3,"Large vs small C","MAROON","JUSTICE","Study2","U","JOL_Large",6448,10,5394,"",0,0
"5d9c8a8033801b00145a6803",3,"Large vs small C","MORNING","TEMPERATURE","Study2","U","JOL_Small",3384,41,1818,"",0,0
"5d9c8a8033801b00145a6803",3,"Large vs small C","MYSTERY","DETECTIVE","Study2","B","JOL_Small",3313,54,2620,"",0,0
"5d9c8a8033801b00145a6803",3,"Large vs small C","NAP","SLEEP","Study2","F","JOL_Large",4261,84,2596,"SLEEP",100,100
"5d9c8a8033801b00145a6803",3,"Large vs small C","NOISE","LOUD","Study2","S","JOL_Large",7609,80,2856,"LOUD",100,100
"5d9c8a8033801b00145a6803",3,"Large vs small C","OBTAIN","MEAT","Study2","U","JOL_Large",3613,11,1722,"",0,0
"5d9c8a8033801b00145a6803",3,"Large vs small C","OUNCE","BOTH","Study2","U","JOL_Large",2573,11,1206,"",0,0
"5d9c8a8033801b00145a6803",3,"Large vs small C","PANTHER","CAT","Study2","F","JOL_Small",4570,64,3993,"CAT",100,100
"5d9c8a8033801b00145a6803",3,"Large vs small C","PAPER","DOCUMENT","Study2","B","JOL_Large",7135,35,5300,"DOCUMENT",100,100
"5d9c8a8033801b00145a6803",3,"Large vs small C","PENGUIN","BIRD","Study2","F","JOL_Large",3225,89,2996,"BIRD",100,100
"5d9c8a8033801b00145a6803",3,"Large vs small C","PLANT","CACTUS","Study2","B","JOL_Small",5144,66,2469,"",0,0
"5d9c8a8033801b00145a6803",3,"Large vs small C","RED","CHERRY","Study2","B","JOL_Small",5397,87,3984,"CHERRY",100,100
"5d9c8a8033801b00145a6803",3,"Large vs small C","REEL","ROD","Study2","S","JOL_Small",5377,23,2664,"",0,0
"5d9c8a8033801b00145a6803",3,"Large vs small C","REVENGE","EVEN","Study2","F","JOL_Large",6564,64,3628,"EVEN",100,100
"5d9c8a8033801b00145a6803",3,"Large vs small C","SARDINE","FISH","Study2","F","JOL_Large",9260,26,4421,"FISH",100,100
"5d9c8a8033801b00145a6803",3,"Large vs small C","SCAR","MAIN","Study2","U","JOL_Large",3317,21,1218,"",0,0
"5d9c8a8033801b00145a6803",3,"Large vs small C","SCISSORS","SHEARS","Study2","B","JOL_Large",4718,87,5174,"SHEARS",100,100
"5d9c8a8033801b00145a6803",3,"Large vs small C","SEATBELT","SAFETY","Study2","S","JOL_Small",4698,34,4918,"CAR",22.222222222222,0
"5d9c8a8033801b00145a6803",3,"Large vs small C","SHAKE","SHELL","Study2","U","JOL_Large",3046,13,1572,"",0,0
"5d9c8a8033801b00145a6803",3,"Large vs small C","SHAVE","RAZOR","Study2","S","JOL_Large",3157,89,3155,"RAZOR",100,100
"5d9c8a8033801b00145a6803",3,"Large vs small C","SIGN","LOAN","Study2","U","JOL_Large",7592,13,21715,"DOCUMENT",33.333333333333,0
"5d9c8a8033801b00145a6803",3,"Large vs small C","SMELL","INCENSE","Study2","B","JOL_Small",3619,44,8614,"INCENSE",100,100
"5d9c8a8033801b00145a6803",3,"Large vs small C","STEAK","GIVE","Study2","U","JOL_Small",2478,15,2186,"",0,0
"5d9c8a8033801b00145a6803",3,"Large vs small C","STRAWBERRY","FRUIT","Study2","F","JOL_Small",4604,64,2828,"FRUIT",100,100
"5d9c8a8033801b00145a6803",3,"Large vs small C","TAN","SUN","Study2","S","JOL_Small",2627,65,2469,"SUN",100,100
"5d9c8a8033801b00145a6803",3,"Large vs small C","TEMPER","TANTRUM","Study2","S","JOL_Large",2942,88,3609,"TANTRUM",100,100
"5d9c8a8033801b00145a6803",3,"Large vs small C","THIMBLE","THREAD","Study2","F","JOL_Large",3629,42,2054,"",0,0
"5d9c8a8033801b00145a6803",3,"Large vs small C","TICK","FLEA","Study2","S","JOL_Large",4338,26,3810,"FLEA",100,100
"5d9c8a8033801b00145a6803",3,"Large vs small C","TIE","SHOELACE","Study2","B","JOL_Small",4159,78,5833,"SHOELACE",100,100
"5d9c8a8033801b00145a6803",3,"Large vs small C","TOIL","LEASE","Study2","U","JOL_Small",2566,21,1301,"",0,0
"5d9c8a8033801b00145a6803",3,"Large vs small C","TRASH","LITTER","Study2","B","JOL_Large",6384,68,5152,"LITTER",100,100
"5d9c8a8033801b00145a6803",3,"Large vs small C","TRUTHFUL","HONEST","Study2","F","JOL_Large",4713,55,3171,"HONEST",100,100
"5d9c8a8033801b00145a6803",3,"Large vs small C","VILLAIN","BAD","Study2","F","JOL_Small",5448,35,3617,"BAD",100,100
"5d9c8a8033801b00145a6803",3,"Large vs small C","WAX","CANDLE","Study2","S","JOL_Large",3522,69,9719,"",0,0
"5d9c8a8033801b00145a6803",3,"Large vs small C","WET","DRY","Study2","S","JOL_Small",2844,89,2865,"DRY",100,100
"5d9c8a8033801b00145a6803",3,"Large vs small C","WINDSHIELD","CAR","Study2","F","JOL_Small",10104,32,2740,"CAR",100,100
"5ef695acd994c4392445cce9",4,"Large vs small D","ABLE","CRACKLE","Study2","U","JOL_Small",8480,10,2727,"unable",46.153846153846,0
"w10015293_bnp",4,"Large vs small D","ABLE","CRACKLE","Study2","U","JOL_Small",4668,10,1653,"NOT",0,0
"5ef695acd994c4392445cce9",4,"Large vs small D","ACTRESS","STAR","Study2","F","JOL_Small",1936,60,2320,"star",100,100
"w10015293_bnp",4,"Large vs small D","ACTRESS","STAR","Study2","F","JOL_Small",11736,100,2452,"",0,0
"5ef695acd994c4392445cce9",4,"Large vs small D","AIRCRAFT","PLANE","Study2","F","JOL_Large",2244,90,2901,"plane",100,100
"w10015293_bnp",4,"Large vs small D","AIRCRAFT","PLANE","Study2","F","JOL_Large",10073,100,2307,"PLANE",100,100
"5ef695acd994c4392445cce9",4,"Large vs small D","AWAY","GONE","Study2","S","JOL_Small",1700,90,5549,"present ",18.181818181818,0
"w10015293_bnp",4,"Large vs small D","AWAY","GONE","Study2","S","JOL_Large",3098,100,1754,"GONE",100,100
"5ef695acd994c4392445cce9",4,"Large vs small D","BALLOON","POP","Study2","F","JOL_Small",2343,90,3523,"pop",100,100
"w10015293_bnp",4,"Large vs small D","BALLOON","POP","Study2","F","JOL_Small",2703,100,3206,"POP",100,100
"5ef695acd994c4392445cce9",4,"Large vs small D","BANG","FUZZY","Study2","U","JOL_Large",4156,10,5682,"furry",60,0
"w10015293_bnp",4,"Large vs small D","BANG","FUZZY","Study2","U","JOL_Small",22373,30,3018,"",0,0
"5ef695acd994c4392445cce9",4,"Large vs small D","BANKER","MONEY","Study2","F","JOL_Large",6474,45,4115,"money",100,100
"w10015293_bnp",4,"Large vs small D","BANKER","MONEY","Study2","F","JOL_Large",3317,100,2040,"MONEY",100,100
"5ef695acd994c4392445cce9",4,"Large vs small D","BRACELET","WRIST","Study2","S","JOL_Small",2683,90,3069,"wrist",100,100
"w10015293_bnp",4,"Large vs small D","BRACELET","WRIST","Study2","S","JOL_Large",19733,100,2577,"WRIST",100,100
"5ef695acd994c4392445cce9",4,"Large vs small D","BRAWL","FIGHT","Study2","F","JOL_Small",2701,80,2205,"fight",100,100
"w10015293_bnp",4,"Large vs small D","BRAWL","FIGHT","Study2","F","JOL_Small",3358,15,3024,"FIGHT",100,100
"5ef695acd994c4392445cce9",4,"Large vs small D","BREAKABLE","GLASS","Study2","F","JOL_Small",16318,60,8788,"glass",100,100
"w10015293_bnp",4,"Large vs small D","BREAKABLE","GLASS","Study2","F","JOL_Large",12241,0,2162,"GLASS",100,100
"5ef695acd994c4392445cce9",4,"Large vs small D","CAR","DRIVER","Study2","B","JOL_Small",1850,50,3142,"driver",100,100
"w10015293_bnp",4,"Large vs small D","CAR","DRIVER","Study2","B","JOL_Large",3735,100,3421,"",0,0
"5ef695acd994c4392445cce9",4,"Large vs small D","CARBON","ELEMENT","Study2","S","JOL_Large",12100,50,5947,"element ",100,100
"w10015293_bnp",4,"Large vs small D","CARBON","ELEMENT","Study2","S","JOL_Large",3393,20,2173,"",0,0
"5ef695acd994c4392445cce9",4,"Large vs small D","CHARM","VEHICLE","Study2","U","JOL_Small",25739,10,4590,"bedazzle",40,0
"w10015293_bnp",4,"Large vs small D","CHARM","VEHICLE","Study2","U","JOL_Large",37356,0,2690,"BRACELET",40,0
"5ef695acd994c4392445cce9",4,"Large vs small D","CHILDREN","MIRROR","Study2","U","JOL_Large",2794,0,2298,"mirror",100,100
"w10015293_bnp",4,"Large vs small D","CHILDREN","MIRROR","Study2","U","JOL_Small",3841,14,2206,"",0,0
"5ef695acd994c4392445cce9",4,"Large vs small D","CLEAR","MOAT","Study2","U","JOL_Small",4018,30,9689,"water",44.444444444444,0
"w10015293_bnp",4,"Large vs small D","CLEAR","MOAT","Study2","U","JOL_Large",3579,10,3091,"",0,0
"5ef695acd994c4392445cce9",4,"Large vs small D","CLOTH","STRETCH","Study2","U","JOL_Large",2394,20,5763,"cleaning",13.333333333333,0
"w10015293_bnp",4,"Large vs small D","CLOTH","STRETCH","Study2","U","JOL_Large",10740,0,3565,"",0,0
"5ef695acd994c4392445cce9",4,"Large vs small D","CLOTHES","CAKE","Study2","U","JOL_Small",14876,1,4605,"body",0,0
"w10015293_bnp",4,"Large vs small D","CLOTHES","CAKE","Study2","U","JOL_Large",3364,10,3621,"CLOTH",22.222222222222,0
"5ef695acd994c4392445cce9",4,"Large vs small D","COFFIN","DEAD","Study2","F","JOL_Large",2780,100,2338,"dead",100,100
"w10015293_bnp",4,"Large vs small D","COFFIN","DEAD","Study2","F","JOL_Large",23417,100,2431,"DEAD",100,100
"5ef695acd994c4392445cce9",4,"Large vs small D","COLD","CHILL","Study2","B","JOL_Small",2134,80,3140,"shiver",36.363636363636,0
"w10015293_bnp",4,"Large vs small D","COLD","CHILL","Study2","B","JOL_Small",4126,100,3170,"HOT",25,0
"5ef695acd994c4392445cce9",4,"Large vs small D","COMMUNICATION","PHONE","Study2","S","JOL_Large",2723,0,8350,"talk",0,0
"w10015293_bnp",4,"Large vs small D","COMMUNICATION","PHONE","Study2","S","JOL_Large",3049,0,1515,"",0,0
"5ef695acd994c4392445cce9",4,"Large vs small D","CUT","CHOP","Study2","B","JOL_Small",2314,22,3337,"slice",22.222222222222,0
"w10015293_bnp",4,"Large vs small D","CUT","CHOP","Study2","B","JOL_Small",6656,20,2969,"",0,0
"5ef695acd994c4392445cce9",4,"Large vs small D","DOG","FURRY","Study2","B","JOL_Small",3443,95,3354,"furry",100,100
"w10015293_bnp",4,"Large vs small D","DOG","FURRY","Study2","B","JOL_Large",20127,30,3250,"CAT",0,0
"5ef695acd994c4392445cce9",4,"Large vs small D","DONKEY","MULE","Study2","B","JOL_Large",1949,55,4085,"mule ",100,100
"w10015293_bnp",4,"Large vs small D","DONKEY","MULE","Study2","B","JOL_Small",50481,100,6163,"ANIMAL",40,0
"5ef695acd994c4392445cce9",4,"Large vs small D","DRINK","WATER","Study2","S","JOL_Large",2150,90,2538,"water",100,100
"w10015293_bnp",4,"Large vs small D","DRINK","WATER","Study2","S","JOL_Large",13167,100,6529,"",0,0
"5ef695acd994c4392445cce9",4,"Large vs small D","EAT","DINE","Study2","B","JOL_Small",3789,70,14783,"ass",0,0
"w10015293_bnp",4,"Large vs small D","EAT","DINE","Study2","B","JOL_Small",6959,50,2820,"FOOD",25,0
"5ef695acd994c4392445cce9",4,"Large vs small D","ELECTION","MAZE","Study2","U","JOL_Large",3249,7,2127,"day",28.571428571429,0
"w10015293_bnp",4,"Large vs small D","ELECTION","MAZE","Study2","U","JOL_Small",5855,33,6943,"VOTE",25,0
"5ef695acd994c4392445cce9",4,"Large vs small D","END","ADJOURN","Study2","B","JOL_Large",2266,0,10378,"adjourned",87.5,100
"w10015293_bnp",4,"Large vs small D","END","ADJOURN","Study2","B","JOL_Small",9314,0,3190,"TURN",54.545454545455,0
"5ef695acd994c4392445cce9",4,"Large vs small D","EQUAL","RIGHTS","Study2","S","JOL_Large",2891,100,2417,"rights",100,100
"w10015293_bnp",4,"Large vs small D","EQUAL","RIGHTS","Study2","S","JOL_Large",3812,100,7674,"RIGHTS",100,100
"5ef695acd994c4392445cce9",4,"Large vs small D","FAVORITE","BEST","Study2","F","JOL_Small",3273,20,2065,"best",100,100
"w10015293_bnp",4,"Large vs small D","FAVORITE","BEST","Study2","F","JOL_Small",7410,98,3204,"BEST",100,100
"5ef695acd994c4392445cce9",4,"Large vs small D","FICTION","LISTEN","Study2","U","JOL_Large",2522,10,3367,"listen",100,100
"w10015293_bnp",4,"Large vs small D","FICTION","LISTEN","Study2","U","JOL_Small",7780,75,1731,"",0,0
"5ef695acd994c4392445cce9",4,"Large vs small D","FIGHT","FEUD","Study2","B","JOL_Small",2432,10,3508,"feud",100,100
"w10015293_bnp",4,"Large vs small D","FIGHT","FEUD","Study2","B","JOL_Small",32143,0,2681,"BRAWL",0,0
"5ef695acd994c4392445cce9",4,"Large vs small D","FLIP","TURN","Study2","F","JOL_Large",2571,40,2753,"twist",22.222222222222,0
"w10015293_bnp",4,"Large vs small D","FLIP","TURN","Study2","F","JOL_Small",13759,100,1780,"TURN",100,100
"5ef695acd994c4392445cce9",4,"Large vs small D","GAME","CLUE","Study2","B","JOL_Small",2972,90,5477,"rules",44.444444444444,0
"w10015293_bnp",4,"Large vs small D","GAME","CLUE","Study2","B","JOL_Large",2596,50,3109,"PLAY",25,0
"5ef695acd994c4392445cce9",4,"Large vs small D","GROUND","EARTH","Study2","S","JOL_Small",2166,80,2635,"earth",100,100
"w10015293_bnp",4,"Large vs small D","GROUND","EARTH","Study2","S","JOL_Large",2662,30,11455,"",0,0
"5ef695acd994c4392445cce9",4,"Large vs small D","HATE","NAME","Study2","U","JOL_Large",1798,0,4390,"name",100,100
"w10015293_bnp",4,"Large vs small D","HATE","NAME","Study2","U","JOL_Small",10237,33,4389,"LOVE",25,0
"5ef695acd994c4392445cce9",4,"Large vs small D","HAVE","OWN","Study2","S","JOL_Small",1758,0,2920,"get",0,0
"w10015293_bnp",4,"Large vs small D","HAVE","OWN","Study2","S","JOL_Large",3452,10,2980,"",0,0
"5ef695acd994c4392445cce9",4,"Large vs small D","HEAD","SCALP","Study2","B","JOL_Large",5142,85,3774,"scalp",100,100
"w10015293_bnp",4,"Large vs small D","HEAD","SCALP","Study2","B","JOL_Small",3925,100,4695,"SHAVE",40,0
"5ef695acd994c4392445cce9",4,"Large vs small D","JAR","MASON","Study2","S","JOL_Large",1863,50,2770,"masson",90.909090909091,100
"w10015293_bnp",4,"Large vs small D","JAR","MASON","Study2","S","JOL_Large",3769,100,1746,"MASON",100,100
"5ef695acd994c4392445cce9",4,"Large vs small D","JOKE","KEYS","Study2","U","JOL_Small",6824,20,8245,"humour",0,0
"w10015293_bnp",4,"Large vs small D","JOKE","KEYS","Study2","U","JOL_Large",6509,20,1753,"",0,0
"5ef695acd994c4392445cce9",4,"Large vs small D","LEAGUE","BASEBALL","Study2","F","JOL_Large",3276,65,3792,"baseball",100,100
"w10015293_bnp",4,"Large vs small D","LEAGUE","BASEBALL","Study2","F","JOL_Small",4599,20,3082,"BASEBALL",100,100
"5ef695acd994c4392445cce9",4,"Large vs small D","LIE","TRUTH","Study2","S","JOL_Small",2620,100,3131,"truth",100,100
"w10015293_bnp",4,"Large vs small D","LIE","TRUTH","Study2","S","JOL_Small",4372,100,4731,"TRUTH",100,100
"5ef695acd994c4392445cce9",4,"Large vs small D","LONELY","ALONE","Study2","S","JOL_Large",5014,80,2092,"alone",100,100
"w10015293_bnp",4,"Large vs small D","LONELY","ALONE","Study2","S","JOL_Large",6745,70,3053,"ALONE",100,100
"5ef695acd994c4392445cce9",4,"Large vs small D","LONG","EXTENSION","Study2","B","JOL_Large",6650,55,8493,"short",28.571428571429,0
"w10015293_bnp",4,"Large vs small D","LONG","EXTENSION","Study2","B","JOL_Large",7243,20,1667,"",0,0
"5ef695acd994c4392445cce9",4,"Large vs small D","LOVE","AFFECTION","Study2","B","JOL_Small",2031,98,4443,"affection",100,100
"w10015293_bnp",4,"Large vs small D","LOVE","AFFECTION","Study2","B","JOL_Large",2522,10,4501,"HAPPY",14.285714285714,0
"5ef695acd994c4392445cce9",4,"Large vs small D","MAROON","JUSTICE","Study2","U","JOL_Large",2561,1,7324,"colour",15.384615384615,0
"w10015293_bnp",4,"Large vs small D","MAROON","JUSTICE","Study2","U","JOL_Large",6872,0,3088,"RED",20,0
"5ef695acd994c4392445cce9",4,"Large vs small D","MORNING","TEMPERATURE","Study2","U","JOL_Large",2162,10,4333,"temperature",100,100
"w10015293_bnp",4,"Large vs small D","MORNING","TEMPERATURE","Study2","U","JOL_Large",2730,0,3672,"",0,0
"5ef695acd994c4392445cce9",4,"Large vs small D","MYSTERY","DETECTIVE","Study2","B","JOL_Small",2422,90,4649,"detective",100,100
"w10015293_bnp",4,"Large vs small D","MYSTERY","DETECTIVE","Study2","B","JOL_Small",3735,100,7787,"SOLVE",28.571428571429,0
"5ef695acd994c4392445cce9",4,"Large vs small D","NAP","SLEEP","Study2","F","JOL_Small",5461,99,2392,"sleep",100,100
"w10015293_bnp",4,"Large vs small D","NAP","SLEEP","Study2","F","JOL_Small",4404,100,5166,"SLEEP",100,100
"5ef695acd994c4392445cce9",4,"Large vs small D","NOISE","LOUD","Study2","S","JOL_Small",4650,80,2903,"loud",100,100
"w10015293_bnp",4,"Large vs small D","NOISE","LOUD","Study2","S","JOL_Small",11927,90,4063,"LOUD",100,100
"5ef695acd994c4392445cce9",4,"Large vs small D","OBTAIN","MEAT","Study2","U","JOL_Large",17739,0,9145,"get",57.142857142857,0
"w10015293_bnp",4,"Large vs small D","OBTAIN","MEAT","Study2","U","JOL_Large",3793,40,2761,"",0,0
"5ef695acd994c4392445cce9",4,"Large vs small D","OUNCE","BOTH","Study2","U","JOL_Large",2668,10,3114,"both",100,100
"w10015293_bnp",4,"Large vs small D","OUNCE","BOTH","Study2","U","JOL_Small",4812,70,1750,"",0,0
"5ef695acd994c4392445cce9",4,"Large vs small D","PANTHER","CAT","Study2","F","JOL_Large",3753,10,2667,"cat",100,100
"w10015293_bnp",4,"Large vs small D","PANTHER","CAT","Study2","F","JOL_Small",8522,100,3487,"PINK",0,0
"5ef695acd994c4392445cce9",4,"Large vs small D","PAPER","DOCUMENT","Study2","B","JOL_Small",1861,20,3920,"documents",94.117647058824,100
"w10015293_bnp",4,"Large vs small D","PAPER","DOCUMENT","Study2","B","JOL_Small",17006,20,4216,"",0,0
"5ef695acd994c4392445cce9",4,"Large vs small D","PENGUIN","BIRD","Study2","F","JOL_Small",2576,45,2726,"bird",100,100
"w10015293_bnp",4,"Large vs small D","PENGUIN","BIRD","Study2","F","JOL_Large",3039,95,8045,"ALASKA",0,0
"5ef695acd994c4392445cce9",4,"Large vs small D","PLANT","CACTUS","Study2","B","JOL_Large",2576,30,2796,"cactus ",100,100
"w10015293_bnp",4,"Large vs small D","PLANT","CACTUS","Study2","B","JOL_Large",7696,10,3463,"SOIL",20,0
"5ef695acd994c4392445cce9",4,"Large vs small D","RED","CHERRY","Study2","B","JOL_Large",2793,100,2690,"cherry",100,100
"w10015293_bnp",4,"Large vs small D","RED","CHERRY","Study2","B","JOL_Small",7792,40,1816,"",0,0
"5ef695acd994c4392445cce9",4,"Large vs small D","REEL","ROD","Study2","S","JOL_Small",2721,70,47162,"throw",50,0
"w10015293_bnp",4,"Large vs small D","REEL","ROD","Study2","S","JOL_Small",11263,0,792,"",0,0
"5ef695acd994c4392445cce9",4,"Large vs small D","REVENGE","EVEN","Study2","F","JOL_Small",5587,50,16541,"avenge",60,0
"w10015293_bnp",4,"Large vs small D","REVENGE","EVEN","Study2","F","JOL_Small",9781,100,3398,"EVEN",100,100
"5ef695acd994c4392445cce9",4,"Large vs small D","SARDINE","FISH","Study2","F","JOL_Small",5701,50,3043,"fish",100,100
"w10015293_bnp",4,"Large vs small D","SARDINE","FISH","Study2","F","JOL_Small",8727,25,2051,"FISH",100,100
"5ef695acd994c4392445cce9",4,"Large vs small D","SCAR","MAIN","Study2","U","JOL_Small",2264,0,3300,"tissue",20,0
"w10015293_bnp",4,"Large vs small D","SCAR","MAIN","Study2","U","JOL_Large",6592,15,4983,"",0,0
"5ef695acd994c4392445cce9",4,"Large vs small D","SCISSORS","SHEARS","Study2","B","JOL_Large",3636,75,3968,"shears",100,100
"w10015293_bnp",4,"Large vs small D","SCISSORS","SHEARS","Study2","B","JOL_Large",3631,25,2556,"SHEARS",100,100
"5ef695acd994c4392445cce9",4,"Large vs small D","SEATBELT","SAFETY","Study2","S","JOL_Small",3278,80,2729,"safety",100,100
"w10015293_bnp",4,"Large vs small D","SEATBELT","SAFETY","Study2","S","JOL_Large",22157,0,6303,"SAFETY",100,100
"5ef695acd994c4392445cce9",4,"Large vs small D","SHAKE","SHELL","Study2","U","JOL_Large",4793,30,6021,"shiver",54.545454545455,0
"w10015293_bnp",4,"Large vs small D","SHAKE","SHELL","Study2","U","JOL_Small",14966,21,4735,"",0,0
"5ef695acd994c4392445cce9",4,"Large vs small D","SHAVE","RAZOR","Study2","S","JOL_Large",2176,100,2948,"razor",100,100
"w10015293_bnp",4,"Large vs small D","SHAVE","RAZOR","Study2","S","JOL_Small",15429,40,4472,"SHEARS",36.363636363636,0
"5ef695acd994c4392445cce9",4,"Large vs small D","SIGN","LOAN","Study2","U","JOL_Small",6766,20,9016,"language ",50,0
"w10015293_bnp",4,"Large vs small D","SIGN","LOAN","Study2","U","JOL_Large",5882,0,1283,"",0,0
"5ef695acd994c4392445cce9",4,"Large vs small D","SMELL","INCENSE","Study2","B","JOL_Large",2857,85,6343,"incense",100,100
"w10015293_bnp",4,"Large vs small D","SMELL","INCENSE","Study2","B","JOL_Large",5011,21,3069,"",0,0
"5ef695acd994c4392445cce9",4,"Large vs small D","STEAK","GIVE","Study2","U","JOL_Large",1503,0,6218,"toes",25,0
"w10015293_bnp",4,"Large vs small D","STEAK","GIVE","Study2","U","JOL_Small",5217,0,1785,"",0,0
"5ef695acd994c4392445cce9",4,"Large vs small D","STRAWBERRY","FRUIT","Study2","F","JOL_Small",2308,100,2804,"fruit",100,100
"w10015293_bnp",4,"Large vs small D","STRAWBERRY","FRUIT","Study2","F","JOL_Small",2416,100,6809,"PLANT",20,0
"5ef695acd994c4392445cce9",4,"Large vs small D","TAN","SUN","Study2","S","JOL_Large",2527,100,2266,"sun",100,100
"w10015293_bnp",4,"Large vs small D","TAN","SUN","Study2","S","JOL_Small",3813,100,2004,"SUN",100,100
"5ef695acd994c4392445cce9",4,"Large vs small D","TEMPER","TANTRUM","Study2","S","JOL_Large",2599,100,3309,"tantrum ",100,100
"w10015293_bnp",4,"Large vs small D","TEMPER","TANTRUM","Study2","S","JOL_Large",3814,100,4273,"TANTRUM",100,100
"5ef695acd994c4392445cce9",4,"Large vs small D","THIMBLE","THREAD","Study2","F","JOL_Large",2972,85,3189,"thread",100,100
"w10015293_bnp",4,"Large vs small D","THIMBLE","THREAD","Study2","F","JOL_Small",3028,10,2268,"THREAD",100,100
"5ef695acd994c4392445cce9",4,"Large vs small D","TICK","FLEA","Study2","S","JOL_Small",3294,100,3314,"flea",100,100
"w10015293_bnp",4,"Large vs small D","TICK","FLEA","Study2","S","JOL_Small",3797,30,2584,"SOIL",25,0
"5ef695acd994c4392445cce9",4,"Large vs small D","TIE","SHOELACE","Study2","B","JOL_Large",8275,40,3845,"shoelace",100,100
"w10015293_bnp",4,"Large vs small D","TIE","SHOELACE","Study2","B","JOL_Large",4508,98,1809,"",0,0
"5ef695acd994c4392445cce9",4,"Large vs small D","TOIL","LEASE","Study2","U","JOL_Small",2863,40,5722,"spring",18.181818181818,0
"w10015293_bnp",4,"Large vs small D","TOIL","LEASE","Study2","U","JOL_Large",1670,0,1453,"",0,0
"5ef695acd994c4392445cce9",4,"Large vs small D","TRASH","LITTER","Study2","B","JOL_Small",6340,95,3276,"little",83.333333333333,100
"w10015293_bnp",4,"Large vs small D","TRASH","LITTER","Study2","B","JOL_Small",5043,0,3355,"",0,0
"5ef695acd994c4392445cce9",4,"Large vs small D","TRUTHFUL","HONEST","Study2","F","JOL_Large",2120,100,4210,"honest",100,100
"w10015293_bnp",4,"Large vs small D","TRUTHFUL","HONEST","Study2","F","JOL_Large",8242,79,1424,"",0,0
"5ef695acd994c4392445cce9",4,"Large vs small D","VILLAIN","BAD","Study2","F","JOL_Small",2936,95,2270,"evi;",0,0
"w10015293_bnp",4,"Large vs small D","VILLAIN","BAD","Study2","F","JOL_Small",6710,100,3827,"BAD",100,100
"5ef695acd994c4392445cce9",4,"Large vs small D","WAX","CANDLE","Study2","S","JOL_Small",3293,100,4801,"candle",100,100
"w10015293_bnp",4,"Large vs small D","WAX","CANDLE","Study2","S","JOL_Large",2950,99,6145,"",0,0
"5ef695acd994c4392445cce9",4,"Large vs small D","WET","DRY","Study2","S","JOL_Large",2683,100,2188,"dry",100,100
"w10015293_bnp",4,"Large vs small D","WET","DRY","Study2","S","JOL_Large",4870,100,2451,"",0,0
"5ef695acd994c4392445cce9",4,"Large vs small D","WINDSHIELD","CAR","Study2","F","JOL_Large",2586,100,4390,"car",100,100
"w10015293_bnp",4,"Large vs small D","WINDSHIELD","CAR","Study2","F","JOL_Small",7939,100,3362,"CAR",100,100
