"Username","Condition.Number","Condition.Description","Stimuli.Cue","Stimuli.Answer","Stimuli.Shuffle","Stimuli.Stimuli.Notes","Procedure.Trial.Type","JOL.RT","Response.JOL","Response.RT.1","Response.Response","Response.Accuracy","Recall_Score"
"59860c81d75d360001b0bd95",1,"Large vs small A","ALLOW","TUCK","Study1","U","JOL_Small",7953,"1",9694,"",0,0
"5ac69733a3ba7a0001b4b75b",1,"Large vs small A","ALLOW","TUCK","Study1","U","JOL_Large",2084,"0",1789,"",0,0
"5d470786da637a00014ba26f",1,"Large vs small A","ALLOW","TUCK","Study1","U","JOL_Small",9297,"0",13165,"WOULD",22.222222222222,0
"5ed225b7b49d48185e9e56ae",1,"Large vs small A","ALLOW","TUCK","Study1","U","JOL_Small",1560,"44",1691,"not",28.571428571429,0
"5ede2531cff15e047a4e356e",1,"Large vs small A","ALLOW","TUCK","Study1","U","JOL_Small",3908,"0",4422,"deny",0,0
"5efb2af24cee7804cac1249c",1,"Large vs small A","ALLOW","TUCK","Study1","U","JOL_Small",3122,"10",1020,"",0,0
"5f0c33a605481902af533527",1,"Large vs small A","ALLOW","TUCK","Study1","U","JOL_Small",6934,"0",8637,"Permit",20,0
"5f0c7dcc324f8b0ca60380f6",1,"Large vs small A","ALLOW","TUCK","Study1","U","JOL_Small",5557,"0",2210,"",0,0
"5f112fca114b6a31c9698a4b",1,"Large vs small A","ALLOW","TUCK","Study1","U","JOL_Small",3559,"10",17446,"Let",28.571428571429,0
"59860c81d75d360001b0bd95",1,"Large vs small A","ARCHITECTURE","DESIGN","Study1","S","JOL_Large",10810,"70",4376,"design",100,100
"5ac69733a3ba7a0001b4b75b",1,"Large vs small A","ARCHITECTURE","DESIGN","Study1","S","JOL_Large",5230,"20",2228,"design",100,100
"5d470786da637a00014ba26f",1,"Large vs small A","ARCHITECTURE","DESIGN","Study1","S","JOL_Large",19621,"35",10694,"DESIGN",100,100
"5ed225b7b49d48185e9e56ae",1,"Large vs small A","ARCHITECTURE","DESIGN","Study1","S","JOL_Small",2165,"30",2832,"land",20,0
"5ede2531cff15e047a4e356e",1,"Large vs small A","ARCHITECTURE","DESIGN","Study1","S","JOL_Large",10622,"1",10951,"building",28.571428571429,0
"5efb2af24cee7804cac1249c",1,"Large vs small A","ARCHITECTURE","DESIGN","Study1","S","JOL_Small",2382,"80",3436,"design",100,100
"5f0c33a605481902af533527",1,"Large vs small A","ARCHITECTURE","DESIGN","Study1","S","JOL_Small",4198,"7",5956,"Picture",15.384615384615,0
"5f0c7dcc324f8b0ca60380f6",1,"Large vs small A","ARCHITECTURE","DESIGN","Study1","S","JOL_Large",4775,"100",5379,"Drawing",46.153846153846,0
"5f112fca114b6a31c9698a4b",1,"Large vs small A","ARCHITECTURE","DESIGN","Study1","S","JOL_Small",3516,"100",3811,"Design",100,100
"59860c81d75d360001b0bd95",1,"Large vs small A","ART","LION","Study1","U","JOL_Large",7257,"1",4098,"",0,0
"5ac69733a3ba7a0001b4b75b",1,"Large vs small A","ART","LION","Study1","U","JOL_Small",2525,"0",2778,"",0,0
"5d470786da637a00014ba26f",1,"Large vs small A","ART","LION","Study1","U","JOL_Small",10270,"15",17285,"DEALER",20,0
"5ed225b7b49d48185e9e56ae",1,"Large vs small A","ART","LION","Study1","U","JOL_Large",1646,"11",2749,"theatre",0,0
"5ede2531cff15e047a4e356e",1,"Large vs small A","ART","LION","Study1","U","JOL_Small",7197,"33",9073,"school",20,0
"5efb2af24cee7804cac1249c",1,"Large vs small A","ART","LION","Study1","U","JOL_Small",2498,"45",4797,"paint",44.444444444444,0
"5f0c33a605481902af533527",1,"Large vs small A","ART","LION","Study1","U","JOL_Large",30618,"3",10748,"Design",40,0
"5f0c7dcc324f8b0ca60380f6",1,"Large vs small A","ART","LION","Study1","U","JOL_Large",3389,"0",9087,"Painting ",33.333333333333,0
"5f112fca114b6a31c9698a4b",1,"Large vs small A","ART","LION","Study1","U","JOL_Small",4049,"20",6514,"Design",40,0
"59860c81d75d360001b0bd95",1,"Large vs small A","ARTERY","BRONZE","Study1","U","JOL_Large",9321,"2",8007,"",0,0
"5ac69733a3ba7a0001b4b75b",1,"Large vs small A","ARTERY","BRONZE","Study1","U","JOL_Small",5516,"10",7239,"bronze",100,100
"5d470786da637a00014ba26f",1,"Large vs small A","ARTERY","BRONZE","Study1","U","JOL_Small",11602,"0",10646,"HEART",18.181818181818,0
"5ed225b7b49d48185e9e56ae",1,"Large vs small A","ARTERY","BRONZE","Study1","U","JOL_Small",2173,"11",51009,"heart",18.181818181818,0
"5ede2531cff15e047a4e356e",1,"Large vs small A","ARTERY","BRONZE","Study1","U","JOL_Large",11261,"32",10701,"vein",20,0
"5efb2af24cee7804cac1249c",1,"Large vs small A","ARTERY","BRONZE","Study1","U","JOL_Small",3949,"10",1823,"",0,0
"5f0c33a605481902af533527",1,"Large vs small A","ARTERY","BRONZE","Study1","U","JOL_Small",6114,"0",12736,"Arrow",36.363636363636,0
"5f0c7dcc324f8b0ca60380f6",1,"Large vs small A","ARTERY","BRONZE","Study1","U","JOL_Large",15178,"0",13046,"Vein",20,0
"5f112fca114b6a31c9698a4b",1,"Large vs small A","ARTERY","BRONZE","Study1","U","JOL_Large",3129,"10",2696,"",0,0
"59860c81d75d360001b0bd95",1,"Large vs small A","BABY","CHILD","Study1","S","JOL_Large",5139,"100",5268,"child",100,100
"5ac69733a3ba7a0001b4b75b",1,"Large vs small A","BABY","CHILD","Study1","S","JOL_Large",2177,"30",2897,"infant",18.181818181818,0
"5d470786da637a00014ba26f",1,"Large vs small A","BABY","CHILD","Study1","S","JOL_Small",16262,"40",7373,"CHILD",100,100
"5ed225b7b49d48185e9e56ae",1,"Large vs small A","BABY","CHILD","Study1","S","JOL_Small",2954,"89",1855,"talk",22.222222222222,0
"5ede2531cff15e047a4e356e",1,"Large vs small A","BABY","CHILD","Study1","S","JOL_Large",3125,"23",10507,"child",100,100
"5efb2af24cee7804cac1249c",1,"Large vs small A","BABY","CHILD","Study1","S","JOL_Small",3043,"90",2689,"child",100,100
"5f0c33a605481902af533527",1,"Large vs small A","BABY","CHILD","Study1","S","JOL_Large",6351,"64",9469,"Child",100,100
"5f0c7dcc324f8b0ca60380f6",1,"Large vs small A","BABY","CHILD","Study1","S","JOL_Small",4767,"100",3723,"Child",100,100
"5f112fca114b6a31c9698a4b",1,"Large vs small A","BABY","CHILD","Study1","S","JOL_Large",3397,"100",7840,"Child ",100,100
"59860c81d75d360001b0bd95",1,"Large vs small A","BALL","RACKET","Study1","B","JOL_Small",4175,"100",3783,"bat",44.444444444444,0
"5ac69733a3ba7a0001b4b75b",1,"Large vs small A","BALL","RACKET","Study1","B","JOL_Small",4077,"40",4509,"",0,0
"5d470786da637a00014ba26f",1,"Large vs small A","BALL","RACKET","Study1","B","JOL_Small",10869,"30",3873,"RACKET",100,100
"5ed225b7b49d48185e9e56ae",1,"Large vs small A","BALL","RACKET","Study1","B","JOL_Large",1433,"50",2783,"basket",66.666666666667,0
"5ede2531cff15e047a4e356e",1,"Large vs small A","BALL","RACKET","Study1","B","JOL_Small",19404,"30",33690,"park",40,0
"5efb2af24cee7804cac1249c",1,"Large vs small A","BALL","RACKET","Study1","B","JOL_Large",4641,"30",2859,"",0,0
"5f0c33a605481902af533527",1,"Large vs small A","BALL","RACKET","Study1","B","JOL_Small",6314,"13",20591,"Games",36.363636363636,0
"5f0c7dcc324f8b0ca60380f6",1,"Large vs small A","BALL","RACKET","Study1","B","JOL_Small",52650,"100",7670,"",0,0
"5f112fca114b6a31c9698a4b",1,"Large vs small A","BALL","RACKET","Study1","B","JOL_Small",3001,"10",2072,"",0,0
"59860c81d75d360001b0bd95",1,"Large vs small A","BATHROOM","TOILET","Study1","S","JOL_Large",6348,"90",2945,"toilet",100,100
"5ac69733a3ba7a0001b4b75b",1,"Large vs small A","BATHROOM","TOILET","Study1","S","JOL_Large",2007,"100",2434,"toilet",100,100
"5d470786da637a00014ba26f",1,"Large vs small A","BATHROOM","TOILET","Study1","S","JOL_Small",10640,"55",4749,"TOILET",100,100
"5ed225b7b49d48185e9e56ae",1,"Large vs small A","BATHROOM","TOILET","Study1","S","JOL_Small",14544,"99",3281,"toilet",100,100
"5ede2531cff15e047a4e356e",1,"Large vs small A","BATHROOM","TOILET","Study1","S","JOL_Small",4501,"70",5028,"key",22.222222222222,0
"5efb2af24cee7804cac1249c",1,"Large vs small A","BATHROOM","TOILET","Study1","S","JOL_Large",8563,"100",2962,"toilet",100,100
"5f0c33a605481902af533527",1,"Large vs small A","BATHROOM","TOILET","Study1","S","JOL_Large",3715,"70",8151,"Toilet",100,100
"5f0c7dcc324f8b0ca60380f6",1,"Large vs small A","BATHROOM","TOILET","Study1","S","JOL_Small",5390,"100",6100,"Toilet",100,100
"5f112fca114b6a31c9698a4b",1,"Large vs small A","BATHROOM","TOILET","Study1","S","JOL_Large",5578,"100",4756,"Toilet",100,100
"59860c81d75d360001b0bd95",1,"Large vs small A","BEGIN","END","Study1","S","JOL_Small",4417,"100",2484,"end",100,100
"5ac69733a3ba7a0001b4b75b",1,"Large vs small A","BEGIN","END","Study1","S","JOL_Large",2691,"80",1221,"end",100,100
"5d470786da637a00014ba26f",1,"Large vs small A","BEGIN","END","Study1","S","JOL_Large",13863,"50",5573,"END",100,100
"5ed225b7b49d48185e9e56ae",1,"Large vs small A","BEGIN","END","Study1","S","JOL_Large",1617,"60",2551,"end",100,100
"5ede2531cff15e047a4e356e",1,"Large vs small A","BEGIN","END","Study1","S","JOL_Large",6106,"64",5278,"start",0,0
"5efb2af24cee7804cac1249c",1,"Large vs small A","BEGIN","END","Study1","S","JOL_Large",5757,"100",2187,"end",100,100
"5f0c33a605481902af533527",1,"Large vs small A","BEGIN","END","Study1","S","JOL_Small",15893,"75",6101,"End",100,100
"5f0c7dcc324f8b0ca60380f6",1,"Large vs small A","BEGIN","END","Study1","S","JOL_Large",4115,"100",5486,"Start",0,0
"5f112fca114b6a31c9698a4b",1,"Large vs small A","BEGIN","END","Study1","S","JOL_Small",5383,"100",3412,"Start",0,0
"59860c81d75d360001b0bd95",1,"Large vs small A","BITTER","COLD","Study1","F","JOL_Small",3145,"100",5649,"sweet",0,0
"5ac69733a3ba7a0001b4b75b",1,"Large vs small A","BITTER","COLD","Study1","F","JOL_Large",2317,"40",2048,"cold",100,100
"5d470786da637a00014ba26f",1,"Large vs small A","BITTER","COLD","Study1","F","JOL_Large",16056,"35",13548,"COLD",100,100
"5ed225b7b49d48185e9e56ae",1,"Large vs small A","BITTER","COLD","Study1","F","JOL_Large",2343,"22",1958,"sweet",0,0
"5ede2531cff15e047a4e356e",1,"Large vs small A","BITTER","COLD","Study1","F","JOL_Small",5874,"56",10732,"sweet",0,0
"5efb2af24cee7804cac1249c",1,"Large vs small A","BITTER","COLD","Study1","F","JOL_Large",4063,"15",4001,"murmer",0,0
"5f0c33a605481902af533527",1,"Large vs small A","BITTER","COLD","Study1","F","JOL_Large",4955,"35",5589,"Sweet ",0,0
"5f0c7dcc324f8b0ca60380f6",1,"Large vs small A","BITTER","COLD","Study1","F","JOL_Small",16084,"100",2772,"",0,0
"5f112fca114b6a31c9698a4b",1,"Large vs small A","BITTER","COLD","Study1","F","JOL_Large",10153,"50",7034,"",0,0
"59860c81d75d360001b0bd95",1,"Large vs small A","BLOW","WIND","Study1","S","JOL_Small",3682,"100",4207,"wind",100,100
"5ac69733a3ba7a0001b4b75b",1,"Large vs small A","BLOW","WIND","Study1","S","JOL_Large",4129,"20",1698,"",0,0
"5d470786da637a00014ba26f",1,"Large vs small A","BLOW","WIND","Study1","S","JOL_Large",8587,"20",9386,"OUT",0,0
"5ed225b7b49d48185e9e56ae",1,"Large vs small A","BLOW","WIND","Study1","S","JOL_Small",1759,"70",3406,"dry",28.571428571429,0
"5ede2531cff15e047a4e356e",1,"Large vs small A","BLOW","WIND","Study1","S","JOL_Large",3133,"43",6142,"wind",100,100
"5efb2af24cee7804cac1249c",1,"Large vs small A","BLOW","WIND","Study1","S","JOL_Large",3716,"30",2826,"wind",100,100
"5f0c33a605481902af533527",1,"Large vs small A","BLOW","WIND","Study1","S","JOL_Small",4810,"45",3876,"Wind",100,100
"5f0c7dcc324f8b0ca60380f6",1,"Large vs small A","BLOW","WIND","Study1","S","JOL_Large",3887,"100",5891,"Wind",100,100
"5f112fca114b6a31c9698a4b",1,"Large vs small A","BLOW","WIND","Study1","S","JOL_Small",3386,"100",1380,"",0,0
"59860c81d75d360001b0bd95",1,"Large vs small A","BRIDGE","WATER","Study1","F","JOL_Large",5900,"80",2445,"water",100,100
"5ac69733a3ba7a0001b4b75b",1,"Large vs small A","BRIDGE","WATER","Study1","F","JOL_Small",3843,"90",1697,"Water",100,100
"5d470786da637a00014ba26f",1,"Large vs small A","BRIDGE","WATER","Study1","F","JOL_Small",11120,"40",10206,"WATER",100,100
"5ed225b7b49d48185e9e56ae",1,"Large vs small A","BRIDGE","WATER","Study1","F","JOL_Large",1803,"66",10327,"water",100,100
"5ede2531cff15e047a4e356e",1,"Large vs small A","BRIDGE","WATER","Study1","F","JOL_Large",6393,"50",12648,"water",100,100
"5efb2af24cee7804cac1249c",1,"Large vs small A","BRIDGE","WATER","Study1","F","JOL_Large",5168,"40",2827,"water",100,100
"5f0c33a605481902af533527",1,"Large vs small A","BRIDGE","WATER","Study1","F","JOL_Large",3951,"15",3856,"Water",100,100
"5f0c7dcc324f8b0ca60380f6",1,"Large vs small A","BRIDGE","WATER","Study1","F","JOL_Small",5122,"100",6629,"Water ",100,100
"5f112fca114b6a31c9698a4b",1,"Large vs small A","BRIDGE","WATER","Study1","F","JOL_Small",4304,"100",4449,"Sea",25,0
"59860c81d75d360001b0bd95",1,"Large vs small A","BUG","WASP","Study1","B","JOL_Large",4968,"75",4157,"wasp",100,100
"5ac69733a3ba7a0001b4b75b",1,"Large vs small A","BUG","WASP","Study1","B","JOL_Small",2839,"40",6738,"wasp",100,100
"5d470786da637a00014ba26f",1,"Large vs small A","BUG","WASP","Study1","B","JOL_Small",8722,"5",4259,"WASP",100,100
"5ed225b7b49d48185e9e56ae",1,"Large vs small A","BUG","WASP","Study1","B","JOL_Large",1713,"60",1999,"bee",0,0
"5ede2531cff15e047a4e356e",1,"Large vs small A","BUG","WASP","Study1","B","JOL_Small",6249,"6",12432,"insect",20,0
"5efb2af24cee7804cac1249c",1,"Large vs small A","BUG","WASP","Study1","B","JOL_Large",4263,"45",2544,"",0,0
"5f0c33a605481902af533527",1,"Large vs small A","BUG","WASP","Study1","B","JOL_Large",5944,"75",5775,"Wasp",100,100
"5f0c7dcc324f8b0ca60380f6",1,"Large vs small A","BUG","WASP","Study1","B","JOL_Small",5890,"100",5643,"Wasp",100,100
"5f112fca114b6a31c9698a4b",1,"Large vs small A","BUG","WASP","Study1","B","JOL_Large",4012,"10",1576,"",0,0
"59860c81d75d360001b0bd95",1,"Large vs small A","CASH","WOULD","Study1","U","JOL_Large",8795,"5",6552,"money",20,0
"5ac69733a3ba7a0001b4b75b",1,"Large vs small A","CASH","WOULD","Study1","U","JOL_Large",2169,"10",3504,"",0,0
"5d470786da637a00014ba26f",1,"Large vs small A","CASH","WOULD","Study1","U","JOL_Large",9140,"0",14478,"MONEY",20,0
"5ed225b7b49d48185e9e56ae",1,"Large vs small A","CASH","WOULD","Study1","U","JOL_Small",2559,"21",2354,"money",20,0
"5ede2531cff15e047a4e356e",1,"Large vs small A","CASH","WOULD","Study1","U","JOL_Large",18288,"21",3419,"out",50,0
"5efb2af24cee7804cac1249c",1,"Large vs small A","CASH","WOULD","Study1","U","JOL_Large",4145,"15",5174,"money",20,0
"5f0c33a605481902af533527",1,"Large vs small A","CASH","WOULD","Study1","U","JOL_Small",4321,"0",4439,"Money",20,0
"5f0c7dcc324f8b0ca60380f6",1,"Large vs small A","CASH","WOULD","Study1","U","JOL_Small",5280,"0",1813,"",0,0
"5f112fca114b6a31c9698a4b",1,"Large vs small A","CASH","WOULD","Study1","U","JOL_Small",5629,"20",5396,"",0,0
"59860c81d75d360001b0bd95",1,"Large vs small A","CHISEL","HAMMER","Study1","F","JOL_Large",5094,"90",5546,"hammer",100,100
"5ac69733a3ba7a0001b4b75b",1,"Large vs small A","CHISEL","HAMMER","Study1","F","JOL_Large",7359,"30",5270,"",0,0
"5d470786da637a00014ba26f",1,"Large vs small A","CHISEL","HAMMER","Study1","F","JOL_Large",12675,"10",4374,"HAMMER",100,100
"5ed225b7b49d48185e9e56ae",1,"Large vs small A","CHISEL","HAMMER","Study1","F","JOL_Large",10241,"11",3047,"beach",18.181818181818,0
"5ede2531cff15e047a4e356e",1,"Large vs small A","CHISEL","HAMMER","Study1","F","JOL_Large",8793,"60",4663,"tool",0,0
"5efb2af24cee7804cac1249c",1,"Large vs small A","CHISEL","HAMMER","Study1","F","JOL_Small",3528,"0",1328,"",0,0
"5f0c33a605481902af533527",1,"Large vs small A","CHISEL","HAMMER","Study1","F","JOL_Large",7492,"27",5837,"Hammer",100,100
"5f0c7dcc324f8b0ca60380f6",1,"Large vs small A","CHISEL","HAMMER","Study1","F","JOL_Small",5280,"0",5877,"",0,0
"5f112fca114b6a31c9698a4b",1,"Large vs small A","CHISEL","HAMMER","Study1","F","JOL_Large",6241,"100",3661,"Hammer",100,100
"59860c81d75d360001b0bd95",1,"Large vs small A","CIRCLE","ROUND","Study1","S","JOL_Large",5546,"99",3338,"round",100,100
"5ac69733a3ba7a0001b4b75b",1,"Large vs small A","CIRCLE","ROUND","Study1","S","JOL_Large",2835,"25",2855,"round",100,100
"5d470786da637a00014ba26f",1,"Large vs small A","CIRCLE","ROUND","Study1","S","JOL_Large",12062,"65",3336,"ROUND",100,100
"5ed225b7b49d48185e9e56ae",1,"Large vs small A","CIRCLE","ROUND","Study1","S","JOL_Small",3082,"90",2160,"round",100,100
"5ede2531cff15e047a4e356e",1,"Large vs small A","CIRCLE","ROUND","Study1","S","JOL_Large",4363,"44",5095,"round",100,100
"5efb2af24cee7804cac1249c",1,"Large vs small A","CIRCLE","ROUND","Study1","S","JOL_Small",2764,"90",3094,"round",100,100
"5f0c33a605481902af533527",1,"Large vs small A","CIRCLE","ROUND","Study1","S","JOL_Large",5825,"86",5691,"Round",100,100
"5f0c7dcc324f8b0ca60380f6",1,"Large vs small A","CIRCLE","ROUND","Study1","S","JOL_Small",6038,"100",3551,"Round",100,100
"5f112fca114b6a31c9698a4b",1,"Large vs small A","CIRCLE","ROUND","Study1","S","JOL_Large",2875,"100",3523,"Round",100,100
"59860c81d75d360001b0bd95",1,"Large vs small A","CLOTHES","ATTIRE","Study1","B","JOL_Large",4617,"50",4167,"attire",100,100
"5ac69733a3ba7a0001b4b75b",1,"Large vs small A","CLOTHES","ATTIRE","Study1","B","JOL_Large",2226,"15",3842,"attire",100,100
"5d470786da637a00014ba26f",1,"Large vs small A","CLOTHES","ATTIRE","Study1","B","JOL_Large",18843,"20",3947,"ATTIRE",100,100
"5ed225b7b49d48185e9e56ae",1,"Large vs small A","CLOTHES","ATTIRE","Study1","B","JOL_Large",1655,"22",12860,"hat",44.444444444444,0
"5ede2531cff15e047a4e356e",1,"Large vs small A","CLOTHES","ATTIRE","Study1","B","JOL_Large",6683,"34",9371,"jumper",16.666666666667,0
"5efb2af24cee7804cac1249c",1,"Large vs small A","CLOTHES","ATTIRE","Study1","B","JOL_Large",5176,"15",3096,"",0,0
"5f0c33a605481902af533527",1,"Large vs small A","CLOTHES","ATTIRE","Study1","B","JOL_Large",10819,"4",7983,"Shop",0,0
"5f0c7dcc324f8b0ca60380f6",1,"Large vs small A","CLOTHES","ATTIRE","Study1","B","JOL_Small",3581,"0",4540,"Jumper",16.666666666667,0
"5f112fca114b6a31c9698a4b",1,"Large vs small A","CLOTHES","ATTIRE","Study1","B","JOL_Small",3384,"100",4209,"",0,0
"59860c81d75d360001b0bd95",1,"Large vs small A","CREDIT","CARD","Study1","F","JOL_Large",4762,"100",3929,"card",100,100
"5ac69733a3ba7a0001b4b75b",1,"Large vs small A","CREDIT","CARD","Study1","F","JOL_Small",3097,"90",1632,"card",100,100
"5d470786da637a00014ba26f",1,"Large vs small A","CREDIT","CARD","Study1","F","JOL_Large",13367,"80",5725,"CARD",100,100
"5ed225b7b49d48185e9e56ae",1,"Large vs small A","CREDIT","CARD","Study1","F","JOL_Large",1892,"90",1512,"card",100,100
"5ede2531cff15e047a4e356e",1,"Large vs small A","CREDIT","CARD","Study1","F","JOL_Large",4967,"99",7426,"card",100,100
"5efb2af24cee7804cac1249c",1,"Large vs small A","CREDIT","CARD","Study1","F","JOL_Small",6637,"100",1962,"card",100,100
"5f0c33a605481902af533527",1,"Large vs small A","CREDIT","CARD","Study1","F","JOL_Large",5876,"100",3760,"Card",100,100
"5f0c7dcc324f8b0ca60380f6",1,"Large vs small A","CREDIT","CARD","Study1","F","JOL_Small",3683,"100",3500,"Card",100,100
"5f112fca114b6a31c9698a4b",1,"Large vs small A","CREDIT","CARD","Study1","F","JOL_Small",4775,"100",5591,"Debit",22.222222222222,0
"59860c81d75d360001b0bd95",1,"Large vs small A","DARK","CAVE","Study1","B","JOL_Large",3334,"70",9311,"cave",100,100
"5ac69733a3ba7a0001b4b75b",1,"Large vs small A","DARK","CAVE","Study1","B","JOL_Large",1982,"60",3964,"Cave",100,100
"5d470786da637a00014ba26f",1,"Large vs small A","DARK","CAVE","Study1","B","JOL_Large",8985,"25",16026,"CAVE",100,100
"5ed225b7b49d48185e9e56ae",1,"Large vs small A","DARK","CAVE","Study1","B","JOL_Large",1245,"30",1902,"light",0,0
"5ede2531cff15e047a4e356e",1,"Large vs small A","DARK","CAVE","Study1","B","JOL_Large",4748,"34",7265,"night",0,0
"5efb2af24cee7804cac1249c",1,"Large vs small A","DARK","CAVE","Study1","B","JOL_Small",4696,"20",5045,"light",0,0
"5f0c33a605481902af533527",1,"Large vs small A","DARK","CAVE","Study1","B","JOL_Large",8704,"19",4007,"Light",0,0
"5f0c7dcc324f8b0ca60380f6",1,"Large vs small A","DARK","CAVE","Study1","B","JOL_Small",6045,"100",21195,"Night",0,0
"5f112fca114b6a31c9698a4b",1,"Large vs small A","DARK","CAVE","Study1","B","JOL_Small",3859,"100",10859,"Cave",100,100
"59860c81d75d360001b0bd95",1,"Large vs small A","DEATH","BUSINESS","Study1","U","JOL_Large",8146,"40",5372,"alive",30.769230769231,0
"5ac69733a3ba7a0001b4b75b",1,"Large vs small A","DEATH","BUSINESS","Study1","U","JOL_Large",4188,"40",1807,"",0,0
"5d470786da637a00014ba26f",1,"Large vs small A","DEATH","BUSINESS","Study1","U","JOL_Large",18866,"65",25587,"BUSINESS",100,100
"5ed225b7b49d48185e9e56ae",1,"Large vs small A","DEATH","BUSINESS","Study1","U","JOL_Small",2523,"1",3579,"end",18.181818181818,0
"5ede2531cff15e047a4e356e",1,"Large vs small A","DEATH","BUSINESS","Study1","U","JOL_Large",5813,"83",4265,"life",33.333333333333,0
"5efb2af24cee7804cac1249c",1,"Large vs small A","DEATH","BUSINESS","Study1","U","JOL_Large",2782,"1",4372,"life",33.333333333333,0
"5f0c33a605481902af533527",1,"Large vs small A","DEATH","BUSINESS","Study1","U","JOL_Small",6168,"18",4346,"Life",33.333333333333,0
"5f0c7dcc324f8b0ca60380f6",1,"Large vs small A","DEATH","BUSINESS","Study1","U","JOL_Small",3923,"0",2373,"",0,0
"5f112fca114b6a31c9698a4b",1,"Large vs small A","DEATH","BUSINESS","Study1","U","JOL_Large",3031,"10",8824,"",0,0
"59860c81d75d360001b0bd95",1,"Large vs small A","DEBATE","SIGHT","Study1","U","JOL_Large",8261,"0",6681,"talk",22.222222222222,0
"5ac69733a3ba7a0001b4b75b",1,"Large vs small A","DEBATE","SIGHT","Study1","U","JOL_Large",3718,"0",5841,"",0,0
"5d470786da637a00014ba26f",1,"Large vs small A","DEBATE","SIGHT","Study1","U","JOL_Small",12206,"5",20722,"DISCUSSION",26.666666666667,0
"5ed225b7b49d48185e9e56ae",1,"Large vs small A","DEBATE","SIGHT","Study1","U","JOL_Small",2946,"30",2586,"speak",20,0
"5ede2531cff15e047a4e356e",1,"Large vs small A","DEBATE","SIGHT","Study1","U","JOL_Small",4702,"0",5966,"jury",0,0
"5efb2af24cee7804cac1249c",1,"Large vs small A","DEBATE","SIGHT","Study1","U","JOL_Large",4959,"0",4013,"",0,0
"5f0c33a605481902af533527",1,"Large vs small A","DEBATE","SIGHT","Study1","U","JOL_Large",10951,"0",7241,"Argument",30.769230769231,0
"5f0c7dcc324f8b0ca60380f6",1,"Large vs small A","DEBATE","SIGHT","Study1","U","JOL_Small",8928,"0",8905,"",0,0
"5f112fca114b6a31c9698a4b",1,"Large vs small A","DEBATE","SIGHT","Study1","U","JOL_Small",3621,"100",4303,"Talk",22.222222222222,0
"59860c81d75d360001b0bd95",1,"Large vs small A","DELINQUENT","BAD","Study1","F","JOL_Small",5125,"80",3458,"bad",100,100
"5ac69733a3ba7a0001b4b75b",1,"Large vs small A","DELINQUENT","BAD","Study1","F","JOL_Small",2224,"30",2008,"bad",100,100
"5d470786da637a00014ba26f",1,"Large vs small A","DELINQUENT","BAD","Study1","F","JOL_Large",12507,"10",4680,"BAD",100,100
"5ed225b7b49d48185e9e56ae",1,"Large vs small A","DELINQUENT","BAD","Study1","F","JOL_Small",2153,"30",2162,"bad",100,100
"5ede2531cff15e047a4e356e",1,"Large vs small A","DELINQUENT","BAD","Study1","F","JOL_Small",9647,"3",3577,"",0,0
"5efb2af24cee7804cac1249c",1,"Large vs small A","DELINQUENT","BAD","Study1","F","JOL_Small",12584,"0",808,"",0,0
"5f0c33a605481902af533527",1,"Large vs small A","DELINQUENT","BAD","Study1","F","JOL_Large",16447,"27",3426,"Bad",100,100
"5f0c7dcc324f8b0ca60380f6",1,"Large vs small A","DELINQUENT","BAD","Study1","F","JOL_Small",7397,"100",2146,"",0,0
"5f112fca114b6a31c9698a4b",1,"Large vs small A","DELINQUENT","BAD","Study1","F","JOL_Small",6781,"50",2415,"",0,0
"59860c81d75d360001b0bd95",1,"Large vs small A","DIETARY","SACKING","Study1","U","JOL_Small",7755,"0",11442,"",0,0
"5ac69733a3ba7a0001b4b75b",1,"Large vs small A","DIETARY","SACKING","Study1","U","JOL_Small",2345,"0",1206,"",0,0
"5d470786da637a00014ba26f",1,"Large vs small A","DIETARY","SACKING","Study1","U","JOL_Small",12910,"0",21428,"STOMACH",42.857142857143,0
"5ed225b7b49d48185e9e56ae",1,"Large vs small A","DIETARY","SACKING","Study1","U","JOL_Small",2520,"2",1898,"milk",18.181818181818,0
"5ede2531cff15e047a4e356e",1,"Large vs small A","DIETARY","SACKING","Study1","U","JOL_Small",5633,"2",5538,"food",0,0
"5efb2af24cee7804cac1249c",1,"Large vs small A","DIETARY","SACKING","Study1","U","JOL_Small",3438,"10",1210,"",0,0
"5f0c33a605481902af533527",1,"Large vs small A","DIETARY","SACKING","Study1","U","JOL_Large",5832,"0",4402,"Health",15.384615384615,0
"5f0c7dcc324f8b0ca60380f6",1,"Large vs small A","DIETARY","SACKING","Study1","U","JOL_Small",5160,"0",1761,"",0,0
"5f112fca114b6a31c9698a4b",1,"Large vs small A","DIETARY","SACKING","Study1","U","JOL_Large",3538,"20",8408,"Food",0,0
"59860c81d75d360001b0bd95",1,"Large vs small A","DIGESTION","STOMACH","Study1","F","JOL_Small",4354,"45",8087,"hunger",15.384615384615,0
"5ac69733a3ba7a0001b4b75b",1,"Large vs small A","DIGESTION","STOMACH","Study1","F","JOL_Small",2105,"80",5062,"stomamch",93.333333333333,100
"5d470786da637a00014ba26f",1,"Large vs small A","DIGESTION","STOMACH","Study1","F","JOL_Large",11604,"40",11405,"STOMACH",100,100
"5ed225b7b49d48185e9e56ae",1,"Large vs small A","DIGESTION","STOMACH","Study1","F","JOL_Large",2441,"33",9380,"stomach",100,100
"5ede2531cff15e047a4e356e",1,"Large vs small A","DIGESTION","STOMACH","Study1","F","JOL_Small",3879,"12",5833,"guts",18.181818181818,0
"5efb2af24cee7804cac1249c",1,"Large vs small A","DIGESTION","STOMACH","Study1","F","JOL_Large",7323,"60",5405,"stomach",100,100
"5f0c33a605481902af533527",1,"Large vs small A","DIGESTION","STOMACH","Study1","F","JOL_Large",5318,"65",4984,"Stomach",100,100
"5f0c7dcc324f8b0ca60380f6",1,"Large vs small A","DIGESTION","STOMACH","Study1","F","JOL_Large",4782,"I ",5703,"Stomach",100,100
"5f112fca114b6a31c9698a4b",1,"Large vs small A","DIGESTION","STOMACH","Study1","F","JOL_Large",3743,"100",3781,"Food",18.181818181818,0
"59860c81d75d360001b0bd95",1,"Large vs small A","DISCOVER","FLOOR","Study1","U","JOL_Large",7623,"5",6611,"fimd",22.222222222222,0
"5ac69733a3ba7a0001b4b75b",1,"Large vs small A","DISCOVER","FLOOR","Study1","U","JOL_Small",3774,"15",3979,"",0,0
"5d470786da637a00014ba26f",1,"Large vs small A","DISCOVER","FLOOR","Study1","U","JOL_Small",11667,"0",20522,"TALK",22.222222222222,0
"5ed225b7b49d48185e9e56ae",1,"Large vs small A","DISCOVER","FLOOR","Study1","U","JOL_Large",1995,"40",2165,"find",22.222222222222,0
"5ede2531cff15e047a4e356e",1,"Large vs small A","DISCOVER","FLOOR","Study1","U","JOL_Large",9558,"37",6002,"find",22.222222222222,0
"5efb2af24cee7804cac1249c",1,"Large vs small A","DISCOVER","FLOOR","Study1","U","JOL_Small",6982,"0",5093,"find",22.222222222222,0
"5f0c33a605481902af533527",1,"Large vs small A","DISCOVER","FLOOR","Study1","U","JOL_Large",10141,"0",4694,"Find",22.222222222222,0
"5f0c7dcc324f8b0ca60380f6",1,"Large vs small A","DISCOVER","FLOOR","Study1","U","JOL_Small",4489,"0",1880,"",0,0
"5f112fca114b6a31c9698a4b",1,"Large vs small A","DISCOVER","FLOOR","Study1","U","JOL_Large",3351,"10",10791,"",0,0
"59860c81d75d360001b0bd95",1,"Large vs small A","DISCUSSION","TALK","Study1","F","JOL_Small",6284,"60",5774,"talk",100,100
"5ac69733a3ba7a0001b4b75b",1,"Large vs small A","DISCUSSION","TALK","Study1","F","JOL_Large",2225,"60",3378,"",0,0
"5d470786da637a00014ba26f",1,"Large vs small A","DISCUSSION","TALK","Study1","F","JOL_Large",12120,"40",15001,"DEBATE",20,0
"5ed225b7b49d48185e9e56ae",1,"Large vs small A","DISCUSSION","TALK","Study1","F","JOL_Large",2973,"80",2252,"talk",100,100
"5ede2531cff15e047a4e356e",1,"Large vs small A","DISCUSSION","TALK","Study1","F","JOL_Large",27478,"57",5256,"chat",25,0
"5efb2af24cee7804cac1249c",1,"Large vs small A","DISCUSSION","TALK","Study1","F","JOL_Large",6910,"60",5164,"talk",100,100
"5f0c33a605481902af533527",1,"Large vs small A","DISCUSSION","TALK","Study1","F","JOL_Small",4350,"15",5106,"Talk",100,100
"5f0c7dcc324f8b0ca60380f6",1,"Large vs small A","DISCUSSION","TALK","Study1","F","JOL_Small",7843,"100",3211,"Talk",100,100
"5f112fca114b6a31c9698a4b",1,"Large vs small A","DISCUSSION","TALK","Study1","F","JOL_Small",3064,"100",3238,"Talk",100,100
"59860c81d75d360001b0bd95",1,"Large vs small A","DRINK","SIP","Study1","B","JOL_Large",5767,"70",11609,"chocolate",0,0
"5ac69733a3ba7a0001b4b75b",1,"Large vs small A","DRINK","SIP","Study1","B","JOL_Large",2484,"15",1409,"",0,0
"5d470786da637a00014ba26f",1,"Large vs small A","DRINK","SIP","Study1","B","JOL_Small",11182,"20",4660,"SIP",100,100
"5ed225b7b49d48185e9e56ae",1,"Large vs small A","DRINK","SIP","Study1","B","JOL_Small",4155,"60",44360,"now",0,0
"5ede2531cff15e047a4e356e",1,"Large vs small A","DRINK","SIP","Study1","B","JOL_Small",6439,"20",17032,"water",0,0
"5efb2af24cee7804cac1249c",1,"Large vs small A","DRINK","SIP","Study1","B","JOL_Small",3570,"40",3364,"eat",0,0
"5f0c33a605481902af533527",1,"Large vs small A","DRINK","SIP","Study1","B","JOL_Small",4285,"60",4856,"Water",0,0
"5f0c7dcc324f8b0ca60380f6",1,"Large vs small A","DRINK","SIP","Study1","B","JOL_Large",4261,"100",7003,"",0,0
"5f112fca114b6a31c9698a4b",1,"Large vs small A","DRINK","SIP","Study1","B","JOL_Large",3581,"100",14339,"Liquid",22.222222222222,0
"59860c81d75d360001b0bd95",1,"Large vs small A","DUE","ASSIGNMENT","Study1","S","JOL_Large",5605,"60",5123,"",0,0
"5ac69733a3ba7a0001b4b75b",1,"Large vs small A","DUE","ASSIGNMENT","Study1","S","JOL_Large",4816,"45",7474,"assignment",100,100
"5d470786da637a00014ba26f",1,"Large vs small A","DUE","ASSIGNMENT","Study1","S","JOL_Large",14483,"10",11712,"LATE",28.571428571429,0
"5ed225b7b49d48185e9e56ae",1,"Large vs small A","DUE","ASSIGNMENT","Study1","S","JOL_Small",1724,"60",3047,"now",15.384615384615,0
"5ede2531cff15e047a4e356e",1,"Large vs small A","DUE","ASSIGNMENT","Study1","S","JOL_Large",7060,"50",4935,"date",28.571428571429,0
"5efb2af24cee7804cac1249c",1,"Large vs small A","DUE","ASSIGNMENT","Study1","S","JOL_Small",4623,"80",6905,"date",28.571428571429,0
"5f0c33a605481902af533527",1,"Large vs small A","DUE","ASSIGNMENT","Study1","S","JOL_Large",5109,"4",6835,"Date",28.571428571429,0
"5f0c7dcc324f8b0ca60380f6",1,"Large vs small A","DUE","ASSIGNMENT","Study1","S","JOL_Small",3359,"0",5474,"Deadline",22.222222222222,0
"5f112fca114b6a31c9698a4b",1,"Large vs small A","DUE","ASSIGNMENT","Study1","S","JOL_Small",11223,"50",8694,"Assignment ",100,100
"59860c81d75d360001b0bd95",1,"Large vs small A","DUMP","WASTE","Study1","S","JOL_Small",5309,"80",4618,"stuff",40,0
"5ac69733a3ba7a0001b4b75b",1,"Large vs small A","DUMP","WASTE","Study1","S","JOL_Large",2963,"40",3157,"",0,0
"5d470786da637a00014ba26f",1,"Large vs small A","DUMP","WASTE","Study1","S","JOL_Small",13957,"35",22825,"WASTE",100,100
"5ed225b7b49d48185e9e56ae",1,"Large vs small A","DUMP","WASTE","Study1","S","JOL_Large",2206,"70",2258,"waste",100,100
"5ede2531cff15e047a4e356e",1,"Large vs small A","DUMP","WASTE","Study1","S","JOL_Small",13214,"53",12873,"trash",40,0
"5efb2af24cee7804cac1249c",1,"Large vs small A","DUMP","WASTE","Study1","S","JOL_Small",4599,"90",2565,"waste",100,100
"5f0c33a605481902af533527",1,"Large vs small A","DUMP","WASTE","Study1","S","JOL_Small",20628,"2",8219,"Site",66.666666666667,0
"5f0c7dcc324f8b0ca60380f6",1,"Large vs small A","DUMP","WASTE","Study1","S","JOL_Large",50956,"100",7602,"Rubbish",16.666666666667,0
"5f112fca114b6a31c9698a4b",1,"Large vs small A","DUMP","WASTE","Study1","S","JOL_Large",7992,"100",2297,"",0,0
"59860c81d75d360001b0bd95",1,"Large vs small A","EDITOR","NEWS","Study1","F","JOL_Small",3144,"90",4516,"news",100,100
"5ac69733a3ba7a0001b4b75b",1,"Large vs small A","EDITOR","NEWS","Study1","F","JOL_Small",2041,"40",3599,"newspaper",61.538461538462,0
"5d470786da637a00014ba26f",1,"Large vs small A","EDITOR","NEWS","Study1","F","JOL_Large",15304,"35",11480,"NEWS",100,100
"5ed225b7b49d48185e9e56ae",1,"Large vs small A","EDITOR","NEWS","Study1","F","JOL_Large",1449,"70",2223,"news",100,100
"5ede2531cff15e047a4e356e",1,"Large vs small A","EDITOR","NEWS","Study1","F","JOL_Small",6631,"23",11490,"newspaper",61.538461538462,0
"5efb2af24cee7804cac1249c",1,"Large vs small A","EDITOR","NEWS","Study1","F","JOL_Small",3824,"10",4276,"video",22.222222222222,0
"5f0c33a605481902af533527",1,"Large vs small A","EDITOR","NEWS","Study1","F","JOL_Small",5070,"47",9367,"Newspaper",61.538461538462,0
"5f0c7dcc324f8b0ca60380f6",1,"Large vs small A","EDITOR","NEWS","Study1","F","JOL_Large",6291,"0",5676,"Writer",20,0
"5f112fca114b6a31c9698a4b",1,"Large vs small A","EDITOR","NEWS","Study1","F","JOL_Large",3897,"100",7524,"News",100,100
"59860c81d75d360001b0bd95",1,"Large vs small A","FIRE","BLAZE","Study1","B","JOL_Small",5199,"75",5212,"blaze",100,100
"5ac69733a3ba7a0001b4b75b",1,"Large vs small A","FIRE","BLAZE","Study1","B","JOL_Small",2186,"50",2764,"",0,0
"5d470786da637a00014ba26f",1,"Large vs small A","FIRE","BLAZE","Study1","B","JOL_Large",16093,"60",15836,"ALARM",40,0
"5ed225b7b49d48185e9e56ae",1,"Large vs small A","FIRE","BLAZE","Study1","B","JOL_Large",1753,"77",1505,"water",40,0
"5ede2531cff15e047a4e356e",1,"Large vs small A","FIRE","BLAZE","Study1","B","JOL_Small",9500,"40",7643,"hydrant",16.666666666667,0
"5efb2af24cee7804cac1249c",1,"Large vs small A","FIRE","BLAZE","Study1","B","JOL_Small",6566,"10",2746,"water",40,0
"5f0c33a605481902af533527",1,"Large vs small A","FIRE","BLAZE","Study1","B","JOL_Large",6014,"45",5426,"Hot",0,0
"5f0c7dcc324f8b0ca60380f6",1,"Large vs small A","FIRE","BLAZE","Study1","B","JOL_Large",3753,"100",4460,"Blaze",100,100
"5f112fca114b6a31c9698a4b",1,"Large vs small A","FIRE","BLAZE","Study1","B","JOL_Small",3414,"100",12846,"",0,0
"59860c81d75d360001b0bd95",1,"Large vs small A","FIX","HAND","Study1","U","JOL_Small",10256,"30",4551,"hand",100,100
"5ac69733a3ba7a0001b4b75b",1,"Large vs small A","FIX","HAND","Study1","U","JOL_Large",5657,"20",2094,"hand",100,100
"5d470786da637a00014ba26f",1,"Large vs small A","FIX","HAND","Study1","U","JOL_Small",9562,"0",13288,"BROKEN",20,0
"5ed225b7b49d48185e9e56ae",1,"Large vs small A","FIX","HAND","Study1","U","JOL_Small",2154,"30",2284,"it",0,0
"5ede2531cff15e047a4e356e",1,"Large vs small A","FIX","HAND","Study1","U","JOL_Small",5402,"2",11373,"repair",20,0
"5efb2af24cee7804cac1249c",1,"Large vs small A","FIX","HAND","Study1","U","JOL_Small",2630,"10",3595,"work",0,0
"5f0c33a605481902af533527",1,"Large vs small A","FIX","HAND","Study1","U","JOL_Small",4685,"0",6603,"Broken",20,0
"5f0c7dcc324f8b0ca60380f6",1,"Large vs small A","FIX","HAND","Study1","U","JOL_Small",39368,"0",2935,"",0,0
"5f112fca114b6a31c9698a4b",1,"Large vs small A","FIX","HAND","Study1","U","JOL_Large",6408,"20",2630,"",0,0
"59860c81d75d360001b0bd95",1,"Large vs small A","FULL","ENOUGH","Study1","B","JOL_Small",5536,"75",4723,"empty",18.181818181818,0
"5ac69733a3ba7a0001b4b75b",1,"Large vs small A","FULL","ENOUGH","Study1","B","JOL_Large",5913,"50",4829,"",0,0
"5d470786da637a00014ba26f",1,"Large vs small A","FULL","ENOUGH","Study1","B","JOL_Large",10367,"20",15041,"ENOUGH",100,100
"5ed225b7b49d48185e9e56ae",1,"Large vs small A","FULL","ENOUGH","Study1","B","JOL_Small",1195,"50",2515,"stomach",30.769230769231,0
"5ede2531cff15e047a4e356e",1,"Large vs small A","FULL","ENOUGH","Study1","B","JOL_Small",9653,"21",5724,"empty",18.181818181818,0
"5efb2af24cee7804cac1249c",1,"Large vs small A","FULL","ENOUGH","Study1","B","JOL_Large",5380,"50",4252,"empty",18.181818181818,0
"5f0c33a605481902af533527",1,"Large vs small A","FULL","ENOUGH","Study1","B","JOL_Small",4883,"2",15804,"Stomach",30.769230769231,0
"5f0c7dcc324f8b0ca60380f6",1,"Large vs small A","FULL","ENOUGH","Study1","B","JOL_Small",5699,"100",4185,"",0,0
"5f112fca114b6a31c9698a4b",1,"Large vs small A","FULL","ENOUGH","Study1","B","JOL_Small",3591,"100",3977,"Fill",0,0
"59860c81d75d360001b0bd95",1,"Large vs small A","GEOLOGY","ROCK","Study1","F","JOL_Small",4962,"95",3131,"rock",100,100
"5ac69733a3ba7a0001b4b75b",1,"Large vs small A","GEOLOGY","ROCK","Study1","F","JOL_Large",4710,"95",1336,"rock",100,100
"5d470786da637a00014ba26f",1,"Large vs small A","GEOLOGY","ROCK","Study1","F","JOL_Large",13273,"40",3295,"ROCKS",88.888888888889,100
"5ed225b7b49d48185e9e56ae",1,"Large vs small A","GEOLOGY","ROCK","Study1","F","JOL_Large",1561,"60",3270,"rock",100,100
"5ede2531cff15e047a4e356e",1,"Large vs small A","GEOLOGY","ROCK","Study1","F","JOL_Small",12554,"30",6785,"rock",100,100
"5efb2af24cee7804cac1249c",1,"Large vs small A","GEOLOGY","ROCK","Study1","F","JOL_Large",14894,"0",995,"",0,0
"5f0c33a605481902af533527",1,"Large vs small A","GEOLOGY","ROCK","Study1","F","JOL_Large",5137,"95",3432,"Rock",100,100
"5f0c7dcc324f8b0ca60380f6",1,"Large vs small A","GEOLOGY","ROCK","Study1","F","JOL_Large",3729,"0",3768,"Rocks",88.888888888889,100
"5f112fca114b6a31c9698a4b",1,"Large vs small A","GEOLOGY","ROCK","Study1","F","JOL_Small",4879,"70",9399,"Rock ",100,100
"59860c81d75d360001b0bd95",1,"Large vs small A","GREAT","FANTASTIC","Study1","B","JOL_Small",4137,"80",7486,"god",0,0
"5ac69733a3ba7a0001b4b75b",1,"Large vs small A","GREAT","FANTASTIC","Study1","B","JOL_Large",2179,"40",5158,"fantastic",100,100
"5d470786da637a00014ba26f",1,"Large vs small A","GREAT","FANTASTIC","Study1","B","JOL_Large",11855,"40",21576,"LIFT",15.384615384615,0
"5ed225b7b49d48185e9e56ae",1,"Large vs small A","GREAT","FANTASTIC","Study1","B","JOL_Small",2116,"50",3094,"fantastic",100,100
"5ede2531cff15e047a4e356e",1,"Large vs small A","GREAT","FANTASTIC","Study1","B","JOL_Large",5425,"29",8548,"wall",15.384615384615,0
"5efb2af24cee7804cac1249c",1,"Large vs small A","GREAT","FANTASTIC","Study1","B","JOL_Small",3577,"35",6004,"amazing",37.5,0
"5f0c33a605481902af533527",1,"Large vs small A","GREAT","FANTASTIC","Study1","B","JOL_Small",5246,"32",7032,"Wall",15.384615384615,0
"5f0c7dcc324f8b0ca60380f6",1,"Large vs small A","GREAT","FANTASTIC","Study1","B","JOL_Small",3585,"100",6770,"",0,0
"5f112fca114b6a31c9698a4b",1,"Large vs small A","GREAT","FANTASTIC","Study1","B","JOL_Large",3508,"100",5056,"",0,0
"59860c81d75d360001b0bd95",1,"Large vs small A","GRILL","BAR","Study1","S","JOL_Large",5446,"30",2774,"bar",100,100
"5ac69733a3ba7a0001b4b75b",1,"Large vs small A","GRILL","BAR","Study1","S","JOL_Small",3822,"60",3013,"bar",100,100
"5d470786da637a00014ba26f",1,"Large vs small A","GRILL","BAR","Study1","S","JOL_Small",9989,"5",4032,"BAR",100,100
"5ed225b7b49d48185e9e56ae",1,"Large vs small A","GRILL","BAR","Study1","S","JOL_Small",2043,"33",2563,"fish",0,0
"5ede2531cff15e047a4e356e",1,"Large vs small A","GRILL","BAR","Study1","S","JOL_Small",7226,"33",3196,"bar",100,100
"5efb2af24cee7804cac1249c",1,"Large vs small A","GRILL","BAR","Study1","S","JOL_Large",8487,"40",3412,"steak",25,0
"5f0c33a605481902af533527",1,"Large vs small A","GRILL","BAR","Study1","S","JOL_Small",5062,"5",5487,"Oven",0,0
"5f0c7dcc324f8b0ca60380f6",1,"Large vs small A","GRILL","BAR","Study1","S","JOL_Large",3677,"0",12795,"Cook",0,0
"5f112fca114b6a31c9698a4b",1,"Large vs small A","GRILL","BAR","Study1","S","JOL_Large",3784,"40",5540,"Meat",28.571428571429,0
"59860c81d75d360001b0bd95",1,"Large vs small A","HAPPY","CAR","Study1","U","JOL_Small",6881,"5",4636,"car",100,100
"5ac69733a3ba7a0001b4b75b",1,"Large vs small A","HAPPY","CAR","Study1","U","JOL_Large",1235,"0",1774,"",0,0
"5d470786da637a00014ba26f",1,"Large vs small A","HAPPY","CAR","Study1","U","JOL_Small",12365,"10",11691,"SAD",33.333333333333,0
"5ed225b7b49d48185e9e56ae",1,"Large vs small A","HAPPY","CAR","Study1","U","JOL_Small",3029,"50",2110,"sad",33.333333333333,0
"5ede2531cff15e047a4e356e",1,"Large vs small A","HAPPY","CAR","Study1","U","JOL_Large",6784,"31",6350,"ending",0,0
"5efb2af24cee7804cac1249c",1,"Large vs small A","HAPPY","CAR","Study1","U","JOL_Large",7105,"10",4723,"sad",33.333333333333,0
"5f0c33a605481902af533527",1,"Large vs small A","HAPPY","CAR","Study1","U","JOL_Large",4216,"0",3784,"Sad",33.333333333333,0
"5f0c7dcc324f8b0ca60380f6",1,"Large vs small A","HAPPY","CAR","Study1","U","JOL_Large",4916,"0",2677,"",0,0
"5f112fca114b6a31c9698a4b",1,"Large vs small A","HAPPY","CAR","Study1","U","JOL_Small",4450,"10",12600,"Enthusiastic ",13.333333333333,0
"59860c81d75d360001b0bd95",1,"Large vs small A","HEIGHT","GROWTH","Study1","B","JOL_Small",2556,"90",4093,"growth",100,100
"5ac69733a3ba7a0001b4b75b",1,"Large vs small A","HEIGHT","GROWTH","Study1","B","JOL_Large",2738,"60",9131,"weight",33.333333333333,0
"5d470786da637a00014ba26f",1,"Large vs small A","HEIGHT","GROWTH","Study1","B","JOL_Large",11995,"10",7271,"GROWTH",100,100
"5ed225b7b49d48185e9e56ae",1,"Large vs small A","HEIGHT","GROWTH","Study1","B","JOL_Small",2285,"40",2185,"tall",20,0
"5ede2531cff15e047a4e356e",1,"Large vs small A","HEIGHT","GROWTH","Study1","B","JOL_Small",6089,"52",6015,"tall",20,0
"5efb2af24cee7804cac1249c",1,"Large vs small A","HEIGHT","GROWTH","Study1","B","JOL_Small",5069,"80",2828,"age",22.222222222222,0
"5f0c33a605481902af533527",1,"Large vs small A","HEIGHT","GROWTH","Study1","B","JOL_Small",3848,"10",8105,"Weight",33.333333333333,0
"5f0c7dcc324f8b0ca60380f6",1,"Large vs small A","HEIGHT","GROWTH","Study1","B","JOL_Large",3778,"100",4375,"Tall",20,0
"5f112fca114b6a31c9698a4b",1,"Large vs small A","HEIGHT","GROWTH","Study1","B","JOL_Small",3415,"100",3202,"",0,0
"59860c81d75d360001b0bd95",1,"Large vs small A","HERD","COW","Study1","F","JOL_Small",5668,"80",2951,"cow",100,100
"5ac69733a3ba7a0001b4b75b",1,"Large vs small A","HERD","COW","Study1","F","JOL_Small",3548,"30",1265,"cow",100,100
"5d470786da637a00014ba26f",1,"Large vs small A","HERD","COW","Study1","F","JOL_Large",11461,"50",6206,"COW",100,100
"5ed225b7b49d48185e9e56ae",1,"Large vs small A","HERD","COW","Study1","F","JOL_Small",3932,"30",2833,"cow",100,100
"5ede2531cff15e047a4e356e",1,"Large vs small A","HERD","COW","Study1","F","JOL_Large",6094,"80",5027,"cows",85.714285714286,100
"5efb2af24cee7804cac1249c",1,"Large vs small A","HERD","COW","Study1","F","JOL_Small",4570,"20",5424,"group",25,0
"5f0c33a605481902af533527",1,"Large vs small A","HERD","COW","Study1","F","JOL_Small",5971,"5",10853,"Cows",85.714285714286,100
"5f0c7dcc324f8b0ca60380f6",1,"Large vs small A","HERD","COW","Study1","F","JOL_Large",8405,"0",4979,"Cow",100,100
"5f112fca114b6a31c9698a4b",1,"Large vs small A","HERD","COW","Study1","F","JOL_Small",3825,"100",6218,"Cow",100,100
"59860c81d75d360001b0bd95",1,"Large vs small A","HIDE","SICK","Study1","U","JOL_Small",7179,"1",7422,"find",25,0
"5ac69733a3ba7a0001b4b75b",1,"Large vs small A","HIDE","SICK","Study1","U","JOL_Small",3769,"10",3290,"scared",40,0
"5d470786da637a00014ba26f",1,"Large vs small A","HIDE","SICK","Study1","U","JOL_Large",9489,"5",25774,"SEEK",50,0
"5ed225b7b49d48185e9e56ae",1,"Large vs small A","HIDE","SICK","Study1","U","JOL_Small",204950,"22",2007,"seek",50,0
"5ede2531cff15e047a4e356e",1,"Large vs small A","HIDE","SICK","Study1","U","JOL_Large",19642,NA,12700,"seek",50,0
"5efb2af24cee7804cac1249c",1,"Large vs small A","HIDE","SICK","Study1","U","JOL_Large",3468,"0",3647,"seek",50,0
"5f0c33a605481902af533527",1,"Large vs small A","HIDE","SICK","Study1","U","JOL_Large",5130,"3",5308,"Seek",50,0
"5f0c7dcc324f8b0ca60380f6",1,"Large vs small A","HIDE","SICK","Study1","U","JOL_Large",5956,"0",13616,"Seek",50,0
"5f112fca114b6a31c9698a4b",1,"Large vs small A","HIDE","SICK","Study1","U","JOL_Large",5543,"10",9414,"Seek",50,0
"59860c81d75d360001b0bd95",1,"Large vs small A","HONEY","BEE","Study1","S","JOL_Small",2662,"100",1795,"bee",100,100
"5ac69733a3ba7a0001b4b75b",1,"Large vs small A","HONEY","BEE","Study1","S","JOL_Small",3405,"90",1888,"bee",100,100
"5d470786da637a00014ba26f",1,"Large vs small A","HONEY","BEE","Study1","S","JOL_Large",13618,"75",12397,"STING",0,0
"5ed225b7b49d48185e9e56ae",1,"Large vs small A","HONEY","BEE","Study1","S","JOL_Small",2629,"80",2815,"bee",100,100
"5ede2531cff15e047a4e356e",1,"Large vs small A","HONEY","BEE","Study1","S","JOL_Small",4619,"89",4491,"bees",85.714285714286,100
"5efb2af24cee7804cac1249c",1,"Large vs small A","HONEY","BEE","Study1","S","JOL_Small",3240,"100",4071,"bee",100,100
"5f0c33a605481902af533527",1,"Large vs small A","HONEY","BEE","Study1","S","JOL_Small",6504,"95",4401,"Bee",100,100
"5f0c7dcc324f8b0ca60380f6",1,"Large vs small A","HONEY","BEE","Study1","S","JOL_Small",3690,"100",3093,"Bee",100,100
"5f112fca114b6a31c9698a4b",1,"Large vs small A","HONEY","BEE","Study1","S","JOL_Large",2837,"100",4709,"Bee",100,100
"59860c81d75d360001b0bd95",1,"Large vs small A","HORNET","STING","Study1","F","JOL_Small",4570,"90",3258,"sting",100,100
"5ac69733a3ba7a0001b4b75b",1,"Large vs small A","HORNET","STING","Study1","F","JOL_Large",3376,"100",2849,"sting",100,100
"5d470786da637a00014ba26f",1,"Large vs small A","HORNET","STING","Study1","F","JOL_Small",10070,"40",20426,"STING",100,100
"5ed225b7b49d48185e9e56ae",1,"Large vs small A","HORNET","STING","Study1","F","JOL_Large",3159,"40",2644,"bee",0,0
"5ede2531cff15e047a4e356e",1,"Large vs small A","HORNET","STING","Study1","F","JOL_Small",4191,"66",6085,"sting",100,100
"5efb2af24cee7804cac1249c",1,"Large vs small A","HORNET","STING","Study1","F","JOL_Large",3231,"75",3909,"wasp",22.222222222222,0
"5f0c33a605481902af533527",1,"Large vs small A","HORNET","STING","Study1","F","JOL_Small",3841,"2",4079,"Wasp",22.222222222222,0
"5f0c7dcc324f8b0ca60380f6",1,"Large vs small A","HORNET","STING","Study1","F","JOL_Small",4247,"100",7861,"Sting",100,100
"5f112fca114b6a31c9698a4b",1,"Large vs small A","HORNET","STING","Study1","F","JOL_Large",3729,"100",4217,"Bee",0,0
"59860c81d75d360001b0bd95",1,"Large vs small A","HOT","CHILI","Study1","B","JOL_Large",7674,"95",24518,"chocolate",42.857142857143,0
"5ac69733a3ba7a0001b4b75b",1,"Large vs small A","HOT","CHILI","Study1","B","JOL_Small",7640,"80",4459,"spicy",20,0
"5d470786da637a00014ba26f",1,"Large vs small A","HOT","CHILI","Study1","B","JOL_Small",13189,"35",4833,"CHILI",100,100
"5ed225b7b49d48185e9e56ae",1,"Large vs small A","HOT","CHILI","Study1","B","JOL_Large",4323,"79",1975,"cold",44.444444444444,0
"5ede2531cff15e047a4e356e",1,"Large vs small A","HOT","CHILI","Study1","B","JOL_Large",3586,"87",5851,"chilli",90.909090909091,100
"5efb2af24cee7804cac1249c",1,"Large vs small A","HOT","CHILI","Study1","B","JOL_Large",3135,"75",9541,"temperature",0,0
"5f0c33a605481902af533527",1,"Large vs small A","HOT","CHILI","Study1","B","JOL_Large",5759,"40",3205,"Cold",44.444444444444,0
"5f0c7dcc324f8b0ca60380f6",1,"Large vs small A","HOT","CHILI","Study1","B","JOL_Small",32404,"0",6553,"",0,0
"5f112fca114b6a31c9698a4b",1,"Large vs small A","HOT","CHILI","Study1","B","JOL_Large",3172,"100",2809,"",0,0
"59860c81d75d360001b0bd95",1,"Large vs small A","HUNGER","FAMINE","Study1","B","JOL_Small",4859,"70",12731,"",0,0
"5ac69733a3ba7a0001b4b75b",1,"Large vs small A","HUNGER","FAMINE","Study1","B","JOL_Large",2203,"30",2983,"",0,0
"5d470786da637a00014ba26f",1,"Large vs small A","HUNGER","FAMINE","Study1","B","JOL_Large",14627,"85",22221,"PARK",20,0
"5ed225b7b49d48185e9e56ae",1,"Large vs small A","HUNGER","FAMINE","Study1","B","JOL_Large",1435,"44",5112,"food",20,0
"5ede2531cff15e047a4e356e",1,"Large vs small A","HUNGER","FAMINE","Study1","B","JOL_Large",5979,"34",6003,"games",54.545454545455,0
"5efb2af24cee7804cac1249c",1,"Large vs small A","HUNGER","FAMINE","Study1","B","JOL_Large",2600,"0",10270,"",0,0
"5f0c33a605481902af533527",1,"Large vs small A","HUNGER","FAMINE","Study1","B","JOL_Small",6393,"12",5661,"Full",20,0
"5f0c7dcc324f8b0ca60380f6",1,"Large vs small A","HUNGER","FAMINE","Study1","B","JOL_Large",6705,"0",12544,"",0,0
"5f112fca114b6a31c9698a4b",1,"Large vs small A","HUNGER","FAMINE","Study1","B","JOL_Small",2822,"100",9726,"Famine ",100,100
"59860c81d75d360001b0bd95",1,"Large vs small A","HYGIENE","CLEAN","Study1","F","JOL_Large",5377,"95",3165,"clean",100,100
"5ac69733a3ba7a0001b4b75b",1,"Large vs small A","HYGIENE","CLEAN","Study1","F","JOL_Large",1698,"20",1489,"clean",100,100
"5d470786da637a00014ba26f",1,"Large vs small A","HYGIENE","CLEAN","Study1","F","JOL_Small",12497,"45",13674,"CLEAN",100,100
"5ed225b7b49d48185e9e56ae",1,"Large vs small A","HYGIENE","CLEAN","Study1","F","JOL_Small",1420,"90",1824,"clean",100,100
"5ede2531cff15e047a4e356e",1,"Large vs small A","HYGIENE","CLEAN","Study1","F","JOL_Large",5600,"56",6312,"wash",22.222222222222,0
"5efb2af24cee7804cac1249c",1,"Large vs small A","HYGIENE","CLEAN","Study1","F","JOL_Small",12571,"55",3049,"clean",100,100
"5f0c33a605481902af533527",1,"Large vs small A","HYGIENE","CLEAN","Study1","F","JOL_Small",27588,"45",5343,"Clean",100,100
"5f0c7dcc324f8b0ca60380f6",1,"Large vs small A","HYGIENE","CLEAN","Study1","F","JOL_Large",4997,"100",3578,"Clean",100,100
"5f112fca114b6a31c9698a4b",1,"Large vs small A","HYGIENE","CLEAN","Study1","F","JOL_Large",5967,"100",4858,"Health",36.363636363636,0
"59860c81d75d360001b0bd95",1,"Large vs small A","KEY","LATCH","Study1","B","JOL_Small",5008,"75",11533,"larch",80,100
"5ac69733a3ba7a0001b4b75b",1,"Large vs small A","KEY","LATCH","Study1","B","JOL_Large",1949,"80",1617,"latch",100,100
"5d470786da637a00014ba26f",1,"Large vs small A","KEY","LATCH","Study1","B","JOL_Small",14969,"5",5401,"LATCH",100,100
"5ed225b7b49d48185e9e56ae",1,"Large vs small A","KEY","LATCH","Study1","B","JOL_Small",1573,"70",2633,"lock",44.444444444444,0
"5ede2531cff15e047a4e356e",1,"Large vs small A","KEY","LATCH","Study1","B","JOL_Small",8074,"13",5506,"lock",44.444444444444,0
"5efb2af24cee7804cac1249c",1,"Large vs small A","KEY","LATCH","Study1","B","JOL_Large",8184,"30",10899,"lock",44.444444444444,0
"5f0c33a605481902af533527",1,"Large vs small A","KEY","LATCH","Study1","B","JOL_Large",5054,"30",4512,"Lock",44.444444444444,0
"5f0c7dcc324f8b0ca60380f6",1,"Large vs small A","KEY","LATCH","Study1","B","JOL_Small",43751,"0",7161,"Ring",0,0
"5f112fca114b6a31c9698a4b",1,"Large vs small A","KEY","LATCH","Study1","B","JOL_Small",4783,"30",8004,"",0,0
"59860c81d75d360001b0bd95",1,"Large vs small A","KIDNEY","LIVER","Study1","S","JOL_Large",3188,"80",3185,"liver",100,100
"5ac69733a3ba7a0001b4b75b",1,"Large vs small A","KIDNEY","LIVER","Study1","S","JOL_Small",2733,"15",1531,"liver",100,100
"5d470786da637a00014ba26f",1,"Large vs small A","KIDNEY","LIVER","Study1","S","JOL_Large",10923,"60",3340,"LIVER",100,100
"5ed225b7b49d48185e9e56ae",1,"Large vs small A","KIDNEY","LIVER","Study1","S","JOL_Large",2531,"60",3070,"heart",40,0
"5ede2531cff15e047a4e356e",1,"Large vs small A","KIDNEY","LIVER","Study1","S","JOL_Large",4730,"57",5138,"liver",100,100
"5efb2af24cee7804cac1249c",1,"Large vs small A","KIDNEY","LIVER","Study1","S","JOL_Small",2857,"95",2936,"liver",100,100
"5f0c33a605481902af533527",1,"Large vs small A","KIDNEY","LIVER","Study1","S","JOL_Small",9337,"62",3593,"Liver",100,100
"5f0c7dcc324f8b0ca60380f6",1,"Large vs small A","KIDNEY","LIVER","Study1","S","JOL_Small",4658,"0",3445,"Liver",100,100
"5f112fca114b6a31c9698a4b",1,"Large vs small A","KIDNEY","LIVER","Study1","S","JOL_Small",3628,"100",6170,"Liver",100,100
"59860c81d75d360001b0bd95",1,"Large vs small A","KING","VASE","Study1","U","JOL_Small",7758,"5",6848,"",0,0
"5ac69733a3ba7a0001b4b75b",1,"Large vs small A","KING","VASE","Study1","U","JOL_Small",9130,"5",3093,"",0,0
"5d470786da637a00014ba26f",1,"Large vs small A","KING","VASE","Study1","U","JOL_Large",9438,"5",6135,"MAKER",44.444444444444,0
"5ed225b7b49d48185e9e56ae",1,"Large vs small A","KING","VASE","Study1","U","JOL_Small",1380,"33",2752,"queen",22.222222222222,0
"5ede2531cff15e047a4e356e",1,"Large vs small A","KING","VASE","Study1","U","JOL_Large",3491,"3",8939,"crown",0,0
"5efb2af24cee7804cac1249c",1,"Large vs small A","KING","VASE","Study1","U","JOL_Small",6015,"5",2681,"queen",22.222222222222,0
"5f0c33a605481902af533527",1,"Large vs small A","KING","VASE","Study1","U","JOL_Small",5360,"1",5165,"Prawn",22.222222222222,0
"5f0c7dcc324f8b0ca60380f6",1,"Large vs small A","KING","VASE","Study1","U","JOL_Large",3198,"0",2023,"",0,0
"5f112fca114b6a31c9698a4b",1,"Large vs small A","KING","VASE","Study1","U","JOL_Small",5513,"20",12298,"",0,0
"59860c81d75d360001b0bd95",1,"Large vs small A","LAW","ATTORNEY","Study1","B","JOL_Small",3751,"70",9955,"police",28.571428571429,0
"5ac69733a3ba7a0001b4b75b",1,"Large vs small A","LAW","ATTORNEY","Study1","B","JOL_Small",2519,"60",3912,"",0,0
"5d470786da637a00014ba26f",1,"Large vs small A","LAW","ATTORNEY","Study1","B","JOL_Small",11401,"15",16734,"ORDER",46.153846153846,0
"5ed225b7b49d48185e9e56ae",1,"Large vs small A","LAW","ATTORNEY","Study1","B","JOL_Small",1383,"60",3659,"order",46.153846153846,0
"5ede2531cff15e047a4e356e",1,"Large vs small A","LAW","ATTORNEY","Study1","B","JOL_Small",8351,"30",1983,"",0,0
"5efb2af24cee7804cac1249c",1,"Large vs small A","LAW","ATTORNEY","Study1","B","JOL_Large",6143,"5",4051,"jury",33.333333333333,0
"5f0c33a605481902af533527",1,"Large vs small A","LAW","ATTORNEY","Study1","B","JOL_Small",4967,"12",9034,"Suit",16.666666666667,0
"5f0c7dcc324f8b0ca60380f6",1,"Large vs small A","LAW","ATTORNEY","Study1","B","JOL_Large",7423,"0",5919,"Attorney ",100,100
"5f112fca114b6a31c9698a4b",1,"Large vs small A","LAW","ATTORNEY","Study1","B","JOL_Small",3262,"100",7909,"Attorney",100,100
"59860c81d75d360001b0bd95",1,"Large vs small A","LETTUCE","SALAD","Study1","S","JOL_Small",3605,"90",2789,"salad",100,100
"5ac69733a3ba7a0001b4b75b",1,"Large vs small A","LETTUCE","SALAD","Study1","S","JOL_Small",3667,"90",2105,"salad",100,100
"5d470786da637a00014ba26f",1,"Large vs small A","LETTUCE","SALAD","Study1","S","JOL_Small",11041,"40",13158,"SALAD",100,100
"5ed225b7b49d48185e9e56ae",1,"Large vs small A","LETTUCE","SALAD","Study1","S","JOL_Large",2116,"70",1978,"wet",0,0
"5ede2531cff15e047a4e356e",1,"Large vs small A","LETTUCE","SALAD","Study1","S","JOL_Small",4478,"60",7908,"salad",100,100
"5efb2af24cee7804cac1249c",1,"Large vs small A","LETTUCE","SALAD","Study1","S","JOL_Large",2460,"100",3337,"salad",100,100
"5f0c33a605481902af533527",1,"Large vs small A","LETTUCE","SALAD","Study1","S","JOL_Small",7437,"78",4518,"Salad",100,100
"5f0c7dcc324f8b0ca60380f6",1,"Large vs small A","LETTUCE","SALAD","Study1","S","JOL_Large",5245,"100",5605,"Salad",100,100
"5f112fca114b6a31c9698a4b",1,"Large vs small A","LETTUCE","SALAD","Study1","S","JOL_Large",2888,"100",5606,"Salad ",100,100
"59860c81d75d360001b0bd95",1,"Large vs small A","LIFT","WOMAN","Study1","U","JOL_Small",8507,"5",10422,"",0,0
"5ac69733a3ba7a0001b4b75b",1,"Large vs small A","LIFT","WOMAN","Study1","U","JOL_Small",3335,"25",1781,"woman",100,100
"5d470786da637a00014ba26f",1,"Large vs small A","LIFT","WOMAN","Study1","U","JOL_Small",10612,"0",8957,"WOMAN",100,100
"5ed225b7b49d48185e9e56ae",1,"Large vs small A","LIFT","WOMAN","Study1","U","JOL_Small",2009,"11",4188,"flat",22.222222222222,0
"5ede2531cff15e047a4e356e",1,"Large vs small A","LIFT","WOMAN","Study1","U","JOL_Large",4243,"9",4182,"up",0,0
"5efb2af24cee7804cac1249c",1,"Large vs small A","LIFT","WOMAN","Study1","U","JOL_Large",9787,"0",4597,"elevator",15.384615384615,0
"5f0c33a605481902af533527",1,"Large vs small A","LIFT","WOMAN","Study1","U","JOL_Small",5879,"4",6246,"Stairs",18.181818181818,0
"5f0c7dcc324f8b0ca60380f6",1,"Large vs small A","LIFT","WOMAN","Study1","U","JOL_Large",3442,"0",3958,"Woman",100,100
"5f112fca114b6a31c9698a4b",1,"Large vs small A","LIFT","WOMAN","Study1","U","JOL_Large",3092,"10",4447,"",0,0
"59860c81d75d360001b0bd95",1,"Large vs small A","LOCATION","SITE","Study1","S","JOL_Large",5684,"70",2641,"p;ace",22.222222222222,0
"5ac69733a3ba7a0001b4b75b",1,"Large vs small A","LOCATION","SITE","Study1","S","JOL_Small",2586,"40",3617,"place",22.222222222222,0
"5d470786da637a00014ba26f",1,"Large vs small A","LOCATION","SITE","Study1","S","JOL_Large",17182,"20",4454,"SITE",100,100
"5ed225b7b49d48185e9e56ae",1,"Large vs small A","LOCATION","SITE","Study1","S","JOL_Large",2228,"70",2959,"house",44.444444444444,0
"5ede2531cff15e047a4e356e",1,"Large vs small A","LOCATION","SITE","Study1","S","JOL_Large",8405,"33",21281,"map",0,0
"5efb2af24cee7804cac1249c",1,"Large vs small A","LOCATION","SITE","Study1","S","JOL_Small",8674,"40",6643,"destination",13.333333333333,0
"5f0c33a605481902af533527",1,"Large vs small A","LOCATION","SITE","Study1","S","JOL_Large",4202,"2",13522,"Place",22.222222222222,0
"5f0c7dcc324f8b0ca60380f6",1,"Large vs small A","LOCATION","SITE","Study1","S","JOL_Large",3349,"0",4195,"Place",22.222222222222,0
"5f112fca114b6a31c9698a4b",1,"Large vs small A","LOCATION","SITE","Study1","S","JOL_Small",3581,"100",4554,"Place ",22.222222222222,0
"59860c81d75d360001b0bd95",1,"Large vs small A","MACHINE","POSITION","Study1","U","JOL_Large",8373,"45",4211,"move",16.666666666667,0
"5ac69733a3ba7a0001b4b75b",1,"Large vs small A","MACHINE","POSITION","Study1","U","JOL_Large",2271,"10",3096,"",0,0
"5d470786da637a00014ba26f",1,"Large vs small A","MACHINE","POSITION","Study1","U","JOL_Small",11520,"5",3832,"POSITION",100,100
"5ed225b7b49d48185e9e56ae",1,"Large vs small A","MACHINE","POSITION","Study1","U","JOL_Large",1461,"20",2193,"wash",16.666666666667,0
"5ede2531cff15e047a4e356e",1,"Large vs small A","MACHINE","POSITION","Study1","U","JOL_Small",7996,"21",4484,"made",0,0
"5efb2af24cee7804cac1249c",1,"Large vs small A","MACHINE","POSITION","Study1","U","JOL_Large",5131,"0",5192,"worker",14.285714285714,0
"5f0c33a605481902af533527",1,"Large vs small A","MACHINE","POSITION","Study1","U","JOL_Small",6301,"1",13849,"Company ",26.666666666667,0
"5f0c7dcc324f8b0ca60380f6",1,"Large vs small A","MACHINE","POSITION","Study1","U","JOL_Small",7918,"0",6088,"",0,0
"5f112fca114b6a31c9698a4b",1,"Large vs small A","MACHINE","POSITION","Study1","U","JOL_Small",4470,"10",2390,"",0,0
"59860c81d75d360001b0bd95",1,"Large vs small A","MATH","DIVISION","Study1","B","JOL_Small",6064,"75",4891,"division",100,100
"5ac69733a3ba7a0001b4b75b",1,"Large vs small A","MATH","DIVISION","Study1","B","JOL_Small",2334,"80",1912,"division",100,100
"5d470786da637a00014ba26f",1,"Large vs small A","MATH","DIVISION","Study1","B","JOL_Small",13863,"35",28003,"DEBATE",14.285714285714,0
"5ed225b7b49d48185e9e56ae",1,"Large vs small A","MATH","DIVISION","Study1","B","JOL_Large",1588,"70",1718,"count",30.769230769231,0
"5ede2531cff15e047a4e356e",1,"Large vs small A","MATH","DIVISION","Study1","B","JOL_Small",5825,"26",7680,"numbers",13.333333333333,0
"5efb2af24cee7804cac1249c",1,"Large vs small A","MATH","DIVISION","Study1","B","JOL_Large",3402,"40",5722,"division",100,100
"5f0c33a605481902af533527",1,"Large vs small A","MATH","DIVISION","Study1","B","JOL_Small",5273,"7",5436,"Division ",100,100
"5f0c7dcc324f8b0ca60380f6",1,"Large vs small A","MATH","DIVISION","Study1","B","JOL_Small",5782,"100",9696,"Number",14.285714285714,0
"5f112fca114b6a31c9698a4b",1,"Large vs small A","MATH","DIVISION","Study1","B","JOL_Large",3085,"100",7300,"Calculation",31.578947368421,0
"59860c81d75d360001b0bd95",1,"Large vs small A","MEANING","DEFINITION","Study1","S","JOL_Small",2812,"90",11520,"definition ",100,100
"5ac69733a3ba7a0001b4b75b",1,"Large vs small A","MEANING","DEFINITION","Study1","S","JOL_Small",2853,"50",3054,"definition",100,100
"5d470786da637a00014ba26f",1,"Large vs small A","MEANING","DEFINITION","Study1","S","JOL_Small",13364,"5",15284,"DISCUSSION",50,0
"5ed225b7b49d48185e9e56ae",1,"Large vs small A","MEANING","DEFINITION","Study1","S","JOL_Large",83524,"22",2099,"word",14.285714285714,0
"5ede2531cff15e047a4e356e",1,"Large vs small A","MEANING","DEFINITION","Study1","S","JOL_Small",6244,"71",2657,"",0,0
"5efb2af24cee7804cac1249c",1,"Large vs small A","MEANING","DEFINITION","Study1","S","JOL_Large",8323,"30",7632,"definition",100,100
"5f0c33a605481902af533527",1,"Large vs small A","MEANING","DEFINITION","Study1","S","JOL_Large",6529,"10",5433,"Definition ",100,100
"5f0c7dcc324f8b0ca60380f6",1,"Large vs small A","MEANING","DEFINITION","Study1","S","JOL_Large",28684,"100",2051,"",0,0
"5f112fca114b6a31c9698a4b",1,"Large vs small A","MEANING","DEFINITION","Study1","S","JOL_Small",3907,"100",3454,"Word",14.285714285714,0
"59860c81d75d360001b0bd95",1,"Large vs small A","NUMBER","AMOUNT","Study1","S","JOL_Large",5726,"95",7090,"",0,0
"5ac69733a3ba7a0001b4b75b",1,"Large vs small A","NUMBER","AMOUNT","Study1","S","JOL_Small",4735,"60",2895,"amount",100,100
"5d470786da637a00014ba26f",1,"Large vs small A","NUMBER","AMOUNT","Study1","S","JOL_Large",11324,"15",18249,"AMOUNT",100,100
"5ed225b7b49d48185e9e56ae",1,"Large vs small A","NUMBER","AMOUNT","Study1","S","JOL_Small",2176,"40",1934,"count",72.727272727273,0
"5ede2531cff15e047a4e356e",1,"Large vs small A","NUMBER","AMOUNT","Study1","S","JOL_Large",4445,"42",3485,"",0,0
"5efb2af24cee7804cac1249c",1,"Large vs small A","NUMBER","AMOUNT","Study1","S","JOL_Large",2952,"75",3861,"letter",16.666666666667,0
"5f0c33a605481902af533527",1,"Large vs small A","NUMBER","AMOUNT","Study1","S","JOL_Large",6433,"12",4704,"Letter",16.666666666667,0
"5f0c7dcc324f8b0ca60380f6",1,"Large vs small A","NUMBER","AMOUNT","Study1","S","JOL_Small",4109,"100",17079,"Accounting ",62.5,0
"5f112fca114b6a31c9698a4b",1,"Large vs small A","NUMBER","AMOUNT","Study1","S","JOL_Small",4090,"100",3165,"",0,0
"59860c81d75d360001b0bd95",1,"Large vs small A","ORCHID","FLOWER","Study1","F","JOL_Small",3607,"100",4413,"flower",100,100
"5ac69733a3ba7a0001b4b75b",1,"Large vs small A","ORCHID","FLOWER","Study1","F","JOL_Large",2773,"95",1464,"flower",100,100
"5d470786da637a00014ba26f",1,"Large vs small A","ORCHID","FLOWER","Study1","F","JOL_Small",14054,"50",4069,"FLOWER",100,100
"5ed225b7b49d48185e9e56ae",1,"Large vs small A","ORCHID","FLOWER","Study1","F","JOL_Large",2015,"40",2430,"flower",100,100
"5ede2531cff15e047a4e356e",1,"Large vs small A","ORCHID","FLOWER","Study1","F","JOL_Large",8202,"32",5775,"apples",33.333333333333,0
"5efb2af24cee7804cac1249c",1,"Large vs small A","ORCHID","FLOWER","Study1","F","JOL_Small",4041,"20",3155,"",0,0
"5f0c33a605481902af533527",1,"Large vs small A","ORCHID","FLOWER","Study1","F","JOL_Small",21708,"25",4338,"Flower",100,100
"5f0c7dcc324f8b0ca60380f6",1,"Large vs small A","ORCHID","FLOWER","Study1","F","JOL_Small",5392,"100",3569,"Flower",100,100
"5f112fca114b6a31c9698a4b",1,"Large vs small A","ORCHID","FLOWER","Study1","F","JOL_Large",3057,"100",5244,"Flower",100,100
"59860c81d75d360001b0bd95",1,"Large vs small A","PARK","HUNGRY","Study1","U","JOL_Large",7946,"1",338,"",0,0
"5ac69733a3ba7a0001b4b75b",1,"Large vs small A","PARK","HUNGRY","Study1","U","JOL_Large",3757,"0",7791,"hungr",90.909090909091,100
"5d470786da637a00014ba26f",1,"Large vs small A","PARK","HUNGRY","Study1","U","JOL_Small",11518,"0",14577,"BENCH",18.181818181818,0
"5ed225b7b49d48185e9e56ae",1,"Large vs small A","PARK","HUNGRY","Study1","U","JOL_Large",2492,"45",1947,"wood",0,0
"5ede2531cff15e047a4e356e",1,"Large vs small A","PARK","HUNGRY","Study1","U","JOL_Large",4044,"2",20080,"brake",18.181818181818,0
"5efb2af24cee7804cac1249c",1,"Large vs small A","PARK","HUNGRY","Study1","U","JOL_Large",4746,"1",1699,"",0,0
"5f0c33a605481902af533527",1,"Large vs small A","PARK","HUNGRY","Study1","U","JOL_Large",7097,"6",7424,"Trees",18.181818181818,0
"5f0c7dcc324f8b0ca60380f6",1,"Large vs small A","PARK","HUNGRY","Study1","U","JOL_Small",4284,"0",5501,"Green",36.363636363636,0
"5f112fca114b6a31c9698a4b",1,"Large vs small A","PARK","HUNGRY","Study1","U","JOL_Small",3803,"10",1185,"",0,0
"59860c81d75d360001b0bd95",1,"Large vs small A","PAST","FUTURE","Study1","S","JOL_Small",3812,"100",8480,"begin",18.181818181818,0
"5ac69733a3ba7a0001b4b75b",1,"Large vs small A","PAST","FUTURE","Study1","S","JOL_Small",2892,"40",4111,"present",30.769230769231,0
"5d470786da637a00014ba26f",1,"Large vs small A","PAST","FUTURE","Study1","S","JOL_Small",8825,"65",10165,"PRESENT",30.769230769231,0
"5ed225b7b49d48185e9e56ae",1,"Large vs small A","PAST","FUTURE","Study1","S","JOL_Large",2108,"60",2087,"future",100,100
"5ede2531cff15e047a4e356e",1,"Large vs small A","PAST","FUTURE","Study1","S","JOL_Small",7636,"56",7687,"presant",30.769230769231,0
"5efb2af24cee7804cac1249c",1,"Large vs small A","PAST","FUTURE","Study1","S","JOL_Large",3204,"100",7246,"future",100,100
"5f0c33a605481902af533527",1,"Large vs small A","PAST","FUTURE","Study1","S","JOL_Large",5066,"99",4375,"Future",100,100
"5f0c7dcc324f8b0ca60380f6",1,"Large vs small A","PAST","FUTURE","Study1","S","JOL_Large",6091,"100",6334,"Future ",100,100
"5f112fca114b6a31c9698a4b",1,"Large vs small A","PAST","FUTURE","Study1","S","JOL_Large",3836,"100",5229,"Future",100,100
"59860c81d75d360001b0bd95",1,"Large vs small A","PAW","DOG","Study1","F","JOL_Large",5412,"100",3476,"dog",100,100
"5ac69733a3ba7a0001b4b75b",1,"Large vs small A","PAW","DOG","Study1","F","JOL_Small",5507,"20",1647,"dog",100,100
"5d470786da637a00014ba26f",1,"Large vs small A","PAW","DOG","Study1","F","JOL_Small",11378,"75",21555,"DOG",100,100
"5ed225b7b49d48185e9e56ae",1,"Large vs small A","PAW","DOG","Study1","F","JOL_Small",1661,"90",11939,"dog",100,100
"5ede2531cff15e047a4e356e",1,"Large vs small A","PAW","DOG","Study1","F","JOL_Large",22428,"31",7676,"wolf",28.571428571429,0
"5efb2af24cee7804cac1249c",1,"Large vs small A","PAW","DOG","Study1","F","JOL_Large",3269,"65",3200,"dog",100,100
"5f0c33a605481902af533527",1,"Large vs small A","PAW","DOG","Study1","F","JOL_Large",4917,"18",4606,"Dog",100,100
"5f0c7dcc324f8b0ca60380f6",1,"Large vs small A","PAW","DOG","Study1","F","JOL_Large",5184,"100",3032,"Dog",100,100
"5f112fca114b6a31c9698a4b",1,"Large vs small A","PAW","DOG","Study1","F","JOL_Large",3616,"10",2317,"",0,0
"59860c81d75d360001b0bd95",1,"Large vs small A","PLANE","PILOT","Study1","B","JOL_Large",4210,"100",4309,"pilot",100,100
"5ac69733a3ba7a0001b4b75b",1,"Large vs small A","PLANE","PILOT","Study1","B","JOL_Small",3056,"75",4307,"pilot",100,100
"5d470786da637a00014ba26f",1,"Large vs small A","PLANE","PILOT","Study1","B","JOL_Large",13820,"75",4327,"PILOT",100,100
"5ed225b7b49d48185e9e56ae",1,"Large vs small A","PLANE","PILOT","Study1","B","JOL_Small",2705,"78",1875,"land",22.222222222222,0
"5ede2531cff15e047a4e356e",1,"Large vs small A","PLANE","PILOT","Study1","B","JOL_Large",5249,"55",21607,"airport",50,0
"5efb2af24cee7804cac1249c",1,"Large vs small A","PLANE","PILOT","Study1","B","JOL_Small",4226,"75",5398,"flight",36.363636363636,0
"5f0c33a605481902af533527",1,"Large vs small A","PLANE","PILOT","Study1","B","JOL_Small",4919,"40",5361,"Pilot",100,100
"5f0c7dcc324f8b0ca60380f6",1,"Large vs small A","PLANE","PILOT","Study1","B","JOL_Large",56666,"100",4052,"Pilot",100,100
"5f112fca114b6a31c9698a4b",1,"Large vs small A","PLANE","PILOT","Study1","B","JOL_Large",3176,"100",4322,"Pilot",100,100
"59860c81d75d360001b0bd95",1,"Large vs small A","POP","SODA","Study1","S","JOL_Small",5392,"40",3739,"soda",100,100
"5ac69733a3ba7a0001b4b75b",1,"Large vs small A","POP","SODA","Study1","S","JOL_Large",2882,"20",1691,"soda",100,100
"5d470786da637a00014ba26f",1,"Large vs small A","POP","SODA","Study1","S","JOL_Small",8642,"35",18960,"SODA",100,100
"5ed225b7b49d48185e9e56ae",1,"Large vs small A","POP","SODA","Study1","S","JOL_Large",1737,"70",2630,"soda",100,100
"5ede2531cff15e047a4e356e",1,"Large vs small A","POP","SODA","Study1","S","JOL_Small",4835,"23",8555,"work",25,0
"5efb2af24cee7804cac1249c",1,"Large vs small A","POP","SODA","Study1","S","JOL_Large",6559,"60",7295,"corn",25,0
"5f0c33a605481902af533527",1,"Large vs small A","POP","SODA","Study1","S","JOL_Large",9444,"29",4148,"Soda",100,100
"5f0c7dcc324f8b0ca60380f6",1,"Large vs small A","POP","SODA","Study1","S","JOL_Small",3852,"100",8786,"Explode",36.363636363636,0
"5f112fca114b6a31c9698a4b",1,"Large vs small A","POP","SODA","Study1","S","JOL_Large",4780,"10",4002,"Soda",100,100
"59860c81d75d360001b0bd95",1,"Large vs small A","PUSHER","CLUTTER","Study1","U","JOL_Small",6303,"0",5298,"lifter",61.538461538462,0
"5ac69733a3ba7a0001b4b75b",1,"Large vs small A","PUSHER","CLUTTER","Study1","U","JOL_Small",3651,"0",2153,"",0,0
"5d470786da637a00014ba26f",1,"Large vs small A","PUSHER","CLUTTER","Study1","U","JOL_Large",9271,"0",20948,"POSITION",13.333333333333,0
"5ed225b7b49d48185e9e56ae",1,"Large vs small A","PUSHER","CLUTTER","Study1","U","JOL_Small",1061,"40",4439,"pull",18.181818181818,0
"5ede2531cff15e047a4e356e",1,"Large vs small A","PUSHER","CLUTTER","Study1","U","JOL_Large",3622,"0",9813,"button",46.153846153846,0
"5efb2af24cee7804cac1249c",1,"Large vs small A","PUSHER","CLUTTER","Study1","U","JOL_Large",3565,"0",1782,"",0,0
"5f0c33a605481902af533527",1,"Large vs small A","PUSHER","CLUTTER","Study1","U","JOL_Small",15398,"0",14426,"Puller",46.153846153846,0
"5f0c7dcc324f8b0ca60380f6",1,"Large vs small A","PUSHER","CLUTTER","Study1","U","JOL_Large",3384,"0",1888,"",0,0
"5f112fca114b6a31c9698a4b",1,"Large vs small A","PUSHER","CLUTTER","Study1","U","JOL_Small",6320,"10",3029,"",0,0
"59860c81d75d360001b0bd95",1,"Large vs small A","REVOLUTION","WAR","Study1","F","JOL_Large",7720,"50",4326,"war",100,100
"5ac69733a3ba7a0001b4b75b",1,"Large vs small A","REVOLUTION","WAR","Study1","F","JOL_Large",3645,"30",1666,"war",100,100
"5d470786da637a00014ba26f",1,"Large vs small A","REVOLUTION","WAR","Study1","F","JOL_Small",10697,"45",3336,"WAR",100,100
"5ed225b7b49d48185e9e56ae",1,"Large vs small A","REVOLUTION","WAR","Study1","F","JOL_Large",1841,"30",4124,"war",100,100
"5ede2531cff15e047a4e356e",1,"Large vs small A","REVOLUTION","WAR","Study1","F","JOL_Small",4621,"34",5759,"war",100,100
"5efb2af24cee7804cac1249c",1,"Large vs small A","REVOLUTION","WAR","Study1","F","JOL_Small",5409,"30",1246,"",0,0
"5f0c33a605481902af533527",1,"Large vs small A","REVOLUTION","WAR","Study1","F","JOL_Small",5230,"25",3866,"War",100,100
"5f0c7dcc324f8b0ca60380f6",1,"Large vs small A","REVOLUTION","WAR","Study1","F","JOL_Small",3596,"0",4867,"",0,0
"5f112fca114b6a31c9698a4b",1,"Large vs small A","REVOLUTION","WAR","Study1","F","JOL_Large",3002,"100",3469,"War",100,100
"59860c81d75d360001b0bd95",1,"Large vs small A","ROOT","PLANT","Study1","F","JOL_Large",4608,"90",9527,"plant",100,100
"5ac69733a3ba7a0001b4b75b",1,"Large vs small A","ROOT","PLANT","Study1","F","JOL_Small",1558,"40",1663,"plant",100,100
"5d470786da637a00014ba26f",1,"Large vs small A","ROOT","PLANT","Study1","F","JOL_Small",9866,"20",5722,"FLOWER",18.181818181818,0
"5ed225b7b49d48185e9e56ae",1,"Large vs small A","ROOT","PLANT","Study1","F","JOL_Large",1958,"34",4548,"flower",18.181818181818,0
"5ede2531cff15e047a4e356e",1,"Large vs small A","ROOT","PLANT","Study1","F","JOL_Small",6864,"6",7994,"vegetable",14.285714285714,0
"5efb2af24cee7804cac1249c",1,"Large vs small A","ROOT","PLANT","Study1","F","JOL_Large",2979,"30",3033,"leaf",44.444444444444,0
"5f0c33a605481902af533527",1,"Large vs small A","ROOT","PLANT","Study1","F","JOL_Small",5824,"74",5008,"Tree",22.222222222222,0
"5f0c7dcc324f8b0ca60380f6",1,"Large vs small A","ROOT","PLANT","Study1","F","JOL_Small",4216,"0",6548,"Plant",100,100
"5f112fca114b6a31c9698a4b",1,"Large vs small A","ROOT","PLANT","Study1","F","JOL_Large",2963,"100",5156,"Plant",100,100
"59860c81d75d360001b0bd95",1,"Large vs small A","SENTENCE","WORD","Study1","B","JOL_Large",4388,"90",4365,"word",100,100
"5ac69733a3ba7a0001b4b75b",1,"Large vs small A","SENTENCE","WORD","Study1","B","JOL_Small",1643,"30",2024,"",0,0
"5d470786da637a00014ba26f",1,"Large vs small A","SENTENCE","WORD","Study1","B","JOL_Large",10884,"30",15674,"END",28.571428571429,0
"5ed225b7b49d48185e9e56ae",1,"Large vs small A","SENTENCE","WORD","Study1","B","JOL_Small",2420,"60",1442,"word",100,100
"5ede2531cff15e047a4e356e",1,"Large vs small A","SENTENCE","WORD","Study1","B","JOL_Small",9129,NA,5172,"",0,0
"5efb2af24cee7804cac1249c",1,"Large vs small A","SENTENCE","WORD","Study1","B","JOL_Small",2748,"85",2892,"word",100,100
"5f0c33a605481902af533527",1,"Large vs small A","SENTENCE","WORD","Study1","B","JOL_Small",5473,"60",7892,"Word",100,100
"5f0c7dcc324f8b0ca60380f6",1,"Large vs small A","SENTENCE","WORD","Study1","B","JOL_Large",18608,"100",5435,"Word",100,100
"5f112fca114b6a31c9698a4b",1,"Large vs small A","SENTENCE","WORD","Study1","B","JOL_Small",3453,"100",5248,"Word",100,100
"59860c81d75d360001b0bd95",1,"Large vs small A","SHOE","FOOT","Study1","S","JOL_Small",3093,"100",6264,"foot",100,100
"5ac69733a3ba7a0001b4b75b",1,"Large vs small A","SHOE","FOOT","Study1","S","JOL_Small",2193,"80",2593,"foot",100,100
"5d470786da637a00014ba26f",1,"Large vs small A","SHOE","FOOT","Study1","S","JOL_Large",15343,"65",12552,"FOOT",100,100
"5ed225b7b49d48185e9e56ae",1,"Large vs small A","SHOE","FOOT","Study1","S","JOL_Large",138690,"88",2177,"foot",100,100
"5ede2531cff15e047a4e356e",1,"Large vs small A","SHOE","FOOT","Study1","S","JOL_Small",4515,"56",6795,"shop",25,0
"5efb2af24cee7804cac1249c",1,"Large vs small A","SHOE","FOOT","Study1","S","JOL_Small",3368,"60",7700,"size",0,0
"5f0c33a605481902af533527",1,"Large vs small A","SHOE","FOOT","Study1","S","JOL_Large",5048,"80",5619,"Lace",0,0
"5f0c7dcc324f8b0ca60380f6",1,"Large vs small A","SHOE","FOOT","Study1","S","JOL_Small",4899,"100",4460,"Foot",100,100
"5f112fca114b6a31c9698a4b",1,"Large vs small A","SHOE","FOOT","Study1","S","JOL_Small",3228,"100",4055,"Foot",100,100
"59860c81d75d360001b0bd95",1,"Large vs small A","SLEEP","DROWSY","Study1","B","JOL_Small",4983,"80",3992,"drowsy",100,100
"5ac69733a3ba7a0001b4b75b",1,"Large vs small A","SLEEP","DROWSY","Study1","B","JOL_Large",2346,"30",2126,"",0,0
"5d470786da637a00014ba26f",1,"Large vs small A","SLEEP","DROWSY","Study1","B","JOL_Small",13061,"20",15414,"TALK",0,0
"5ed225b7b49d48185e9e56ae",1,"Large vs small A","SLEEP","DROWSY","Study1","B","JOL_Large",1538,"70",4212,"night",0,0
"5ede2531cff15e047a4e356e",1,"Large vs small A","SLEEP","DROWSY","Study1","B","JOL_Small",7478,"19",22827,"night",0,0
"5efb2af24cee7804cac1249c",1,"Large vs small A","SLEEP","DROWSY","Study1","B","JOL_Small",6519,"70",16334,"work",20,0
"5f0c33a605481902af533527",1,"Large vs small A","SLEEP","DROWSY","Study1","B","JOL_Large",4751,"5",10989,"Awake",18.181818181818,0
"5f0c7dcc324f8b0ca60380f6",1,"Large vs small A","SLEEP","DROWSY","Study1","B","JOL_Large",4053,"100",3512,"Tired",18.181818181818,0
"5f112fca114b6a31c9698a4b",1,"Large vs small A","SLEEP","DROWSY","Study1","B","JOL_Small",3343,"100",6397,"Awake",18.181818181818,0
"59860c81d75d360001b0bd95",1,"Large vs small A","SMELL","STENCH","Study1","B","JOL_Large",5137,"80",3081,"stench",100,100
"5ac69733a3ba7a0001b4b75b",1,"Large vs small A","SMELL","STENCH","Study1","B","JOL_Large",6418,"60",3101,"stench",100,100
"5d470786da637a00014ba26f",1,"Large vs small A","SMELL","STENCH","Study1","B","JOL_Small",13590,"50",9274,"STENCH",100,100
"5ed225b7b49d48185e9e56ae",1,"Large vs small A","SMELL","STENCH","Study1","B","JOL_Large",2024,"60",5112,"bad",0,0
"5ede2531cff15e047a4e356e",1,"Large vs small A","SMELL","STENCH","Study1","B","JOL_Large",9672,"40",15427,"whiff",18.181818181818,0
"5efb2af24cee7804cac1249c",1,"Large vs small A","SMELL","STENCH","Study1","B","JOL_Small",4052,"30",4379,"stink",54.545454545455,0
"5f0c33a605481902af533527",1,"Large vs small A","SMELL","STENCH","Study1","B","JOL_Large",6047,"20",11365,"Stink",54.545454545455,0
"5f0c7dcc324f8b0ca60380f6",1,"Large vs small A","SMELL","STENCH","Study1","B","JOL_Small",7635,"100",11881,"Odour",0,0
"5f112fca114b6a31c9698a4b",1,"Large vs small A","SMELL","STENCH","Study1","B","JOL_Large",3579,"100",4944,"Sting",54.545454545455,0
"59860c81d75d360001b0bd95",1,"Large vs small A","SOON","BELT","Study1","U","JOL_Large",7696,"3",6819,"",0,0
"5ac69733a3ba7a0001b4b75b",1,"Large vs small A","SOON","BELT","Study1","U","JOL_Large",2163,"0",3054,"",0,0
"5d470786da637a00014ba26f",1,"Large vs small A","SOON","BELT","Study1","U","JOL_Small",10421,"0",14494,"END",28.571428571429,0
"5ed225b7b49d48185e9e56ae",1,"Large vs small A","SOON","BELT","Study1","U","JOL_Large",2008,"30",1691,"before",40,0
"5ede2531cff15e047a4e356e",1,"Large vs small A","SOON","BELT","Study1","U","JOL_Small",3772,"5",8719,"after",22.222222222222,0
"5efb2af24cee7804cac1249c",1,"Large vs small A","SOON","BELT","Study1","U","JOL_Large",5549,"1",4801,"after",22.222222222222,0
"5f0c33a605481902af533527",1,"Large vs small A","SOON","BELT","Study1","U","JOL_Large",4076,"0",9295,"After",22.222222222222,0
"5f0c7dcc324f8b0ca60380f6",1,"Large vs small A","SOON","BELT","Study1","U","JOL_Large",3701,"0",1839,"",0,0
"5f112fca114b6a31c9698a4b",1,"Large vs small A","SOON","BELT","Study1","U","JOL_Small",3680,"10",6246,"Later",44.444444444444,0
"59860c81d75d360001b0bd95",1,"Large vs small A","STRONG","ACCIDENT","Study1","U","JOL_Small",8696,"10",11133,"heavy",15.384615384615,0
"5ac69733a3ba7a0001b4b75b",1,"Large vs small A","STRONG","ACCIDENT","Study1","U","JOL_Small",5080,"20",4831,"",0,0
"5d470786da637a00014ba26f",1,"Large vs small A","STRONG","ACCIDENT","Study1","U","JOL_Large",15289,"25",21923,"BELT",33.333333333333,0
"5ed225b7b49d48185e9e56ae",1,"Large vs small A","STRONG","ACCIDENT","Study1","U","JOL_Small",1918,"22",2043,"weak",16.666666666667,0
"5ede2531cff15e047a4e356e",1,"Large vs small A","STRONG","ACCIDENT","Study1","U","JOL_Small",3052,NA,5717,"hard",33.333333333333,0
"5efb2af24cee7804cac1249c",1,"Large vs small A","STRONG","ACCIDENT","Study1","U","JOL_Small",5989,"20",3835,"weak",16.666666666667,0
"5f0c33a605481902af533527",1,"Large vs small A","STRONG","ACCIDENT","Study1","U","JOL_Small",5206,"5",5338,"Healthy",26.666666666667,0
"5f0c7dcc324f8b0ca60380f6",1,"Large vs small A","STRONG","ACCIDENT","Study1","U","JOL_Large",3847,"0",5031,"Hard",33.333333333333,0
"5f112fca114b6a31c9698a4b",1,"Large vs small A","STRONG","ACCIDENT","Study1","U","JOL_Large",7843,"10",8358,"",0,0
"59860c81d75d360001b0bd95",1,"Large vs small A","SUGAR","RIDDLE","Study1","U","JOL_Large",6462,"0",9978,"sweet",18.181818181818,0
"5ac69733a3ba7a0001b4b75b",1,"Large vs small A","SUGAR","RIDDLE","Study1","U","JOL_Small",6414,"0",2514,"",0,0
"5d470786da637a00014ba26f",1,"Large vs small A","SUGAR","RIDDLE","Study1","U","JOL_Small",9255,"0",11712,"SPOON",0,0
"5ed225b7b49d48185e9e56ae",1,"Large vs small A","SUGAR","RIDDLE","Study1","U","JOL_Large",2048,"21",3028,"sweet",18.181818181818,0
"5ede2531cff15e047a4e356e",1,"Large vs small A","SUGAR","RIDDLE","Study1","U","JOL_Large",5825,"34",8944,"sweet",18.181818181818,0
"5efb2af24cee7804cac1249c",1,"Large vs small A","SUGAR","RIDDLE","Study1","U","JOL_Large",2348,"0",3256,"",0,0
"5f0c33a605481902af533527",1,"Large vs small A","SUGAR","RIDDLE","Study1","U","JOL_Large",3552,"0",3709,"Salt",20,0
"5f0c7dcc324f8b0ca60380f6",1,"Large vs small A","SUGAR","RIDDLE","Study1","U","JOL_Large",3133,"0",1875,"",0,0
"5f112fca114b6a31c9698a4b",1,"Large vs small A","SUGAR","RIDDLE","Study1","U","JOL_Small",3950,"40",5584,"",0,0
"59860c81d75d360001b0bd95",1,"Large vs small A","SWAN","BIRD","Study1","F","JOL_Large",7204,"100",2801,"bird",100,100
"5ac69733a3ba7a0001b4b75b",1,"Large vs small A","SWAN","BIRD","Study1","F","JOL_Small",1947,"100",2660,"bird",100,100
"5d470786da637a00014ba26f",1,"Large vs small A","SWAN","BIRD","Study1","F","JOL_Small",15213,"35",5545,"BIRD",100,100
"5ed225b7b49d48185e9e56ae",1,"Large vs small A","SWAN","BIRD","Study1","F","JOL_Small",2122,"40",14346,"geese",0,0
"5ede2531cff15e047a4e356e",1,"Large vs small A","SWAN","BIRD","Study1","F","JOL_Large",4767,"69",4798,"bird",100,100
"5efb2af24cee7804cac1249c",1,"Large vs small A","SWAN","BIRD","Study1","F","JOL_Small",3296,"70",9228,"bird",100,100
"5f0c33a605481902af533527",1,"Large vs small A","SWAN","BIRD","Study1","F","JOL_Large",4306,"10",5169,"Bird",100,100
"5f0c7dcc324f8b0ca60380f6",1,"Large vs small A","SWAN","BIRD","Study1","F","JOL_Large",3913,"100",38498,"Lake",0,0
"5f112fca114b6a31c9698a4b",1,"Large vs small A","SWAN","BIRD","Study1","F","JOL_Large",3668,"10",3937,"Lake",0,0
"59860c81d75d360001b0bd95",1,"Large vs small A","TAKE","SEIZE","Study1","B","JOL_Large",7385,"75",8476,"let",25,0
"5ac69733a3ba7a0001b4b75b",1,"Large vs small A","TAKE","SEIZE","Study1","B","JOL_Small",2289,"30",3605,"",0,0
"5d470786da637a00014ba26f",1,"Large vs small A","TAKE","SEIZE","Study1","B","JOL_Small",11794,"35",16319,"BACK",0,0
"5ed225b7b49d48185e9e56ae",1,"Large vs small A","TAKE","SEIZE","Study1","B","JOL_Small",1905,"33",2061,"leave",40,0
"5ede2531cff15e047a4e356e",1,"Large vs small A","TAKE","SEIZE","Study1","B","JOL_Small",11074,"32",5503,"away",0,0
"5efb2af24cee7804cac1249c",1,"Large vs small A","TAKE","SEIZE","Study1","B","JOL_Large",4237,"35",2185,"",0,0
"5f0c33a605481902af533527",1,"Large vs small A","TAKE","SEIZE","Study1","B","JOL_Small",5877,"1",3531,"Give",44.444444444444,0
"5f0c7dcc324f8b0ca60380f6",1,"Large vs small A","TAKE","SEIZE","Study1","B","JOL_Large",9244,"100",5591,"Steal",40,0
"5f112fca114b6a31c9698a4b",1,"Large vs small A","TAKE","SEIZE","Study1","B","JOL_Large",4144,"100",3341,"",0,0
"59860c81d75d360001b0bd95",1,"Large vs small A","TRIAL","JURY","Study1","S","JOL_Large",3335,"100",5946,"test",0,0
"5ac69733a3ba7a0001b4b75b",1,"Large vs small A","TRIAL","JURY","Study1","S","JOL_Large",2112,"90",1745,"jury",100,100
"5d470786da637a00014ba26f",1,"Large vs small A","TRIAL","JURY","Study1","S","JOL_Small",15614,"65",4663,"JURY",100,100
"5ed225b7b49d48185e9e56ae",1,"Large vs small A","TRIAL","JURY","Study1","S","JOL_Large",1778,"90",2501,"jury",100,100
"5ede2531cff15e047a4e356e",1,"Large vs small A","TRIAL","JURY","Study1","S","JOL_Small",8127,"45",4509,"jury",100,100
"5efb2af24cee7804cac1249c",1,"Large vs small A","TRIAL","JURY","Study1","S","JOL_Small",4253,"60",4361,"jury",100,100
"5f0c33a605481902af533527",1,"Large vs small A","TRIAL","JURY","Study1","S","JOL_Large",4665,"20",7279,"Test",0,0
"5f0c7dcc324f8b0ca60380f6",1,"Large vs small A","TRIAL","JURY","Study1","S","JOL_Large",18037,"100",6381,"Practice ",16.666666666667,0
"5f112fca114b6a31c9698a4b",1,"Large vs small A","TRIAL","JURY","Study1","S","JOL_Small",2978,"100",3612,"Jury",100,100
"59860c81d75d360001b0bd95",1,"Large vs small A","TUNA","FISH","Study1","F","JOL_Small",4055,"100",2624,"fish",100,100
"5ac69733a3ba7a0001b4b75b",1,"Large vs small A","TUNA","FISH","Study1","F","JOL_Small",2213,"80",1498,"fish",100,100
"5d470786da637a00014ba26f",1,"Large vs small A","TUNA","FISH","Study1","F","JOL_Large",11960,"75",16862,"FISH",100,100
"5ed225b7b49d48185e9e56ae",1,"Large vs small A","TUNA","FISH","Study1","F","JOL_Small",1569,"0",1609,"fish",100,100
"5ede2531cff15e047a4e356e",1,"Large vs small A","TUNA","FISH","Study1","F","JOL_Large",7087,"70",5520,"fish",100,100
"5efb2af24cee7804cac1249c",1,"Large vs small A","TUNA","FISH","Study1","F","JOL_Small",4494,"30",3067,"fish",100,100
"5f0c33a605481902af533527",1,"Large vs small A","TUNA","FISH","Study1","F","JOL_Small",5418,"45",3232,"Fish",100,100
"5f0c7dcc324f8b0ca60380f6",1,"Large vs small A","TUNA","FISH","Study1","F","JOL_Small",4146,"100",3329,"Fish",100,100
"5f112fca114b6a31c9698a4b",1,"Large vs small A","TUNA","FISH","Study1","F","JOL_Small",4120,"100",4129,"Fish",100,100
"59860c81d75d360001b0bd95",1,"Large vs small A","VALLEY","ADD","Study1","U","JOL_Large",6391,"1",5072,"",0,0
"5ac69733a3ba7a0001b4b75b",1,"Large vs small A","VALLEY","ADD","Study1","U","JOL_Large",2324,"0",1122,"",0,0
"5d470786da637a00014ba26f",1,"Large vs small A","VALLEY","ADD","Study1","U","JOL_Large",12556,"0",106879,"GREEN",0,0
"5ed225b7b49d48185e9e56ae",1,"Large vs small A","VALLEY","ADD","Study1","U","JOL_Large",1794,"20",3408,"road",57.142857142857,0
"5ede2531cff15e047a4e356e",1,"Large vs small A","VALLEY","ADD","Study1","U","JOL_Small",6810,"20",9810,"river",0,0
"5efb2af24cee7804cac1249c",1,"Large vs small A","VALLEY","ADD","Study1","U","JOL_Small",6181,"15",4790,"river",0,0
"5f0c33a605481902af533527",1,"Large vs small A","VALLEY","ADD","Study1","U","JOL_Large",3887,"1",6742,"Mountain ",18.181818181818,0
"5f0c7dcc324f8b0ca60380f6",1,"Large vs small A","VALLEY","ADD","Study1","U","JOL_Large",3012,"0",3696,"",0,0
"5f112fca114b6a31c9698a4b",1,"Large vs small A","VALLEY","ADD","Study1","U","JOL_Small",4969,"10",3894,"",0,0
"59860c81d75d360001b0bd95",1,"Large vs small A","WAGE","MONEY","Study1","F","JOL_Large",4926,"100",9632,"work",22.222222222222,0
"5ac69733a3ba7a0001b4b75b",1,"Large vs small A","WAGE","MONEY","Study1","F","JOL_Large",2148,"20",1949,"work",22.222222222222,0
"5d470786da637a00014ba26f",1,"Large vs small A","WAGE","MONEY","Study1","F","JOL_Large",8844,"50",20450,"MONEY",100,100
"5ed225b7b49d48185e9e56ae",1,"Large vs small A","WAGE","MONEY","Study1","F","JOL_Small",6669,"80",1616,"money",100,100
"5ede2531cff15e047a4e356e",1,"Large vs small A","WAGE","MONEY","Study1","F","JOL_Small",5935,"46",7465,"money",100,100
"5efb2af24cee7804cac1249c",1,"Large vs small A","WAGE","MONEY","Study1","F","JOL_Large",4009,"95",2976,"job",25,0
"5f0c33a605481902af533527",1,"Large vs small A","WAGE","MONEY","Study1","F","JOL_Small",17231,"14",3550,"Money",100,100
"5f0c7dcc324f8b0ca60380f6",1,"Large vs small A","WAGE","MONEY","Study1","F","JOL_Small",5454,"100",2239,"",0,0
"5f112fca114b6a31c9698a4b",1,"Large vs small A","WAGE","MONEY","Study1","F","JOL_Large",2907,"100",4379,"Money ",100,100
"59860c81d75d360001b0bd95",1,"Large vs small A","WAY","OUT","Study1","F","JOL_Small",6607,"80",7004,"back",0,0
"5ac69733a3ba7a0001b4b75b",1,"Large vs small A","WAY","OUT","Study1","F","JOL_Large",3266,"70",3283,"",0,0
"5d470786da637a00014ba26f",1,"Large vs small A","WAY","OUT","Study1","F","JOL_Large",7472,"70",4376,"OUT",100,100
"5ed225b7b49d48185e9e56ae",1,"Large vs small A","WAY","OUT","Study1","F","JOL_Small",2335,"55",2034,"go",40,0
"5ede2531cff15e047a4e356e",1,"Large vs small A","WAY","OUT","Study1","F","JOL_Large",6993,NA,4336,"out",100,100
"5efb2af24cee7804cac1249c",1,"Large vs small A","WAY","OUT","Study1","F","JOL_Small",6242,"100",4617,"out",100,100
"5f0c33a605481902af533527",1,"Large vs small A","WAY","OUT","Study1","F","JOL_Small",6502,"55",3856,"Out",100,100
"5f0c7dcc324f8b0ca60380f6",1,"Large vs small A","WAY","OUT","Study1","F","JOL_Large",4362,"0",1848,"",0,0
"5f112fca114b6a31c9698a4b",1,"Large vs small A","WAY","OUT","Study1","F","JOL_Large",5548,"30",2456,"",0,0
"59860c81d75d360001b0bd95",1,"Large vs small A","WINE","CHEESE","Study1","S","JOL_Large",4438,"100",3367,"cheese",100,100
"5ac69733a3ba7a0001b4b75b",1,"Large vs small A","WINE","CHEESE","Study1","S","JOL_Small",1664,"40",4400,"cheese",100,100
"5d470786da637a00014ba26f",1,"Large vs small A","WINE","CHEESE","Study1","S","JOL_Large",11125,"65",3846,"CHEESE",100,100
"5ed225b7b49d48185e9e56ae",1,"Large vs small A","WINE","CHEESE","Study1","S","JOL_Small",2530,"60",2071,"cheese",100,100
"5ede2531cff15e047a4e356e",1,"Large vs small A","WINE","CHEESE","Study1","S","JOL_Large",4714,"67",6461,"drink",0,0
"5efb2af24cee7804cac1249c",1,"Large vs small A","WINE","CHEESE","Study1","S","JOL_Small",4741,"40",2931,"cellar",33.333333333333,0
"5f0c33a605481902af533527",1,"Large vs small A","WINE","CHEESE","Study1","S","JOL_Large",5266,"10",8305,"Alcohol",30.769230769231,0
"5f0c7dcc324f8b0ca60380f6",1,"Large vs small A","WINE","CHEESE","Study1","S","JOL_Large",11256,"100",5661,"Drink",0,0
"5f112fca114b6a31c9698a4b",1,"Large vs small A","WINE","CHEESE","Study1","S","JOL_Large",3461,"10",4983,"",0,0
"59860c81d75d360001b0bd95",1,"Large vs small A","WORK","CHORE","Study1","B","JOL_Small",7185,"75",3749,"place",40,0
"5ac69733a3ba7a0001b4b75b",1,"Large vs small A","WORK","CHORE","Study1","B","JOL_Small",3250,"20",3333,"",0,0
"5d470786da637a00014ba26f",1,"Large vs small A","WORK","CHORE","Study1","B","JOL_Large",10904,"40",20176,"OUT",25,0
"5ed225b7b49d48185e9e56ae",1,"Large vs small A","WORK","CHORE","Study1","B","JOL_Large",1081,"60",6120,"time",22.222222222222,0
"5ede2531cff15e047a4e356e",1,"Large vs small A","WORK","CHORE","Study1","B","JOL_Large",11741,"66",4511,"out",25,0
"5efb2af24cee7804cac1249c",1,"Large vs small A","WORK","CHORE","Study1","B","JOL_Large",2790,"40",2439,"job",25,0
"5f0c33a605481902af533527",1,"Large vs small A","WORK","CHORE","Study1","B","JOL_Large",4014,"10",11796,"Money",40,0
"5f0c7dcc324f8b0ca60380f6",1,"Large vs small A","WORK","CHORE","Study1","B","JOL_Large",5767,"0",4881,"Chore",100,100
"5f112fca114b6a31c9698a4b",1,"Large vs small A","WORK","CHORE","Study1","B","JOL_Large",4578,"100",4142,"",0,0
"5789f5c6fa4465000113ecb2",2,"Large vs small B","ALLOW","TUCK","Study1","U","JOL_Large",5229,"14",3661,"BEGET",22.222222222222,0
"58c1886c3977190001f53ec8",2,"Large vs small B","ALLOW","TUCK","Study1","U","JOL_Large",1935,"0",3432,"let",28.571428571429,0
"5b82e33f184f45000155f0ba",2,"Large vs small B","ALLOW","TUCK","Study1","U","JOL_Small",2562,"0",2588,"Let",28.571428571429,0
"5bd60bf95f437a0001a2c6c6",2,"Large vs small B","ALLOW","TUCK","Study1","U","JOL_Large",3311,"40",30071,"give",0,0
"5be1c6db93cab6000123baf9",2,"Large vs small B","ALLOW","TUCK","Study1","U","JOL_Large",3572,"15",5894,"let",28.571428571429,0
"5be8bde6598a35000108e15f",2,"Large vs small B","ALLOW","TUCK","Study1","U","JOL_Large",7396,"40",11620,"",0,0
"5c2b9ce5b337310001996c05",2,"Large vs small B","ALLOW","TUCK","Study1","U","JOL_Small",1934,"0",1943,"",0,0
"5c3a7c75a882e900016ba262",2,"Large vs small B","ALLOW","TUCK","Study1","U","JOL_Large",5060,"69",5404,"seat",25,0
"5db0cfa9c2978c001923d74d",2,"Large vs small B","ALLOW","TUCK","Study1","U","JOL_Large",1780,"30",2879,"truck",88.888888888889,100
"5dbb1f4a55b86212a3d2ff9f",2,"Large vs small B","ALLOW","TUCK","Study1","U","JOL_Large",2155,"1",3538,"PERMIT",20,0
"5f105e08aeef1d2db59c00ef@email.prolific.co",2,"Large vs small B","ALLOW","TUCK","Study1","U","JOL_Large",16358,"60",25861,"Give in",0,0
"5789f5c6fa4465000113ecb2",2,"Large vs small B","ARCHITECTURE","DESIGN","Study1","S","JOL_Small",4690,"50",4086,"DESIGN",100,100
"58c1886c3977190001f53ec8",2,"Large vs small B","ARCHITECTURE","DESIGN","Study1","S","JOL_Large",3942,"70",13756,"design",100,100
"5b82e33f184f45000155f0ba",2,"Large vs small B","ARCHITECTURE","DESIGN","Study1","S","JOL_Small",3240,"80",2358,"design",100,100
"5bd60bf95f437a0001a2c6c6",2,"Large vs small B","ARCHITECTURE","DESIGN","Study1","S","JOL_Small",4083,"50",4703,"design",100,100
"5be1c6db93cab6000123baf9",2,"Large vs small B","ARCHITECTURE","DESIGN","Study1","S","JOL_Large",4755,"20",3259,"design",100,100
"5be8bde6598a35000108e15f",2,"Large vs small B","ARCHITECTURE","DESIGN","Study1","S","JOL_Small",4189,"50",2985,"DESIGN",100,100
"5c2b9ce5b337310001996c05",2,"Large vs small B","ARCHITECTURE","DESIGN","Study1","S","JOL_Small",1725,"20",2668,"design",100,100
"5c3a7c75a882e900016ba262",2,"Large vs small B","ARCHITECTURE","DESIGN","Study1","S","JOL_Large",6136,"97",3274,"design ",100,100
"5db0cfa9c2978c001923d74d",2,"Large vs small B","ARCHITECTURE","DESIGN","Study1","S","JOL_Small",2366,"70",3338,"design",100,100
"5dbb1f4a55b86212a3d2ff9f",2,"Large vs small B","ARCHITECTURE","DESIGN","Study1","S","JOL_Large",3270,"65",3425,"DESIGN",100,100
"5f105e08aeef1d2db59c00ef@email.prolific.co",2,"Large vs small B","ARCHITECTURE","DESIGN","Study1","S","JOL_Large",6209,"1",21539,"Property",14.285714285714,0
"5789f5c6fa4465000113ecb2",2,"Large vs small B","ART","LION","Study1","U","JOL_Large",144884,"11",10372,"PLACE",22.222222222222,0
"58c1886c3977190001f53ec8",2,"Large vs small B","ART","LION","Study1","U","JOL_Large",3011,"0",23884,"",0,0
"5b82e33f184f45000155f0ba",2,"Large vs small B","ART","LION","Study1","U","JOL_Large",1674,"0",1309,"",0,0
"5bd60bf95f437a0001a2c6c6",2,"Large vs small B","ART","LION","Study1","U","JOL_Large",2817,"30",3433,"",0,0
"5be1c6db93cab6000123baf9",2,"Large vs small B","ART","LION","Study1","U","JOL_Large",2669,"10",3433,"class",22.222222222222,0
"5be8bde6598a35000108e15f",2,"Large vs small B","ART","LION","Study1","U","JOL_Large",4165,"25",6835,"PORTRAIT",16.666666666667,0
"5c2b9ce5b337310001996c05",2,"Large vs small B","ART","LION","Study1","U","JOL_Small",2619,"15",2484,"lion",100,100
"5c3a7c75a882e900016ba262",2,"Large vs small B","ART","LION","Study1","U","JOL_Large",3755,"50",2606,"lion",100,100
"5db0cfa9c2978c001923d74d",2,"Large vs small B","ART","LION","Study1","U","JOL_Small",2888,"50",3320,"dealer",20,0
"5dbb1f4a55b86212a3d2ff9f",2,"Large vs small B","ART","LION","Study1","U","JOL_Small",5043,"1",2658,"",0,0
"5f105e08aeef1d2db59c00ef@email.prolific.co",2,"Large vs small B","ART","LION","Study1","U","JOL_Small",7225,"10",26964,"GAllary",18.181818181818,0
"5789f5c6fa4465000113ecb2",2,"Large vs small B","ARTERY","BRONZE","Study1","U","JOL_Small",2634,"0",5781,"DRIVER",33.333333333333,0
"58c1886c3977190001f53ec8",2,"Large vs small B","ARTERY","BRONZE","Study1","U","JOL_Small",2048,"0",3905,"",0,0
"5b82e33f184f45000155f0ba",2,"Large vs small B","ARTERY","BRONZE","Study1","U","JOL_Large",1903,"0",2013,"blood",36.363636363636,0
"5bd60bf95f437a0001a2c6c6",2,"Large vs small B","ARTERY","BRONZE","Study1","U","JOL_Large",19995,"40",2498,"",0,0
"5be1c6db93cab6000123baf9",2,"Large vs small B","ARTERY","BRONZE","Study1","U","JOL_Large",2331,"5",1902,"",0,0
"5be8bde6598a35000108e15f",2,"Large vs small B","ARTERY","BRONZE","Study1","U","JOL_Small",3769,"35",18324,"",0,0
"5c2b9ce5b337310001996c05",2,"Large vs small B","ARTERY","BRONZE","Study1","U","JOL_Large",2563,"5",2271,"",0,0
"5c3a7c75a882e900016ba262",2,"Large vs small B","ARTERY","BRONZE","Study1","U","JOL_Small",3776,"1",4227,"bone",80,0
"5db0cfa9c2978c001923d74d",2,"Large vs small B","ARTERY","BRONZE","Study1","U","JOL_Small",3771,"50",2753,"vein",20,0
"5dbb1f4a55b86212a3d2ff9f",2,"Large vs small B","ARTERY","BRONZE","Study1","U","JOL_Small",11412,"1",4382,"BRONZE",100,100
"5f105e08aeef1d2db59c00ef@email.prolific.co",2,"Large vs small B","ARTERY","BRONZE","Study1","U","JOL_Large",6623,"5",19534,"Gallery",15.384615384615,0
"5789f5c6fa4465000113ecb2",2,"Large vs small B","BABY","CHILD","Study1","S","JOL_Large",3744,"70",7668,"CHILD",100,100
"58c1886c3977190001f53ec8",2,"Large vs small B","BABY","CHILD","Study1","S","JOL_Small",2459,"100",2497,"child",100,100
"5b82e33f184f45000155f0ba",2,"Large vs small B","BABY","CHILD","Study1","S","JOL_Small",2723,"90",1869,"infant",18.181818181818,0
"5bd60bf95f437a0001a2c6c6",2,"Large vs small B","BABY","CHILD","Study1","S","JOL_Small",3039,"50",4175,"child",100,100
"5be1c6db93cab6000123baf9",2,"Large vs small B","BABY","CHILD","Study1","S","JOL_Small",3333,"50",3178,"food",22.222222222222,0
"5be8bde6598a35000108e15f",2,"Large vs small B","BABY","CHILD","Study1","S","JOL_Small",4557,"90",2009,"CHILD",100,100
"5c2b9ce5b337310001996c05",2,"Large vs small B","BABY","CHILD","Study1","S","JOL_Large",2696,"70",5103,"mother",18.181818181818,0
"5c3a7c75a882e900016ba262",2,"Large vs small B","BABY","CHILD","Study1","S","JOL_Small",2830,"99",6126,"shower",18.181818181818,0
"5db0cfa9c2978c001923d74d",2,"Large vs small B","BABY","CHILD","Study1","S","JOL_Large",2174,"40",8514,"cry",25,0
"5dbb1f4a55b86212a3d2ff9f",2,"Large vs small B","BABY","CHILD","Study1","S","JOL_Large",12058,"60",3038,"CHILD",100,100
"5f105e08aeef1d2db59c00ef@email.prolific.co",2,"Large vs small B","BABY","CHILD","Study1","S","JOL_Large",7804,"70",6646,"Shower",18.181818181818,0
"5789f5c6fa4465000113ecb2",2,"Large vs small B","BALL","RACKET","Study1","B","JOL_Small",6943,"31",2954,"CUE",44.444444444444,0
"58c1886c3977190001f53ec8",2,"Large vs small B","BALL","RACKET","Study1","B","JOL_Large",4342,"10",1859,"",0,0
"5b82e33f184f45000155f0ba",2,"Large vs small B","BALL","RACKET","Study1","B","JOL_Small",3953,"58",1650,"",0,0
"5bd60bf95f437a0001a2c6c6",2,"Large vs small B","BALL","RACKET","Study1","B","JOL_Small",3383,"40",6405,"",0,0
"5be1c6db93cab6000123baf9",2,"Large vs small B","BALL","RACKET","Study1","B","JOL_Small",4819,"30",4301,"park",40,0
"5be8bde6598a35000108e15f",2,"Large vs small B","BALL","RACKET","Study1","B","JOL_Small",5368,"40",5809,"THROW",18.181818181818,0
"5c2b9ce5b337310001996c05",2,"Large vs small B","BALL","RACKET","Study1","B","JOL_Small",2779,"70",1828,"dog",0,0
"5c3a7c75a882e900016ba262",2,"Large vs small B","BALL","RACKET","Study1","B","JOL_Small",3571,"80",9359,"catcher",30.769230769231,0
"5db0cfa9c2978c001923d74d",2,"Large vs small B","BALL","RACKET","Study1","B","JOL_Large",1917,"40",3718,"glove",18.181818181818,0
"5dbb1f4a55b86212a3d2ff9f",2,"Large vs small B","BALL","RACKET","Study1","B","JOL_Large",8386,"5",3293,"PARK",40,0
"5f105e08aeef1d2db59c00ef@email.prolific.co",2,"Large vs small B","BALL","RACKET","Study1","B","JOL_Small",6560,"10",6308,"Basket",66.666666666667,0
"5789f5c6fa4465000113ecb2",2,"Large vs small B","BATHROOM","TOILET","Study1","S","JOL_Large",3024,"56",3837,"TOILET",100,100
"58c1886c3977190001f53ec8",2,"Large vs small B","BATHROOM","TOILET","Study1","S","JOL_Large",5034,"70",3684,"toilet",100,100
"5b82e33f184f45000155f0ba",2,"Large vs small B","BATHROOM","TOILET","Study1","S","JOL_Small",1872,"90",1757,"toilet",100,100
"5bd60bf95f437a0001a2c6c6",2,"Large vs small B","BATHROOM","TOILET","Study1","S","JOL_Large",2909,"50",3670,"toilet",100,100
"5be1c6db93cab6000123baf9",2,"Large vs small B","BATHROOM","TOILET","Study1","S","JOL_Large",3316,"50",3133,"toilet",100,100
"5be8bde6598a35000108e15f",2,"Large vs small B","BATHROOM","TOILET","Study1","S","JOL_Small",3738,"35",2009,"TOILET",100,100
"5c2b9ce5b337310001996c05",2,"Large vs small B","BATHROOM","TOILET","Study1","S","JOL_Small",4688,"80",1931,"toilet",100,100
"5c3a7c75a882e900016ba262",2,"Large vs small B","BATHROOM","TOILET","Study1","S","JOL_Small",1865,"100",5920,"toilet ",100,100
"5db0cfa9c2978c001923d74d",2,"Large vs small B","BATHROOM","TOILET","Study1","S","JOL_Small",2376,"70",2416,"toilet",100,100
"5dbb1f4a55b86212a3d2ff9f",2,"Large vs small B","BATHROOM","TOILET","Study1","S","JOL_Small",4626,"55",6571,"TOILET",100,100
"5f105e08aeef1d2db59c00ef@email.prolific.co",2,"Large vs small B","BATHROOM","TOILET","Study1","S","JOL_Small",7361,"2",15720,"Cleaner",30.769230769231,0
"5789f5c6fa4465000113ecb2",2,"Large vs small B","BEGIN","END","Study1","S","JOL_Small",7665,"79",2681,"START",0,0
"58c1886c3977190001f53ec8",2,"Large vs small B","BEGIN","END","Study1","S","JOL_Large",3653,"20",3479,"end",100,100
"5b82e33f184f45000155f0ba",2,"Large vs small B","BEGIN","END","Study1","S","JOL_Small",2447,"80",1865,"Start",0,0
"5bd60bf95f437a0001a2c6c6",2,"Large vs small B","BEGIN","END","Study1","S","JOL_Small",2979,"50",4332,"end",100,100
"5be1c6db93cab6000123baf9",2,"Large vs small B","BEGIN","END","Study1","S","JOL_Small",3272,"70",3308,"start",0,0
"5be8bde6598a35000108e15f",2,"Large vs small B","BEGIN","END","Study1","S","JOL_Large",3243,"75",1907,"END",100,100
"5c2b9ce5b337310001996c05",2,"Large vs small B","BEGIN","END","Study1","S","JOL_Large",2075,"70",4133,"end",100,100
"5c3a7c75a882e900016ba262",2,"Large vs small B","BEGIN","END","Study1","S","JOL_Small",2324,"100",2520,"end",100,100
"5db0cfa9c2978c001923d74d",2,"Large vs small B","BEGIN","END","Study1","S","JOL_Large",1484,"50",1930,"end",100,100
"5dbb1f4a55b86212a3d2ff9f",2,"Large vs small B","BEGIN","END","Study1","S","JOL_Large",3404,"90",4585,"END",100,100
"5f105e08aeef1d2db59c00ef@email.prolific.co",2,"Large vs small B","BEGIN","END","Study1","S","JOL_Small",9712,"30",10588,"Start",0,0
"5789f5c6fa4465000113ecb2",2,"Large vs small B","BITTER","COLD","Study1","F","JOL_Small",3390,"44",10007,"COFFEE",40,0
"58c1886c3977190001f53ec8",2,"Large vs small B","BITTER","COLD","Study1","F","JOL_Large",3407,"40",3191,"sweet",0,0
"5b82e33f184f45000155f0ba",2,"Large vs small B","BITTER","COLD","Study1","F","JOL_Large",4064,"40",1471,"",0,0
"5bd60bf95f437a0001a2c6c6",2,"Large vs small B","BITTER","COLD","Study1","F","JOL_Small",2146,"40",9748,"beer",0,0
"5be1c6db93cab6000123baf9",2,"Large vs small B","BITTER","COLD","Study1","F","JOL_Small",4384,"35",5842,"twiste",0,0
"5be8bde6598a35000108e15f",2,"Large vs small B","BITTER","COLD","Study1","F","JOL_Large",2060,"45",11820,"CAKE",25,0
"5c2b9ce5b337310001996c05",2,"Large vs small B","BITTER","COLD","Study1","F","JOL_Small",3379,"10",2573,"",0,0
"5c3a7c75a882e900016ba262",2,"Large vs small B","BITTER","COLD","Study1","F","JOL_Small",3472,"50",4287,"cold",100,100
"5db0cfa9c2978c001923d74d",2,"Large vs small B","BITTER","COLD","Study1","F","JOL_Large",1943,"50",1959,"lemon",22.222222222222,0
"5dbb1f4a55b86212a3d2ff9f",2,"Large vs small B","BITTER","COLD","Study1","F","JOL_Large",2942,"45",3927,"SWEET",0,0
"5f105e08aeef1d2db59c00ef@email.prolific.co",2,"Large vs small B","BITTER","COLD","Study1","F","JOL_Large",6099,"30",8478,"Lemonz",20,0
"5789f5c6fa4465000113ecb2",2,"Large vs small B","BLOW","WIND","Study1","S","JOL_Large",5686,"62",4483,"WIND",100,100
"58c1886c3977190001f53ec8",2,"Large vs small B","BLOW","WIND","Study1","S","JOL_Small",2285,"10",2501,"wind",100,100
"5b82e33f184f45000155f0ba",2,"Large vs small B","BLOW","WIND","Study1","S","JOL_Small",4102,"40",1433,"wind",100,100
"5bd60bf95f437a0001a2c6c6",2,"Large vs small B","BLOW","WIND","Study1","S","JOL_Large",2576,"50",4221,"wind",100,100
