Username,ID,ExperimentName,Session,Trial,Date,TimeDif,"Condition Number","Stimuli File","Order File","Condition Description","Condition Notes",Stimuli*Cue,Stimuli*Answer,Stimuli*Shuffle,"Stimuli*Stimuli Notes",Stimuli*Value,Procedure*Item,"Procedure*Trial Type","Procedure*Max Time","Procedure*Min Time",Procedure*Text,"Procedure*Procedure Notes",Procedure*Shuffle,Response*RT,Response*Response,Response*Accuracy,Response*RTfirst,Response*RTlast,Response*strictAcc,Response*lenientAcc,Response*focus,Response*JOL,Response*Focus
5ee65bebdde4ef3c586e6554,q1vx70sf0i,Trevor-ex1,1,1,2020-07-17T09:40:18-07:00,6.8466789722443,4,versionC_stim.csv,JOL_SIZE_VersionD.csv,"Large vs small D","Large vs small",,,,,,0,Instruct,-,5,"In this section, you will be presented with a series of word pairs.",Initial_Instruct,Instruct1,6476,,,-1,-1,,,,,1
5ee65bebdde4ef3c586e6554,q1vx70sf0i,Trevor-ex1,1,2,2020-07-17T09:40:38-07:00,20.817868232727,4,versionC_stim.csv,JOL_SIZE_VersionD.csv,"Large vs small D","Large vs small",,,,,,0,Instruct,-,10,"As you study, you will be asked to rate your ability to remember the second item in the pair if you were only shown the first at test. You will make these ratings using a 0 to 100 Scale.",,Instruct13,20232,,,-1,-1,,,,,1
5ee65bebdde4ef3c586e6554,q1vx70sf0i,Trevor-ex1,1,3,2020-07-17T09:40:50-07:00,11.642538785934,4,versionC_stim.csv,JOL_SIZE_VersionD.csv,"Large vs small D","Large vs small",,,,,,0,Instruct,-,10,"For example, if you are given the pair CAT - DOG, a rating of 0 indicates that you would not remember DOG at test, while a rating of 100 indicates full certainty that you would remember the word DOG at test.",,Instruct14,11081,,,-1,-1,,,,,1
5ee65bebdde4ef3c586e6554,q1vx70sf0i,Trevor-ex1,1,4,2020-07-17T09:41:03-07:00,12.489628076553,4,versionC_stim.csv,JOL_SIZE_VersionD.csv,"Large vs small D","Large vs small",,,,,,0,Instruct,-,10,"When making your ratings, it is criticial that you use the full range of the scale. You will be disqualified for only giving ratings of 0 or 100! After making your rating, press Enter to advance to the next pair.",,Instruct15,11920,,,-1,-1,,,,,1
5ee65bebdde4ef3c586e6554,q1vx70sf0i,Trevor-ex1,1,5,2020-07-17T09:41:05-07:00,2.6609740257263,4,versionC_stim.csv,JOL_SIZE_VersionD.csv,"Large vs small D","Large vs small",,,,,,0,Instruct,User,-,"You will now begin the study. Press Enter when you are ready to begin.",,Instruct16,2125,,,-1,-1,,,,,1
5ee65bebdde4ef3c586e6554,q1vx70sf0i,Trevor-ex1,1,6,2020-07-17T09:41:16-07:00,10.342390060425,4,versionC_stim.csv,JOL_SIZE_VersionD.csv,"Large vs small D","Large vs small",FISH,SHRIMP,BUFFER3,Buffer,93,95,JOL_Large,User,-,"How likely are you to correctly recall the second item in the pair?|Type your response on a scale from 0-100 and then press Enter.",Study/JOL,BUFFER,9804,,,7598,7842,,,,80,1
5ee65bebdde4ef3c586e6554,q1vx70sf0i,Trevor-ex1,1,7,2020-07-17T09:41:22-07:00,6.7599220275879,4,versionC_stim.csv,JOL_SIZE_VersionD.csv,"Large vs small D","Large vs small",POTATO,CARROT,BUFFER3,Buffer,91,93,JOL_Small,User,-,"How likely are you to correctly recall the second item in the pair?|Type your response on a scale from 0-100 and then press Enter.",Study/JOL,BUFFER,6067,,,3657,3998,,,,50,1
5ee65bebdde4ef3c586e6554,q1vx70sf0i,Trevor-ex1,1,8,2020-07-17T09:41:29-07:00,6.3611078262329,4,versionC_stim.csv,JOL_SIZE_VersionD.csv,"Large vs small D","Large vs small",FROZEN,ICE,BUFFER3,Buffer,94,92,JOL_Small,User,-,"How likely are you to correctly recall the second item in the pair?|Type your response on a scale from 0-100 and then press Enter.",Study/JOL,BUFFER,5865,,,3374,3941,,,,95,1
5ee65bebdde4ef3c586e6554,q1vx70sf0i,Trevor-ex1,1,9,2020-07-17T09:41:35-07:00,6.0374090671539,4,versionC_stim.csv,JOL_SIZE_VersionD.csv,"Large vs small D","Large vs small",ADVENTURE,CAMP,BUFFER3,Buffer,95,94,JOL_Small,User,-,"How likely are you to correctly recall the second item in the pair?|Type your response on a scale from 0-100 and then press Enter.",Study/JOL,BUFFER,5613,,,4508,4799,,,,60,1
5ee65bebdde4ef3c586e6554,q1vx70sf0i,Trevor-ex1,1,10,2020-07-17T09:41:42-07:00,7.7742440700531,4,versionC_stim.csv,JOL_SIZE_VersionD.csv,"Large vs small D","Large vs small",STRING,NOODLE,BUFFER3,Buffer,92,96,JOL_Large,User,-,"How likely are you to correctly recall the second item in the pair?|Type your response on a scale from 0-100 and then press Enter.",Study/JOL,BUFFER,7262,,,3481,4705,,,,65,1
5ee65bebdde4ef3c586e6554,q1vx70sf0i,Trevor-ex1,1,11,2020-07-17T09:41:48-07:00,5.1192538738251,4,versionC_stim.csv,JOL_SIZE_VersionD.csv,"Large vs small D","Large vs small",END,ADJOURN,Study2,B,101,131,JOL_Small,User,-,"How likely are you to correctly recall the second item in the pair?|Type your response on a scale from 0-100 and then press Enter.",Study/JOL,"Study Phase",4571,,,3424,3707,,,,15,1
5ee65bebdde4ef3c586e6554,q1vx70sf0i,Trevor-ex1,1,12,2020-07-17T09:41:55-07:00,7.0664839744568,4,versionC_stim.csv,JOL_SIZE_VersionD.csv,"Large vs small D","Large vs small",CHILDREN,MIRROR,Study2,U,174,106,JOL_Small,User,-,"How likely are you to correctly recall the second item in the pair?|Type your response on a scale from 0-100 and then press Enter.",Study/JOL,"Study Phase",6423,,,4301,5458,,,,20,1
5ee65bebdde4ef3c586e6554,q1vx70sf0i,Trevor-ex1,1,13,2020-07-17T09:41:59-07:00,4.6100730895996,4,versionC_stim.csv,JOL_SIZE_VersionD.csv,"Large vs small D","Large vs small",MORNING,TEMPERATURE,Study2,U,173,111,JOL_Small,User,-,"How likely are you to correctly recall the second item in the pair?|Type your response on a scale from 0-100 and then press Enter.",Study/JOL,"Study Phase",4049,,,3001,3245,,,,10,1
5ee65bebdde4ef3c586e6554,q1vx70sf0i,Trevor-ex1,1,14,2020-07-17T09:42:04-07:00,5.0985391139984,4,versionC_stim.csv,JOL_SIZE_VersionD.csv,"Large vs small D","Large vs small",TRUTHFUL,HONEST,Study2,F,133,162,JOL_Large,User,-,"How likely are you to correctly recall the second item in the pair?|Type your response on a scale from 0-100 and then press Enter.",Study/JOL,"Study Phase",3512,,,2342,2664,,,,87,1
5ee65bebdde4ef3c586e6554,q1vx70sf0i,Trevor-ex1,1,15,2020-07-17T09:42:09-07:00,4.9551320075989,4,versionC_stim.csv,JOL_SIZE_VersionD.csv,"Large vs small D","Large vs small",TICK,FLEA,Study2,S,151,117,JOL_Small,User,-,"How likely are you to correctly recall the second item in the pair?|Type your response on a scale from 0-100 and then press Enter.",Study/JOL,"Study Phase",4338,,,2440,3290,,,,90,1
5ee65bebdde4ef3c586e6554,q1vx70sf0i,Trevor-ex1,1,16,2020-07-17T09:42:14-07:00,4.5871958732605,4,versionC_stim.csv,JOL_SIZE_VersionD.csv,"Large vs small D","Large vs small",JAR,MASON,Study2,S,138,98,JOL_Small,User,-,"How likely are you to correctly recall the second item in the pair?|Type your response on a scale from 0-100 and then press Enter.",Study/JOL,"Study Phase",3896,,,2838,3154,,,,50,1
5ee65bebdde4ef3c586e6554,q1vx70sf0i,Trevor-ex1,1,17,2020-07-17T09:42:18-07:00,4.4133670330048,4,versionC_stim.csv,JOL_SIZE_VersionD.csv,"Large vs small D","Large vs small",GAME,CLUE,Study2,B,97,139,JOL_Large,User,-,"How likely are you to correctly recall the second item in the pair?|Type your response on a scale from 0-100 and then press Enter.",Study/JOL,"Study Phase",3756,,,1883,2983,,,,75,1
5ee65bebdde4ef3c586e6554,q1vx70sf0i,Trevor-ex1,1,18,2020-07-17T09:42:23-07:00,4.2906510829926,4,versionC_stim.csv,JOL_SIZE_VersionD.csv,"Large vs small D","Large vs small",BRACELET,WRIST,Study2,S,140,146,JOL_Large,User,-,"How likely are you to correctly recall the second item in the pair?|Type your response on a scale from 0-100 and then press Enter.",Study/JOL,"Study Phase",3702,,,1929,2171,,,,70,1
5ee65bebdde4ef3c586e6554,q1vx70sf0i,Trevor-ex1,1,19,2020-07-17T09:42:27-07:00,3.8913199901581,4,versionC_stim.csv,JOL_SIZE_VersionD.csv,"Large vs small D","Large vs small",COFFIN,DEAD,Study2,F,128,167,JOL_Large,User,-,"How likely are you to correctly recall the second item in the pair?|Type your response on a scale from 0-100 and then press Enter.",Study/JOL,"Study Phase",3221,,,2032,2466,,,,100,1
5ee65bebdde4ef3c586e6554,q1vx70sf0i,Trevor-ex1,1,20,2020-07-17T09:42:30-07:00,3.2774348258972,4,versionC_stim.csv,JOL_SIZE_VersionD.csv,"Large vs small D","Large vs small",BANKER,MONEY,Study2,F,132,138,JOL_Large,User,-,"How likely are you to correctly recall the second item in the pair?|Type your response on a scale from 0-100 and then press Enter.",Study/JOL,"Study Phase",2701,,,1751,2004,,,,100,1
5ee65bebdde4ef3c586e6554,q1vx70sf0i,Trevor-ex1,1,21,2020-07-17T09:42:37-07:00,7.5789241790771,4,versionC_stim.csv,JOL_SIZE_VersionD.csv,"Large vs small D","Large vs small",OUNCE,BOTH,Study2,U,172,119,JOL_Small,User,-,"How likely are you to correctly recall the second item in the pair?|Type your response on a scale from 0-100 and then press Enter.",Study/JOL,"Study Phase",7103,,,4938,6339,,,,5,1
5ee65bebdde4ef3c586e6554,q1vx70sf0i,Trevor-ex1,1,22,2020-07-17T09:42:42-07:00,4.7081317901611,4,versionC_stim.csv,JOL_SIZE_VersionD.csv,"Large vs small D","Large vs small",ACTRESS,STAR,Study2,F,120,163,JOL_Large,User,-,"How likely are you to correctly recall the second item in the pair?|Type your response on a scale from 0-100 and then press Enter.",Study/JOL,"Study Phase",4115,,,2949,3324,,,,95,1
5ee65bebdde4ef3c586e6554,q1vx70sf0i,Trevor-ex1,1,23,2020-07-17T09:42:45-07:00,3.3825170993805,4,versionC_stim.csv,JOL_SIZE_VersionD.csv,"Large vs small D","Large vs small",AIRCRAFT,PLANE,Study2,F,129,143,JOL_Large,User,-,"How likely are you to correctly recall the second item in the pair?|Type your response on a scale from 0-100 and then press Enter.",Study/JOL,"Study Phase",2749,,,1827,2035,,,,100,1
5ee65bebdde4ef3c586e6554,q1vx70sf0i,Trevor-ex1,1,24,2020-07-17T09:42:50-07:00,4.8093290328979,4,versionC_stim.csv,JOL_SIZE_VersionD.csv,"Large vs small D","Large vs small",BANG,FUZZY,Study2,U,168,112,JOL_Small,User,-,"How likely are you to correctly recall the second item in the pair?|Type your response on a scale from 0-100 and then press Enter.",Study/JOL,"Study Phase",4194,,,2703,2795,,,,20,1
5ee65bebdde4ef3c586e6554,q1vx70sf0i,Trevor-ex1,1,25,2020-07-17T09:42:55-07:00,4.6342489719391,4,versionC_stim.csv,JOL_SIZE_VersionD.csv,"Large vs small D","Large vs small",SMELL,INCENSE,Study2,B,110,128,JOL_Small,User,-,"How likely are you to correctly recall the second item in the pair?|Type your response on a scale from 0-100 and then press Enter.",Study/JOL,"Study Phase",4082,,,2817,3201,,,,70,1
5ee65bebdde4ef3c586e6554,q1vx70sf0i,Trevor-ex1,1,26,2020-07-17T09:42:58-07:00,3.0596179962158,4,versionC_stim.csv,JOL_SIZE_VersionD.csv,"Large vs small D","Large vs small",SHAVE,RAZOR,Study2,S,136,151,JOL_Large,User,-,"How likely are you to correctly recall the second item in the pair?|Type your response on a scale from 0-100 and then press Enter.",Study/JOL,"Study Phase",2552,,,1651,1878,,,,100,1
5ee65bebdde4ef3c586e6554,q1vx70sf0i,Trevor-ex1,1,27,2020-07-17T09:43:01-07:00,3.2647240161896,4,versionC_stim.csv,JOL_SIZE_VersionD.csv,"Large vs small D","Large vs small",WAX,CANDLE,Study2,S,139,110,JOL_Small,User,-,"How likely are you to correctly recall the second item in the pair?|Type your response on a scale from 0-100 and then press Enter.",Study/JOL,"Study Phase",2690,,,1770,2006,,,,100,1
5ee65bebdde4ef3c586e6554,q1vx70sf0i,Trevor-ex1,1,28,2020-07-17T09:43:06-07:00,4.9152100086212,4,versionC_stim.csv,JOL_SIZE_VersionD.csv,"Large vs small D","Large vs small",ABLE,CRACKLE,Study2,U,162,145,JOL_Large,User,-,"How likely are you to correctly recall the second item in the pair?|Type your response on a scale from 0-100 and then press Enter.",Study/JOL,"Study Phase",4274,,,3359,3435,,,,30,1
5ee65bebdde4ef3c586e6554,q1vx70sf0i,Trevor-ex1,1,29,2020-07-17T09:43:12-07:00,6.2460279464722,4,versionC_stim.csv,JOL_SIZE_VersionD.csv,"Large vs small D","Large vs small",JOKE,KEYS,Study2,U,165,141,JOL_Large,User,-,"How likely are you to correctly recall the second item in the pair?|Type your response on a scale from 0-100 and then press Enter.",Study/JOL,"Study Phase",5701,,,2535,5025,,,,2,1
5ee65bebdde4ef3c586e6554,q1vx70sf0i,Trevor-ex1,1,30,2020-07-17T09:43:19-07:00,6.8371469974518,4,versionC_stim.csv,JOL_SIZE_VersionD.csv,"Large vs small D","Large vs small",HAVE,OWN,Study2,S,153,161,JOL_Large,User,-,"How likely are you to correctly recall the second item in the pair?|Type your response on a scale from 0-100 and then press Enter.",Study/JOL,"Study Phase",5239,,,3446,4522,,,,40,1
5ee65bebdde4ef3c586e6554,q1vx70sf0i,Trevor-ex1,1,31,2020-07-17T09:43:23-07:00,3.8129479885101,4,versionC_stim.csv,JOL_SIZE_VersionD.csv,"Large vs small D","Large vs small",SCISSORS,SHEARS,Study2,B,112,160,JOL_Large,User,-,"How likely are you to correctly recall the second item in the pair?|Type your response on a scale from 0-100 and then press Enter.",Study/JOL,"Study Phase",3181,,,2088,2088,,,,0,1
5ee65bebdde4ef3c586e6554,q1vx70sf0i,Trevor-ex1,1,32,2020-07-17T09:43:27-07:00,4.3956060409546,4,versionC_stim.csv,JOL_SIZE_VersionD.csv,"Large vs small D","Large vs small",FIGHT,FEUD,Study2,B,113,169,JOL_Large,User,-,"How likely are you to correctly recall the second item in the pair?|Type your response on a scale from 0-100 and then press Enter.",Study/JOL,"Study Phase",2836,,,1971,1971,,,,0,1
5ee65bebdde4ef3c586e6554,q1vx70sf0i,Trevor-ex1,1,33,2020-07-17T09:43:31-07:00,3.8965389728546,4,versionC_stim.csv,JOL_SIZE_VersionD.csv,"Large vs small D","Large vs small",COMMUNICATION,PHONE,Study2,S,149,116,JOL_Small,User,-,"How likely are you to correctly recall the second item in the pair?|Type your response on a scale from 0-100 and then press Enter.",Study/JOL,"Study Phase",3289,,,2383,2469,,,,40,1
5ee65bebdde4ef3c586e6554,q1vx70sf0i,Trevor-ex1,1,34,2020-07-17T09:43:35-07:00,3.4754660129547,4,versionC_stim.csv,JOL_SIZE_VersionD.csv,"Large vs small D","Large vs small",RED,CHERRY,Study2,B,104,100,JOL_Small,User,-,"How likely are you to correctly recall the second item in the pair?|Type your response on a scale from 0-100 and then press Enter.",Study/JOL,"Study Phase",3042,,,1759,1977,,,,100,1
5ee65bebdde4ef3c586e6554,q1vx70sf0i,Trevor-ex1,1,35,2020-07-17T09:43:38-07:00,3.3187589645386,4,versionC_stim.csv,JOL_SIZE_VersionD.csv,"Large vs small D","Large vs small",STRAWBERRY,FRUIT,Study2,F,124,147,JOL_Large,User,-,"How likely are you to correctly recall the second item in the pair?|Type your response on a scale from 0-100 and then press Enter.",Study/JOL,"Study Phase",2766,,,1767,1991,,,,100,1
5ee65bebdde4ef3c586e6554,q1vx70sf0i,Trevor-ex1,1,36,2020-07-17T09:43:42-07:00,4.172641992569,4,versionC_stim.csv,JOL_SIZE_VersionD.csv,"Large vs small D","Large vs small",TOIL,LEASE,Study2,U,170,113,JOL_Small,User,-,"How likely are you to correctly recall the second item in the pair?|Type your response on a scale from 0-100 and then press Enter.",Study/JOL,"Study Phase",3593,,,2768,2768,,,,0,1
5ee65bebdde4ef3c586e6554,q1vx70sf0i,Trevor-ex1,1,37,2020-07-17T09:43:46-07:00,4.1193339824677,4,versionC_stim.csv,JOL_SIZE_VersionD.csv,"Large vs small D","Large vs small",TEMPER,TANTRUM,Study2,S,154,144,JOL_Large,User,-,"How likely are you to correctly recall the second item in the pair?|Type your response on a scale from 0-100 and then press Enter.",Study/JOL,"Study Phase",3637,,,2646,2870,,,,70,1
5ee65bebdde4ef3c586e6554,q1vx70sf0i,Trevor-ex1,1,38,2020-07-17T09:43:50-07:00,3.144632101059,4,versionC_stim.csv,JOL_SIZE_VersionD.csv,"Large vs small D","Large vs small",CHARM,VEHICLE,Study2,U,160,165,JOL_Large,User,-,"How likely are you to correctly recall the second item in the pair?|Type your response on a scale from 0-100 and then press Enter.",Study/JOL,"Study Phase",2698,,,1859,1859,,,,0,1
5ee65bebdde4ef3c586e6554,q1vx70sf0i,Trevor-ex1,1,39,2020-07-17T09:43:54-07:00,3.9934389591217,4,versionC_stim.csv,JOL_SIZE_VersionD.csv,"Large vs small D","Large vs small",FAVORITE,BEST,Study2,F,125,132,JOL_Small,User,-,"How likely are you to correctly recall the second item in the pair?|Type your response on a scale from 0-100 and then press Enter.",Study/JOL,"Study Phase",3371,,,2506,2597,,,,60,1
5ee65bebdde4ef3c586e6554,q1vx70sf0i,Trevor-ex1,1,40,2020-07-17T09:44:03-07:00,9.1446340084076,4,versionC_stim.csv,JOL_SIZE_VersionD.csv,"Large vs small D","Large vs small",NOISE,LOUD,Study2,S,152,122,JOL_Small,User,-,"How likely are you to correctly recall the second item in the pair?|Type your response on a scale from 0-100 and then press Enter.",Study/JOL,"Study Phase",8538,,,5894,7647,,,,30,1
5ee65bebdde4ef3c586e6554,q1vx70sf0i,Trevor-ex1,1,41,2020-07-17T09:44:08-07:00,4.82106590271,4,versionC_stim.csv,JOL_SIZE_VersionD.csv,"Large vs small D","Large vs small",PENGUIN,BIRD,Study2,F,119,127,JOL_Small,User,-,"How likely are you to correctly recall the second item in the pair?|Type your response on a scale from 0-100 and then press Enter.",Study/JOL,"Study Phase",4239,,,3394,3473,,,,40,1
5ee65bebdde4ef3c586e6554,q1vx70sf0i,Trevor-ex1,1,42,2020-07-17T09:44:12-07:00,4.8764581680298,4,versionC_stim.csv,JOL_SIZE_VersionD.csv,"Large vs small D","Large vs small",DRINK,WATER,Study2,S,143,115,JOL_Small,User,-,"How likely are you to correctly recall the second item in the pair?|Type your response on a scale from 0-100 and then press Enter.",Study/JOL,"Study Phase",4350,,,2661,3601,,,,60,1
5ee65bebdde4ef3c586e6554,q1vx70sf0i,Trevor-ex1,1,43,2020-07-17T09:44:16-07:00,3.8081028461456,4,versionC_stim.csv,JOL_SIZE_VersionD.csv,"Large vs small D","Large vs small",EQUAL,RIGHTS,Study2,S,137,154,JOL_Large,User,-,"How likely are you to correctly recall the second item in the pair?|Type your response on a scale from 0-100 and then press Enter.",Study/JOL,"Study Phase",3251,,,2392,2457,,,,60,1
5ee65bebdde4ef3c586e6554,q1vx70sf0i,Trevor-ex1,1,44,2020-07-17T09:44:21-07:00,4.5863430500031,4,versionC_stim.csv,JOL_SIZE_VersionD.csv,"Large vs small D","Large vs small",TRASH,LITTER,Study2,B,103,126,JOL_Small,User,-,"How likely are you to correctly recall the second item in the pair?|Type your response on a scale from 0-100 and then press Enter.",Study/JOL,"Study Phase",4055,,,3104,3231,,,,60,1
5ee65bebdde4ef3c586e6554,q1vx70sf0i,Trevor-ex1,1,45,2020-07-17T09:44:24-07:00,3.686733007431,4,versionC_stim.csv,JOL_SIZE_VersionD.csv,"Large vs small D","Large vs small",MAROON,JUSTICE,Study2,U,156,164,JOL_Large,User,-,"How likely are you to correctly recall the second item in the pair?|Type your response on a scale from 0-100 and then press Enter.",Study/JOL,"Study Phase",3040,,,2178,2247,,,,10,1
5ee65bebdde4ef3c586e6554,q1vx70sf0i,Trevor-ex1,1,46,2020-07-17T09:44:30-07:00,5.7351520061493,4,versionC_stim.csv,JOL_SIZE_VersionD.csv,"Large vs small D","Large vs small",BALLOON,POP,Study2,F,123,103,JOL_Small,User,-,"How likely are you to correctly recall the second item in the pair?|Type your response on a scale from 0-100 and then press Enter.",Study/JOL,"Study Phase",5128,,,3106,4347,,,,20,1
5ee65bebdde4ef3c586e6554,q1vx70sf0i,Trevor-ex1,1,47,2020-07-17T09:44:34-07:00,4.1982810497284,4,versionC_stim.csv,JOL_SIZE_VersionD.csv,"Large vs small D","Large vs small",REVENGE,EVEN,Study2,F,122,124,JOL_Small,User,-,"How likely are you to correctly recall the second item in the pair?|Type your response on a scale from 0-100 and then press Enter.",Study/JOL,"Study Phase",3680,,,2763,2913,,,,30,1
5ee65bebdde4ef3c586e6554,q1vx70sf0i,Trevor-ex1,1,48,2020-07-17T09:44:38-07:00,3.8964309692383,4,versionC_stim.csv,JOL_SIZE_VersionD.csv,"Large vs small D","Large vs small",AWAY,GONE,Study2,S,142,170,JOL_Large,User,-,"How likely are you to correctly recall the second item in the pair?|Type your response on a scale from 0-100 and then press Enter.",Study/JOL,"Study Phase",3279,,,1817,2578,,,,20,1
5ee65bebdde4ef3c586e6554,q1vx70sf0i,Trevor-ex1,1,49,2020-07-17T09:44:45-07:00,7.1629140377045,4,versionC_stim.csv,JOL_SIZE_VersionD.csv,"Large vs small D","Large vs small",CLOTHES,CAKE,Study2,U,166,137,JOL_Large,User,-,"How likely are you to correctly recall the second item in the pair?|Type your response on a scale from 0-100 and then press Enter.",Study/JOL,"Study Phase",6666,,,1977,3560,,,,30,1
5ee65bebdde4ef3c586e6554,q1vx70sf0i,Trevor-ex1,1,50,2020-07-17T09:44:49-07:00,3.4870588779449,4,versionC_stim.csv,JOL_SIZE_VersionD.csv,"Large vs small D","Large vs small",CUT,CHOP,Study2,B,107,123,JOL_Small,User,-,"How likely are you to correctly recall the second item in the pair?|Type your response on a scale from 0-100 and then press Enter.",Study/JOL,"Study Phase",2938,,,2046,2126,,,,30,1
5ee65bebdde4ef3c586e6554,q1vx70sf0i,Trevor-ex1,1,51,2020-07-17T09:45:01-07:00,11.772760152817,4,versionC_stim.csv,JOL_SIZE_VersionD.csv,"Large vs small D","Large vs small",VILLAIN,BAD,Study2,F,118,99,JOL_Small,User,-,"How likely are you to correctly recall the second item in the pair?|Type your response on a scale from 0-100 and then press Enter.",Study/JOL,"Study Phase",11114,,,8014,10340,,,,30,1
5ee65bebdde4ef3c586e6554,q1vx70sf0i,Trevor-ex1,1,52,2020-07-17T09:45:06-07:00,4.8135089874268,4,versionC_stim.csv,JOL_SIZE_VersionD.csv,"Large vs small D","Large vs small",REEL,ROD,Study2,S,150,120,JOL_Small,User,-,"How likely are you to correctly recall the second item in the pair?|Type your response on a scale from 0-100 and then press Enter.",Study/JOL,"Study Phase",4066,,,2460,2634,,,,40,1
5ee65bebdde4ef3c586e6554,q1vx70sf0i,Trevor-ex1,1,53,2020-07-17T09:45:12-07:00,6.6572639942169,4,versionC_stim.csv,JOL_SIZE_VersionD.csv,"Large vs small D","Large vs small",HATE,NAME,Study2,U,167,109,JOL_Small,User,-,"How likely are you to correctly recall the second item in the pair?|Type your response on a scale from 0-100 and then press Enter.",Study/JOL,"Study Phase",5917,,,3333,5007,,,,20,1
5ee65bebdde4ef3c586e6554,q1vx70sf0i,Trevor-ex1,1,54,2020-07-17T09:45:15-07:00,3.0927810668945,4,versionC_stim.csv,JOL_SIZE_VersionD.csv,"Large vs small D","Large vs small",THIMBLE,THREAD,Study2,F,121,155,JOL_Large,User,-,"How likely are you to correctly recall the second item in the pair?|Type your response on a scale from 0-100 and then press Enter.",Study/JOL,"Study Phase",2487,,,1729,1729,,,,0,1
5ee65bebdde4ef3c586e6554,q1vx70sf0i,Trevor-ex1,1,55,2020-07-17T09:45:20-07:00,4.2779009342194,4,versionC_stim.csv,JOL_SIZE_VersionD.csv,"Large vs small D","Large vs small",SEATBELT,SAFETY,Study2,S,147,150,JOL_Large,User,-,"How likely are you to correctly recall the second item in the pair?|Type your response on a scale from 0-100 and then press Enter.",Study/JOL,"Study Phase",3630,,,2133,2451,,,,40,1
5ee65bebdde4ef3c586e6554,q1vx70sf0i,Trevor-ex1,1,56,2020-07-17T09:45:24-07:00,3.9930188655853,4,versionC_stim.csv,JOL_SIZE_VersionD.csv,"Large vs small D","Large vs small",FLIP,TURN,Study2,F,116,105,JOL_Small,User,-,"How likely are you to correctly recall the second item in the pair?|Type your response on a scale from 0-100 and then press Enter.",Study/JOL,"Study Phase",3185,,,2093,2328,,,,30,1
5ee65bebdde4ef3c586e6554,q1vx70sf0i,Trevor-ex1,1,57,2020-07-17T09:45:29-07:00,5.1226930618286,4,versionC_stim.csv,JOL_SIZE_VersionD.csv,"Large vs small D","Large vs small",HEAD,SCALP,Study2,B,105,108,JOL_Small,User,-,"How likely are you to correctly recall the second item in the pair?|Type your response on a scale from 0-100 and then press Enter.",Study/JOL,"Study Phase",4402,,,3479,3535,,,,40,1
5ee65bebdde4ef3c586e6554,q1vx70sf0i,Trevor-ex1,1,58,2020-07-17T09:45:36-07:00,7.0380129814148,4,versionC_stim.csv,JOL_SIZE_VersionD.csv,"Large vs small D","Large vs small",COLD,CHILL,Study2,B,114,97,JOL_Small,User,-,"How likely are you to correctly recall the second item in the pair?|Type your response on a scale from 0-100 and then press Enter.",Study/JOL,"Study Phase",5537,,,4543,4770,,,,50,1
5ee65bebdde4ef3c586e6554,q1vx70sf0i,Trevor-ex1,1,59,2020-07-17T09:45:40-07:00,4.2372441291809,4,versionC_stim.csv,JOL_SIZE_VersionD.csv,"Large vs small D","Large vs small",LOVE,AFFECTION,Study2,B,115,149,JOL_Large,User,-,"How likely are you to correctly recall the second item in the pair?|Type your response on a scale from 0-100 and then press Enter.",Study/JOL,"Study Phase",3442,,,2485,2675,,,,80,1
5ee65bebdde4ef3c586e6554,q1vx70sf0i,Trevor-ex1,1,60,2020-07-17T09:45:43-07:00,3.4671678543091,4,versionC_stim.csv,JOL_SIZE_VersionD.csv,"Large vs small D","Large vs small",OBTAIN,MEAT,Study2,U,161,176,JOL_Large,User,-,"How likely are you to correctly recall the second item in the pair?|Type your response on a scale from 0-100 and then press Enter.",Study/JOL,"Study Phase",2828,,,2054,2055,,,,0,1
5ee65bebdde4ef3c586e6554,q1vx70sf0i,Trevor-ex1,1,61,2020-07-17T09:45:47-07:00,3.9712250232697,4,versionC_stim.csv,JOL_SIZE_VersionD.csv,"Large vs small D","Large vs small",CLOTH,STRETCH,Study2,U,157,129,JOL_Small,User,-,"How likely are you to correctly recall the second item in the pair?|Type your response on a scale from 0-100 and then press Enter.",Study/JOL,"Study Phase",3479,,,2684,2733,,,,10,1
5ee65bebdde4ef3c586e6554,q1vx70sf0i,Trevor-ex1,1,62,2020-07-17T09:45:51-07:00,3.0967290401459,4,versionC_stim.csv,JOL_SIZE_VersionD.csv,"Large vs small D","Large vs small",CAR,DRIVER,Study2,B,106,174,JOL_Large,User,-,"How likely are you to correctly recall the second item in the pair?|Type your response on a scale from 0-100 and then press Enter.",Study/JOL,"Study Phase",2497,,,1573,1765,,,,80,1
5ee65bebdde4ef3c586e6554,q1vx70sf0i,Trevor-ex1,1,63,2020-07-17T09:45:54-07:00,3.2102229595184,4,versionC_stim.csv,JOL_SIZE_VersionD.csv,"Large vs small D","Large vs small",EAT,DINE,Study2,B,111,135,JOL_Small,User,-,"How likely are you to correctly recall the second item in the pair?|Type your response on a scale from 0-100 and then press Enter.",Study/JOL,"Study Phase",2672,,,1724,1931,,,,80,1
5ee65bebdde4ef3c586e6554,q1vx70sf0i,Trevor-ex1,1,64,2020-07-17T09:46:00-07:00,6.4134299755096,4,versionC_stim.csv,JOL_SIZE_VersionD.csv,"Large vs small D","Large vs small",LONG,EXTENSION,Study2,B,96,166,JOL_Large,User,-,"How likely are you to correctly recall the second item in the pair?|Type your response on a scale from 0-100 and then press Enter.",Study/JOL,"Study Phase",5998,,,2817,4326,,,,85,1
5ee65bebdde4ef3c586e6554,q1vx70sf0i,Trevor-ex1,1,65,2020-07-17T09:46:04-07:00,4.30020403862,4,versionC_stim.csv,JOL_SIZE_VersionD.csv,"Large vs small D","Large vs small",BRAWL,FIGHT,Study2,F,135,158,JOL_Large,User,-,"How likely are you to correctly recall the second item in the pair?|Type your response on a scale from 0-100 and then press Enter.",Study/JOL,"Study Phase",3690,,,2873,2965,,,,05,1
5ee65bebdde4ef3c586e6554,q1vx70sf0i,Trevor-ex1,1,66,2020-07-17T09:46:15-07:00,10.753518104553,4,versionC_stim.csv,JOL_SIZE_VersionD.csv,"Large vs small D","Large vs small",SARDINE,FISH,Study2,F,130,121,JOL_Small,User,-,"How likely are you to correctly recall the second item in the pair?|Type your response on a scale from 0-100 and then press Enter.",Study/JOL,"Study Phase",10188,,,9366,9417,,,,30,1
5ee65bebdde4ef3c586e6554,q1vx70sf0i,Trevor-ex1,1,67,2020-07-17T09:46:21-07:00,6.2490048408508,4,versionC_stim.csv,JOL_SIZE_VersionD.csv,"Large vs small D","Large vs small",CLEAR,MOAT,Study2,U,169,107,JOL_Small,User,-,"How likely are you to correctly recall the second item in the pair?|Type your response on a scale from 0-100 and then press Enter.",Study/JOL,"Study Phase",5633,,,4832,4832,,,,0,1
5ee65bebdde4ef3c586e6554,q1vx70sf0i,Trevor-ex1,1,68,2020-07-17T09:46:25-07:00,3.2723209857941,4,versionC_stim.csv,JOL_SIZE_VersionD.csv,"Large vs small D","Large vs small",CARBON,ELEMENT,Study2,S,141,104,JOL_Small,User,-,"How likely are you to correctly recall the second item in the pair?|Type your response on a scale from 0-100 and then press Enter.",Study/JOL,"Study Phase",2577,,,1859,1860,,,,0,1
5ee65bebdde4ef3c586e6554,q1vx70sf0i,Trevor-ex1,1,69,2020-07-17T09:46:28-07:00,3.5876982212067,4,versionC_stim.csv,JOL_SIZE_VersionD.csv,"Large vs small D","Large vs small",LIE,TRUTH,Study2,S,148,136,JOL_Small,User,-,"How likely are you to correctly recall the second item in the pair?|Type your response on a scale from 0-100 and then press Enter.",Study/JOL,"Study Phase",3007,,,2194,2256,,,,20,1
5ee65bebdde4ef3c586e6554,q1vx70sf0i,Trevor-ex1,1,70,2020-07-17T09:46:32-07:00,3.4810199737549,4,versionC_stim.csv,JOL_SIZE_VersionD.csv,"Large vs small D","Large vs small",DOG,FURRY,Study2,B,102,125,JOL_Small,User,-,"How likely are you to correctly recall the second item in the pair?|Type your response on a scale from 0-100 and then press Enter.",Study/JOL,"Study Phase",2966,,,2136,2200,,,,30,1
5ee65bebdde4ef3c586e6554,q1vx70sf0i,Trevor-ex1,1,71,2020-07-17T09:46:36-07:00,4.0937979221344,4,versionC_stim.csv,JOL_SIZE_VersionD.csv,"Large vs small D","Large vs small",NAP,SLEEP,Study2,F,134,148,JOL_Large,User,-,"How likely are you to correctly recall the second item in the pair?|Type your response on a scale from 0-100 and then press Enter.",Study/JOL,"Study Phase",3490,,,2000,2733,,,,99,1
5ee65bebdde4ef3c586e6554,q1vx70sf0i,Trevor-ex1,1,72,2020-07-17T09:46:41-07:00,5.4274199008942,4,versionC_stim.csv,JOL_SIZE_VersionD.csv,"Large vs small D","Large vs small",WINDSHIELD,CAR,Study2,F,117,101,JOL_Small,User,-,"How likely are you to correctly recall the second item in the pair?|Type your response on a scale from 0-100 and then press Enter.",Study/JOL,"Study Phase",4796,,,3900,4048,,,,70,1
5ee65bebdde4ef3c586e6554,q1vx70sf0i,Trevor-ex1,1,73,2020-07-17T09:46:52-07:00,10.348486185074,4,versionC_stim.csv,JOL_SIZE_VersionD.csv,"Large vs small D","Large vs small",LEAGUE,BASEBALL,Study2,F,131,173,JOL_Large,User,-,"How likely are you to correctly recall the second item in the pair?|Type your response on a scale from 0-100 and then press Enter.",Study/JOL,"Study Phase",9744,,,4893,9006,,,,20,1
5ee65bebdde4ef3c586e6554,q1vx70sf0i,Trevor-ex1,1,74,2020-07-17T09:46:55-07:00,3.5927278995514,4,versionC_stim.csv,JOL_SIZE_VersionD.csv,"Large vs small D","Large vs small",SIGN,LOAN,Study2,U,171,133,JOL_Small,User,-,"How likely are you to correctly recall the second item in the pair?|Type your response on a scale from 0-100 and then press Enter.",Study/JOL,"Study Phase",2986,,,2129,2129,,,,0,1
5ee65bebdde4ef3c586e6554,q1vx70sf0i,Trevor-ex1,1,75,2020-07-17T09:46:59-07:00,3.2826709747314,4,versionC_stim.csv,JOL_SIZE_VersionD.csv,"Large vs small D","Large vs small",LONELY,ALONE,Study2,S,145,152,JOL_Large,User,-,"How likely are you to correctly recall the second item in the pair?|Type your response on a scale from 0-100 and then press Enter.",Study/JOL,"Study Phase",2688,,,1855,1927,,,,30,1
5ee65bebdde4ef3c586e6554,q1vx70sf0i,Trevor-ex1,1,76,2020-07-17T09:47:03-07:00,4.3832340240479,4,versionC_stim.csv,JOL_SIZE_VersionD.csv,"Large vs small D","Large vs small",PAPER,DOCUMENT,Study2,B,109,153,JOL_Large,User,-,"How likely are you to correctly recall the second item in the pair?|Type your response on a scale from 0-100 and then press Enter.",Study/JOL,"Study Phase",3862,,,1740,3118,,,,30,1
5ee65bebdde4ef3c586e6554,q1vx70sf0i,Trevor-ex1,1,77,2020-07-17T09:47:06-07:00,3.5865569114685,4,versionC_stim.csv,JOL_SIZE_VersionD.csv,"Large vs small D","Large vs small",DONKEY,MULE,Study2,B,108,114,JOL_Small,User,-,"How likely are you to correctly recall the second item in the pair?|Type your response on a scale from 0-100 and then press Enter.",Study/JOL,"Study Phase",2981,,,2239,2240,,,,0,1
5ee65bebdde4ef3c586e6554,q1vx70sf0i,Trevor-ex1,1,78,2020-07-17T09:47:11-07:00,4.5037190914154,4,versionC_stim.csv,JOL_SIZE_VersionD.csv,"Large vs small D","Large vs small",PANTHER,CAT,Study2,F,126,130,JOL_Small,User,-,"How likely are you to correctly recall the second item in the pair?|Type your response on a scale from 0-100 and then press Enter.",Study/JOL,"Study Phase",3963,,,1957,2980,,,,30,1
5ee65bebdde4ef3c586e6554,q1vx70sf0i,Trevor-ex1,1,79,2020-07-17T09:47:17-07:00,6.3448760509491,4,versionC_stim.csv,JOL_SIZE_VersionD.csv,"Large vs small D","Large vs small",TIE,SHOELACE,Study2,B,99,156,JOL_Large,User,-,"How likely are you to correctly recall the second item in the pair?|Type your response on a scale from 0-100 and then press Enter.",Study/JOL,"Study Phase",5787,,,2363,2471,,,,30,1
5ee65bebdde4ef3c586e6554,q1vx70sf0i,Trevor-ex1,1,80,2020-07-17T09:47:20-07:00,2.9723439216614,4,versionC_stim.csv,JOL_SIZE_VersionD.csv,"Large vs small D","Large vs small",FICTION,LISTEN,Study2,U,164,157,JOL_Large,User,-,"How likely are you to correctly recall the second item in the pair?|Type your response on a scale from 0-100 and then press Enter.",Study/JOL,"Study Phase",2376,,,1637,1637,,,,0,1
5ee65bebdde4ef3c586e6554,q1vx70sf0i,Trevor-ex1,1,81,2020-07-17T09:47:28-07:00,7.4760019779205,4,versionC_stim.csv,JOL_SIZE_VersionD.csv,"Large vs small D","Large vs small",ELECTION,MAZE,Study2,U,159,171,JOL_Large,User,-,"How likely are you to correctly recall the second item in the pair?|Type your response on a scale from 0-100 and then press Enter.",Study/JOL,"Study Phase",6926,,,6218,6218,,,,0,1
5ee65bebdde4ef3c586e6554,q1vx70sf0i,Trevor-ex1,1,82,2020-07-17T09:47:32-07:00,4.1978249549866,4,versionC_stim.csv,JOL_SIZE_VersionD.csv,"Large vs small D","Large vs small",TAN,SUN,Study2,S,155,140,JOL_Large,User,-,"How likely are you to correctly recall the second item in the pair?|Type your response on a scale from 0-100 and then press Enter.",Study/JOL,"Study Phase",3630,,,2755,2886,,,,60,1
5ee65bebdde4ef3c586e6554,q1vx70sf0i,Trevor-ex1,1,83,2020-07-17T09:47:36-07:00,4.3328549861908,4,versionC_stim.csv,JOL_SIZE_VersionD.csv,"Large vs small D","Large vs small",PLANT,CACTUS,Study2,B,98,118,JOL_Small,User,-,"How likely are you to correctly recall the second item in the pair?|Type your response on a scale from 0-100 and then press Enter.",Study/JOL,"Study Phase",3741,,,2492,2683,,,,30,1
5ee65bebdde4ef3c586e6554,q1vx70sf0i,Trevor-ex1,1,84,2020-07-17T09:47:39-07:00,2.9397230148315,4,versionC_stim.csv,JOL_SIZE_VersionD.csv,"Large vs small D","Large vs small",SHAKE,SHELL,Study2,U,163,172,JOL_Large,User,-,"How likely are you to correctly recall the second item in the pair?|Type your response on a scale from 0-100 and then press Enter.",Study/JOL,"Study Phase",2369,,,1636,1636,,,,0,1
5ee65bebdde4ef3c586e6554,q1vx70sf0i,Trevor-ex1,1,85,2020-07-17T09:47:43-07:00,4.0104491710663,4,versionC_stim.csv,JOL_SIZE_VersionD.csv,"Large vs small D","Large vs small",GROUND,EARTH,Study2,S,144,102,JOL_Small,User,-,"How likely are you to correctly recall the second item in the pair?|Type your response on a scale from 0-100 and then press Enter.",Study/JOL,"Study Phase",3361,,,2470,2652,,,,60,1
5ee65bebdde4ef3c586e6554,q1vx70sf0i,Trevor-ex1,1,86,2020-07-17T09:47:47-07:00,3.4835469722748,4,versionC_stim.csv,JOL_SIZE_VersionD.csv,"Large vs small D","Large vs small",STEAK,GIVE,Study2,U,158,168,JOL_Large,User,-,"How likely are you to correctly recall the second item in the pair?|Type your response on a scale from 0-100 and then press Enter.",Study/JOL,"Study Phase",2903,,,2120,2227,,,,10,1
5ee65bebdde4ef3c586e6554,q1vx70sf0i,Trevor-ex1,1,87,2020-07-17T09:47:50-07:00,3.0723130702972,4,versionC_stim.csv,JOL_SIZE_VersionD.csv,"Large vs small D","Large vs small",SCAR,MAIN,Study2,U,175,159,JOL_Large,User,-,"How likely are you to correctly recall the second item in the pair?|Type your response on a scale from 0-100 and then press Enter.",Study/JOL,"Study Phase",2507,,,1714,1806,,,,10,1
5ee65bebdde4ef3c586e6554,q1vx70sf0i,Trevor-ex1,1,88,2020-07-17T09:47:53-07:00,3.1549348831177,4,versionC_stim.csv,JOL_SIZE_VersionD.csv,"Large vs small D","Large vs small",WET,DRY,Study2,S,146,142,JOL_Large,User,-,"How likely are you to correctly recall the second item in the pair?|Type your response on a scale from 0-100 and then press Enter.",Study/JOL,"Study Phase",2630,,,1784,1951,,,,90,1
5ee65bebdde4ef3c586e6554,q1vx70sf0i,Trevor-ex1,1,89,2020-07-17T09:47:57-07:00,3.7873249053955,4,versionC_stim.csv,JOL_SIZE_VersionD.csv,"Large vs small D","Large vs small",MYSTERY,DETECTIVE,Study2,B,100,175,JOL_Large,User,-,"How likely are you to correctly recall the second item in the pair?|Type your response on a scale from 0-100 and then press Enter.",Study/JOL,"Study Phase",3227,,,2392,2551,,,,90,1
5ee65bebdde4ef3c586e6554,q1vx70sf0i,Trevor-ex1,1,90,2020-07-17T09:48:03-07:00,5.959988117218,4,versionC_stim.csv,JOL_SIZE_VersionD.csv,"Large vs small D","Large vs small",BREAKABLE,GLASS,Study2,F,127,134,JOL_Small,User,-,"How likely are you to correctly recall the second item in the pair?|Type your response on a scale from 0-100 and then press Enter.",Study/JOL,"Study Phase",5401,,,3956,4661,,,,50,1
5ee65bebdde4ef3c586e6554,q1vx70sf0i,Trevor-ex1,1,91,2020-07-17T09:48:07-07:00,3.8912110328674,4,versionC_stim.csv,JOL_SIZE_VersionD.csv,"Large vs small D","Large vs small",WEEKS,DAYS,BUFFER4,Buffer,176,177,JOL_Large,User,-,"How likely are you to correctly recall the second item in the pair?|Type your response on a scale from 0-100 and then press Enter.",Study/JOL,BUFFER2,3290,,,1580,2617,,,,95,1
5ee65bebdde4ef3c586e6554,q1vx70sf0i,Trevor-ex1,1,92,2020-07-17T09:48:09-07:00,2.8529388904572,4,versionC_stim.csv,JOL_SIZE_VersionD.csv,"Large vs small D","Large vs small",MARCH,SPRING,BUFFER4,Buffer,179,178,JOL_Large,User,-,"How likely are you to correctly recall the second item in the pair?|Type your response on a scale from 0-100 and then press Enter.",Study/JOL,BUFFER2,2266,,,1466,1619,,,,90,1
5ee65bebdde4ef3c586e6554,q1vx70sf0i,Trevor-ex1,1,93,2020-07-17T09:48:12-07:00,2.9642219543457,4,versionC_stim.csv,JOL_SIZE_VersionD.csv,"Large vs small D","Large vs small",SHED,TOOL,BUFFER4,Buffer,178,179,JOL_Small,User,-,"How likely are you to correctly recall the second item in the pair?|Type your response on a scale from 0-100 and then press Enter.",Study/JOL,BUFFER2,2433,,,1593,1743,,,,90,1
5ee65bebdde4ef3c586e6554,q1vx70sf0i,Trevor-ex1,1,94,2020-07-17T09:48:18-07:00,5.2205979824066,4,versionC_stim.csv,JOL_SIZE_VersionD.csv,"Large vs small D","Large vs small",YEAR,MONTH,BUFFER4,Buffer,177,180,JOL_Small,User,-,"How likely are you to correctly recall the second item in the pair?|Type your response on a scale from 0-100 and then press Enter.",Study/JOL,BUFFER2,4630,,,2442,3951,,,,95,1
5ee65bebdde4ef3c586e6554,q1vx70sf0i,Trevor-ex1,1,95,2020-07-17T09:48:21-07:00,3.3907480239868,4,versionC_stim.csv,JOL_SIZE_VersionD.csv,"Large vs small D","Large vs small",SPOOKY,OCTOBER,BUFFER4,Buffer,180,181,JOL_Large,User,-,"How likely are you to correctly recall the second item in the pair?|Type your response on a scale from 0-100 and then press Enter.",Study/JOL,BUFFER2,2748,,,1870,2016,,,,90,1
5ee65bebdde4ef3c586e6554,q1vx70sf0i,Trevor-ex1,1,96,2020-07-17T09:48:23-07:00,2.2779471874237,4,versionC_stim.csv,JOL_SIZE_VersionD.csv,"Large vs small D","Large vs small",,,,,,0,Instruct,User,-,"You have completed this section. Please press Enter.",Filler_Instruction,Instruct2,1569,,,-1,-1,,,,,1
5ee65bebdde4ef3c586e6554,q1vx70sf0i,Trevor-ex1,1,97,2020-07-17T09:50:24-07:00,120.59585499763,4,versionC_stim.csv,JOL_SIZE_VersionD.csv,"Large vs small D","Large vs small",,,,,,0,FreeRecall,120,120,"Please list the 50 US states in alphabetical order. The task will automatically advance to the next screen after two minutes.",,Filler1,120004,"Alabama Alaska Arizona Arkansas California Colorado Connecticut Delaware Florida Georgia Hawaii Idaho Illinois Indiana Iowa Kansas Kentucky Louisiana Maine Maryland Massachusetts Michigan Minne",0,16641,119846,0,0,,,1
5ee65bebdde4ef3c586e6554,q1vx70sf0i,Trevor-ex1,1,98,2020-07-17T09:50:36-07:00,12.400204896927,4,versionC_stim.csv,JOL_SIZE_VersionD.csv,"Large vs small D","Large vs small",,,,,,0,Instruct,-,10,"You will now be presented with the first word from each of the previously studied item pairs. Please type the missing word. If you do not know the word, you may guess or press Enter to skip forward to the next pair.",,Instruct3,11789,,,-1,-1,,,,,1
5ee65bebdde4ef3c586e6554,q1vx70sf0i,Trevor-ex1,1,99,2020-07-17T09:50:41-07:00,5.00546002388,4,versionC_stim.csv,JOL_SIZE_VersionD.csv,"Large vs small D","Large vs small",CUT,CHOP,Study2,B,107,123,Test,User,-,,Recall,Recall1,4472,Scissors,33.333333333333,1827,3638,0,0,,,1
5ee65bebdde4ef3c586e6554,q1vx70sf0i,Trevor-ex1,1,100,2020-07-17T09:50:45-07:00,4.0991449356079,4,versionC_stim.csv,JOL_SIZE_VersionD.csv,"Large vs small D","Large vs small",DOG,FURRY,Study2,B,102,125,Test,User,-,,Recall,Recall1,3515,Cat,0,1592,1874,0,0,,,1
5ee65bebdde4ef3c586e6554,q1vx70sf0i,Trevor-ex1,1,101,2020-07-17T09:50:54-07:00,8.3980650901794,4,versionC_stim.csv,JOL_SIZE_VersionD.csv,"Large vs small D","Large vs small",CARBON,ELEMENT,Study2,S,141,104,Test,User,-,,Recall,Recall1,7778,Air,0,2235,6630,0,0,,,1
5ee65bebdde4ef3c586e6554,q1vx70sf0i,Trevor-ex1,1,102,2020-07-17T09:50:57-07:00,3.2759828567505,4,versionC_stim.csv,JOL_SIZE_VersionD.csv,"Large vs small D","Large vs small",NAP,SLEEP,Study2,F,134,148,Test,User,-,,Recall,Recall1,2665,Sleep,100,1488,1853,1,1,,,1
5ee65bebdde4ef3c586e6554,q1vx70sf0i,Trevor-ex1,1,103,2020-07-17T09:51:01-07:00,3.8245551586151,4,versionC_stim.csv,JOL_SIZE_VersionD.csv,"Large vs small D","Large vs small",WET,DRY,Study2,S,146,142,Test,User,-,,Recall,Recall1,3202,Dry,100,1375,2444,1,1,,,1
5ee65bebdde4ef3c586e6554,q1vx70sf0i,Trevor-ex1,1,104,2020-07-17T09:51:12-07:00,11.020948886871,4,versionC_stim.csv,JOL_SIZE_VersionD.csv,"Large vs small D","Large vs small",ABLE,CRACKLE,Study2,U,162,145,Test,User,-,,Recall,Recall1,10502,Awake,50,8814,9693,0,0,,,1
5ee65bebdde4ef3c586e6554,q1vx70sf0i,Trevor-ex1,1,105,2020-07-17T09:51:18-07:00,6.1485071182251,4,versionC_stim.csv,JOL_SIZE_VersionD.csv,"Large vs small D","Large vs small",SHAVE,RAZOR,Study2,S,136,151,Test,User,-,,Recall,Recall1,5625,Razor,100,1548,4184,1,1,,,1
5ee65bebdde4ef3c586e6554,q1vx70sf0i,Trevor-ex1,1,106,2020-07-17T09:51:22-07:00,3.8860728740692,4,versionC_stim.csv,JOL_SIZE_VersionD.csv,"Large vs small D","Large vs small",MYSTERY,DETECTIVE,Study2,B,100,175,Test,User,-,,Recall,Recall1,3323,Detective,100,1472,2613,1,1,,,1
5ee65bebdde4ef3c586e6554,q1vx70sf0i,Trevor-ex1,1,107,2020-07-17T09:51:25-07:00,3.4845759868622,4,versionC_stim.csv,JOL_SIZE_VersionD.csv,"Large vs small D","Large vs small",DONKEY,MULE,Study2,B,108,114,Test,User,-,,Recall,Recall1,2912,Animal,40,1624,2111,0,0,,,1
5ee65bebdde4ef3c586e6554,q1vx70sf0i,Trevor-ex1,1,108,2020-07-17T09:51:29-07:00,3.2754781246185,4,versionC_stim.csv,JOL_SIZE_VersionD.csv,"Large vs small D","Large vs small",BREAKABLE,GLASS,Study2,F,127,134,Test,User,-,,Recall,Recall1,2675,Glaaa,60,1453,1990,0,0,,,1
5ee65bebdde4ef3c586e6554,q1vx70sf0i,Trevor-ex1,1,109,2020-07-17T09:51:32-07:00,3.4820790290833,4,versionC_stim.csv,JOL_SIZE_VersionD.csv,"Large vs small D","Large vs small",FICTION,LISTEN,Study2,U,164,157,Test,User,-,,Recall,Recall1,2912,Story,36.363636363636,1642,2130,0,0,,,1
5ee65bebdde4ef3c586e6554,q1vx70sf0i,Trevor-ex1,1,110,2020-07-17T09:51:36-07:00,3.5857470035553,4,versionC_stim.csv,JOL_SIZE_VersionD.csv,"Large vs small D","Large vs small",EAT,DINE,Study2,B,111,135,Test,User,-,,Recall,Recall1,3007,Drink,66.666666666667,1764,2258,0,0,,,1
5ee65bebdde4ef3c586e6554,q1vx70sf0i,Trevor-ex1,1,111,2020-07-17T09:51:41-07:00,5.6408829689026,4,versionC_stim.csv,JOL_SIZE_VersionD.csv,"Large vs small D","Large vs small",LONELY,ALONE,Study2,S,145,152,Test,User,-,,Recall,Recall1,5091,Sad,25,4006,4348,0,0,,,1
5ee65bebdde4ef3c586e6554,q1vx70sf0i,Trevor-ex1,1,112,2020-07-17T09:51:51-07:00,9.7204339504242,4,versionC_stim.csv,JOL_SIZE_VersionD.csv,"Large vs small D","Large vs small",PENGUIN,BIRD,Study2,F,119,127,Test,User,-,,Recall,Recall1,9126,Bird,100,2040,8381,1,1,,,1
5ee65bebdde4ef3c586e6554,q1vx70sf0i,Trevor-ex1,1,113,2020-07-17T09:51:58-07:00,6.4631049633026,4,versionC_stim.csv,JOL_SIZE_VersionD.csv,"Large vs small D","Large vs small",GAME,CLUE,Study2,B,97,139,Test,User,-,,Recall,Recall1,4950,Computer,50,3278,4177,0,0,,,1
5ee65bebdde4ef3c586e6554,q1vx70sf0i,Trevor-ex1,1,114,2020-07-17T09:52:02-07:00,4.0818071365356,4,versionC_stim.csv,JOL_SIZE_VersionD.csv,"Large vs small D","Large vs small",BRACELET,WRIST,Study2,S,140,146,Test,User,-,,Recall,Recall1,3448,Wrist,100,1556,2665,1,1,,,1
5ee65bebdde4ef3c586e6554,q1vx70sf0i,Trevor-ex1,1,115,2020-07-17T09:52:05-07:00,3.7916398048401,4,versionC_stim.csv,JOL_SIZE_VersionD.csv,"Large vs small D","Large vs small",REVENGE,EVEN,Study2,F,122,124,Test,User,-,,Recall,Recall1,3199,Mean,50,1926,2205,0,0,,,1
5ee65bebdde4ef3c586e6554,q1vx70sf0i,Trevor-ex1,1,116,2020-07-17T09:52:14-07:00,8.0946052074432,4,versionC_stim.csv,JOL_SIZE_VersionD.csv,"Large vs small D","Large vs small",CAR,DRIVER,Study2,B,106,174,Test,User,-,,Recall,Recall1,7412,Breaks,33.333333333333,2645,6330,0,0,,,1
5ee65bebdde4ef3c586e6554,q1vx70sf0i,Trevor-ex1,1,117,2020-07-17T09:52:21-07:00,7.0584828853607,4,versionC_stim.csv,JOL_SIZE_VersionD.csv,"Large vs small D","Large vs small",TRUTHFUL,HONEST,Study2,F,133,162,Test,User,-,,Recall,Recall1,6392,Lie,22.222222222222,2394,5624,0,0,,,1
5ee65bebdde4ef3c586e6554,q1vx70sf0i,Trevor-ex1,1,118,2020-07-17T09:52:26-07:00,5.3263330459595,4,versionC_stim.csv,JOL_SIZE_VersionD.csv,"Large vs small D","Large vs small",AWAY,GONE,Study2,S,142,170,Test,User,-,,Recall,Recall1,4783,Holiday,18.181818181818,2422,4005,0,0,,,1
5ee65bebdde4ef3c586e6554,q1vx70sf0i,Trevor-ex1,1,119,2020-07-17T09:52:32-07:00,5.6284739971161,4,versionC_stim.csv,JOL_SIZE_VersionD.csv,"Large vs small D","Large vs small",SIGN,LOAN,Study2,U,171,133,Test,User,-,,Recall,Recall1,5095,Letter,20,3595,4383,0,0,,,1
5ee65bebdde4ef3c586e6554,q1vx70sf0i,Trevor-ex1,1,120,2020-07-17T09:52:35-07:00,3.5937049388885,4,versionC_stim.csv,JOL_SIZE_VersionD.csv,"Large vs small D","Large vs small",SCISSORS,SHEARS,Study2,B,112,160,Test,User,-,,Recall,Recall1,2999,Cut,0,1669,2122,0,0,,,1
5ee65bebdde4ef3c586e6554,q1vx70sf0i,Trevor-ex1,1,121,2020-07-17T09:52:40-07:00,4.9055750370026,4,versionC_stim.csv,JOL_SIZE_VersionD.csv,"Large vs small D","Large vs small",SCAR,MAIN,Study2,U,175,159,Test,User,-,,Recall,Recall1,4294,Trauma,40,2909,3439,0,0,,,1
5ee65bebdde4ef3c586e6554,q1vx70sf0i,Trevor-ex1,1,122,2020-07-17T09:52:45-07:00,4.8171188831329,4,versionC_stim.csv,JOL_SIZE_VersionD.csv,"Large vs small D","Large vs small",OBTAIN,MEAT,Study2,U,161,176,Test,User,-,,Recall,Recall1,4198,Have,25,3137,3455,0,0,,,1
5ee65bebdde4ef3c586e6554,q1vx70sf0i,Trevor-ex1,1,123,2020-07-17T09:52:48-07:00,3.3967950344086,4,versionC_stim.csv,JOL_SIZE_VersionD.csv,"Large vs small D","Large vs small",SMELL,INCENSE,Study2,B,110,128,Test,User,-,,Recall,Recall1,2805,Sniff,16.666666666667,1653,2122,0,0,,,1
5ee65bebdde4ef3c586e6554,q1vx70sf0i,Trevor-ex1,1,124,2020-07-17T09:52:51-07:00,3.0538561344147,4,versionC_stim.csv,JOL_SIZE_VersionD.csv,"Large vs small D","Large vs small",WINDSHIELD,CAR,Study2,F,117,101,Test,User,-,,Recall,Recall1,2502,Car,100,1385,1657,1,1,,,1
5ee65bebdde4ef3c586e6554,q1vx70sf0i,Trevor-ex1,1,125,2020-07-17T09:52:57-07:00,5.9418268203735,4,versionC_stim.csv,JOL_SIZE_VersionD.csv,"Large vs small D","Large vs small",MAROON,JUSTICE,Study2,U,156,164,Test,User,-,,Recall,Recall1,5331,Purple,30.769230769231,4056,4619,0,0,,,1
5ee65bebdde4ef3c586e6554,q1vx70sf0i,Trevor-ex1,1,126,2020-07-17T09:53:00-07:00,3.0271382331848,4,versionC_stim.csv,JOL_SIZE_VersionD.csv,"Large vs small D","Large vs small",WAX,CANDLE,Study2,S,139,110,Test,User,-,,Recall,Recall1,2371,Melt,20,1310,1619,0,0,,,1
5ee65bebdde4ef3c586e6554,q1vx70sf0i,Trevor-ex1,1,127,2020-07-17T09:53:04-07:00,3.3232338428497,4,versionC_stim.csv,JOL_SIZE_VersionD.csv,"Large vs small D","Large vs small",OUNCE,BOTH,Study2,U,172,119,Test,User,-,,Recall,Recall1,2845,Gram,0,1619,2037,0,0,,,1
5ee65bebdde4ef3c586e6554,q1vx70sf0i,Trevor-ex1,1,128,2020-07-17T09:53:07-07:00,3.4931199550629,4,versionC_stim.csv,JOL_SIZE_VersionD.csv,"Large vs small D","Large vs small",THIMBLE,THREAD,Study2,F,121,155,Test,User,-,,Recall,Recall1,2911,Thumb,36.363636363636,1587,2139,0,0,,,1
5ee65bebdde4ef3c586e6554,q1vx70sf0i,Trevor-ex1,1,129,2020-07-17T09:53:10-07:00,3.2730321884155,4,versionC_stim.csv,JOL_SIZE_VersionD.csv,"Large vs small D","Large vs small",AIRCRAFT,PLANE,Study2,F,129,143,Test,User,-,,Recall,Recall1,2689,Plane,100,1478,1950,1,1,,,1
5ee65bebdde4ef3c586e6554,q1vx70sf0i,Trevor-ex1,1,130,2020-07-17T09:53:15-07:00,4.8078107833862,4,versionC_stim.csv,JOL_SIZE_VersionD.csv,"Large vs small D","Large vs small",NOISE,LOUD,Study2,S,152,122,Test,User,-,,Recall,Recall1,4220,Loud,100,1395,3477,1,1,,,1
5ee65bebdde4ef3c586e6554,q1vx70sf0i,Trevor-ex1,1,131,2020-07-17T09:53:19-07:00,3.7798202037811,4,versionC_stim.csv,JOL_SIZE_VersionD.csv,"Large vs small D","Large vs small",HATE,NAME,Study2,U,167,109,Test,User,-,,Recall,Recall1,3226,Love,25,1951,2470,0,0,,,1
5ee65bebdde4ef3c586e6554,q1vx70sf0i,Trevor-ex1,1,132,2020-07-17T09:53:23-07:00,4.0962519645691,4,versionC_stim.csv,JOL_SIZE_VersionD.csv,"Large vs small D","Large vs small",STRAWBERRY,FRUIT,Study2,F,124,147,Test,User,-,,Recall,Recall1,3473,Fruit,100,2254,2722,1,1,,,1
5ee65bebdde4ef3c586e6554,q1vx70sf0i,Trevor-ex1,1,133,2020-07-17T09:53:26-07:00,3.0069210529327,4,versionC_stim.csv,JOL_SIZE_VersionD.csv,"Large vs small D","Large vs small",COLD,CHILL,Study2,B,114,97,Test,User,-,,Recall,Recall1,2341,Hot,25,1324,1565,0,0,,,1
5ee65bebdde4ef3c586e6554,q1vx70sf0i,Trevor-ex1,1,134,2020-07-17T09:53:36-07:00,9.6922268867493,4,versionC_stim.csv,JOL_SIZE_VersionD.csv,"Large vs small D","Large vs small",HAVE,OWN,Study2,S,153,161,Test,User,-,,Recall,Recall1,9186,Want,57.142857142857,1676,8332,0,0,,,1
5ee65bebdde4ef3c586e6554,q1vx70sf0i,Trevor-ex1,1,135,2020-07-17T09:53:41-07:00,5.341001033783,4,versionC_stim.csv,JOL_SIZE_VersionD.csv,"Large vs small D","Large vs small",GROUND,EARTH,Study2,S,144,102,Test,User,-,,Recall,Recall1,4668,Earth,100,2857,3910,1,1,,,1
5ee65bebdde4ef3c586e6554,q1vx70sf0i,Trevor-ex1,1,136,2020-07-17T09:53:49-07:00,7.4800200462341,4,versionC_stim.csv,JOL_SIZE_VersionD.csv,"Large vs small D","Large vs small",TAN,SUN,Study2,S,155,140,Test,User,-,,Recall,Recall1,6938,Sun,100,4617,6098,1,1,,,1
5ee65bebdde4ef3c586e6554,q1vx70sf0i,Trevor-ex1,1,137,2020-07-17T09:53:55-07:00,6.0400948524475,4,versionC_stim.csv,JOL_SIZE_VersionD.csv,"Large vs small D","Large vs small",BALLOON,POP,Study2,F,123,103,Test,User,-,,Recall,Recall1,5493,Sky,0,1797,4738,0,0,,,1
5ee65bebdde4ef3c586e6554,q1vx70sf0i,Trevor-ex1,1,138,2020-07-17T09:53:59-07:00,3.9708800315857,4,versionC_stim.csv,JOL_SIZE_VersionD.csv,"Large vs small D","Large vs small",LONG,EXTENSION,Study2,B,96,166,Test,User,-,,Recall,Recall1,3376,Short,28.571428571429,1309,1822,0,0,,,1
5ee65bebdde4ef3c586e6554,q1vx70sf0i,Trevor-ex1,1,139,2020-07-17T09:54:02-07:00,3.1840260028839,4,versionC_stim.csv,JOL_SIZE_VersionD.csv,"Large vs small D","Large vs small",COFFIN,DEAD,Study2,F,128,167,Test,User,-,,Recall,Recall1,2632,Death,66.666666666667,1365,1875,0,0,,,1
5ee65bebdde4ef3c586e6554,q1vx70sf0i,Trevor-ex1,1,140,2020-07-17T09:54:06-07:00,3.677237033844,4,versionC_stim.csv,JOL_SIZE_VersionD.csv,"Large vs small D","Large vs small",TRASH,LITTER,Study2,B,103,126,Test,User,-,,Recall,Recall1,3096,Rubbish,15.384615384615,1599,2306,0,0,,,1
5ee65bebdde4ef3c586e6554,q1vx70sf0i,Trevor-ex1,1,141,2020-07-17T09:54:10-07:00,4.407222032547,4,versionC_stim.csv,JOL_SIZE_VersionD.csv,"Large vs small D","Large vs small",JOKE,KEYS,Study2,U,165,141,Test,User,-,,Recall,Recall1,2832,Laugh,0,1563,2066,0,0,,,1
5ee65bebdde4ef3c586e6554,q1vx70sf0i,Trevor-ex1,1,142,2020-07-17T09:54:14-07:00,3.7872178554535,4,versionC_stim.csv,JOL_SIZE_VersionD.csv,"Large vs small D","Large vs small",VILLAIN,BAD,Study2,F,118,99,Test,User,-,,Recall,Recall1,3272,Hero,0,1934,2489,0,0,,,1
5ee65bebdde4ef3c586e6554,q1vx70sf0i,Trevor-ex1,1,143,2020-07-17T09:54:17-07:00,3.5830180644989,4,versionC_stim.csv,JOL_SIZE_VersionD.csv,"Large vs small D","Large vs small",CLEAR,MOAT,Study2,U,169,107,Test,User,-,,Recall,Recall1,2902,Clean,22.222222222222,1634,2066,0,0,,,1
5ee65bebdde4ef3c586e6554,q1vx70sf0i,Trevor-ex1,1,144,2020-07-17T09:54:21-07:00,4.0946979522705,4,versionC_stim.csv,JOL_SIZE_VersionD.csv,"Large vs small D","Large vs small",TOIL,LEASE,Study2,U,170,113,Test,User,-,,Recall,Recall1,3586,Foil,22.222222222222,2503,2862,0,0,,,1
5ee65bebdde4ef3c586e6554,q1vx70sf0i,Trevor-ex1,1,145,2020-07-17T09:54:26-07:00,4.882395029068,4,versionC_stim.csv,JOL_SIZE_VersionD.csv,"Large vs small D","Large vs small",FLIP,TURN,Study2,F,116,105,Test,User,-,,Recall,Recall1,4019,Upside,20,2702,3339,0,0,,,1
5ee65bebdde4ef3c586e6554,q1vx70sf0i,Trevor-ex1,1,146,2020-07-17T09:54:30-07:00,3.4122371673584,4,versionC_stim.csv,JOL_SIZE_VersionD.csv,"Large vs small D","Large vs small",LEAGUE,BASEBALL,Study2,F,131,173,Test,User,-,,Recall,Recall1,2842,Football,50,1369,2109,0,0,,,1
5ee65bebdde4ef3c586e6554,q1vx70sf0i,Trevor-ex1,1,147,2020-07-17T09:54:34-07:00,3.8914158344269,4,versionC_stim.csv,JOL_SIZE_VersionD.csv,"Large vs small D","Large vs small",BANG,FUZZY,Study2,U,168,112,Test,User,-,,Recall,Recall1,3286,Loud,22.222222222222,1260,2221,0,0,,,1
5ee65bebdde4ef3c586e6554,q1vx70sf0i,Trevor-ex1,1,148,2020-07-17T09:54:38-07:00,4.4105889797211,4,versionC_stim.csv,JOL_SIZE_VersionD.csv,"Large vs small D","Large vs small",TICK,FLEA,Study2,S,151,117,Test,User,-,,Recall,Recall1,2733,Flea,100,1624,2006,1,1,,,1
5ee65bebdde4ef3c586e6554,q1vx70sf0i,Trevor-ex1,1,149,2020-07-17T09:54:41-07:00,3.2676320075989,4,versionC_stim.csv,JOL_SIZE_VersionD.csv,"Large vs small D","Large vs small",SEATBELT,SAFETY,Study2,S,147,150,Test,User,-,,Recall,Recall1,2592,Car,22.222222222222,1496,1816,0,0,,,1
5ee65bebdde4ef3c586e6554,q1vx70sf0i,Trevor-ex1,1,150,2020-07-17T09:54:45-07:00,4.1061191558838,4,versionC_stim.csv,JOL_SIZE_VersionD.csv,"Large vs small D","Large vs small",CLOTH,STRETCH,Study2,U,157,129,Test,User,-,,Recall,Recall1,3587,Material,26.666666666667,1288,2055,0,0,,,1
5ee65bebdde4ef3c586e6554,q1vx70sf0i,Trevor-ex1,1,151,2020-07-17T09:54:49-07:00,3.1683149337769,4,versionC_stim.csv,JOL_SIZE_VersionD.csv,"Large vs small D","Large vs small",BANKER,MONEY,Study2,F,132,138,Test,User,-,,Recall,Recall1,2600,Money,100,1355,1817,1,1,,,1
5ee65bebdde4ef3c586e6554,q1vx70sf0i,Trevor-ex1,1,152,2020-07-17T09:54:52-07:00,3.4805059432983,4,versionC_stim.csv,JOL_SIZE_VersionD.csv,"Large vs small D","Large vs small",COMMUNICATION,PHONE,Study2,S,149,116,Test,User,-,,Recall,Recall1,2892,Talk,0,1723,2094,0,0,,,1
5ee65bebdde4ef3c586e6554,q1vx70sf0i,Trevor-ex1,1,153,2020-07-17T09:54:58-07:00,5.8365261554718,4,versionC_stim.csv,JOL_SIZE_VersionD.csv,"Large vs small D","Large vs small",EQUAL,RIGHTS,Study2,S,137,154,Test,User,-,,Recall,Recall1,5214,Math,20,4096,4438,0,0,,,1
5ee65bebdde4ef3c586e6554,q1vx70sf0i,Trevor-ex1,1,154,2020-07-17T09:55:02-07:00,4.1981768608093,4,versionC_stim.csv,JOL_SIZE_VersionD.csv,"Large vs small D","Large vs small",CHARM,VEHICLE,Study2,U,160,165,Test,User,-,,Recall,Recall1,3626,"Bracelet ",40,1458,2808,0,0,,,1
5ee65bebdde4ef3c586e6554,q1vx70sf0i,Trevor-ex1,1,155,2020-07-17T09:55:06-07:00,4.0969450473785,4,versionC_stim.csv,JOL_SIZE_VersionD.csv,"Large vs small D","Large vs small",HEAD,SCALP,Study2,B,105,108,Test,User,-,,Recall,Recall1,3533,Brain,20,2123,2604,0,0,,,1
5ee65bebdde4ef3c586e6554,q1vx70sf0i,Trevor-ex1,1,156,2020-07-17T09:55:10-07:00,3.9943830966949,4,versionC_stim.csv,JOL_SIZE_VersionD.csv,"Large vs small D","Large vs small",SHAKE,SHELL,Study2,U,163,172,Test,User,-,,Recall,Recall1,3358,Stir,22.222222222222,2115,2565,0,0,,,1
5ee65bebdde4ef3c586e6554,q1vx70sf0i,Trevor-ex1,1,157,2020-07-17T09:55:13-07:00,3.2761929035187,4,versionC_stim.csv,JOL_SIZE_VersionD.csv,"Large vs small D","Large vs small",LIE,TRUTH,Study2,S,148,136,Test,User,-,,Recall,Recall1,2656,Truth,100,1493,1916,1,1,,,1
5ee65bebdde4ef3c586e6554,q1vx70sf0i,Trevor-ex1,1,158,2020-07-17T09:55:18-07:00,4.4032719135284,4,versionC_stim.csv,JOL_SIZE_VersionD.csv,"Large vs small D","Large vs small",CHILDREN,MIRROR,Study2,U,174,106,Test,User,-,,Recall,Recall1,3827,Young,18.181818181818,2159,2716,0,0,,,1
5ee65bebdde4ef3c586e6554,q1vx70sf0i,Trevor-ex1,1,159,2020-07-17T09:55:22-07:00,4.4971871376038,4,versionC_stim.csv,JOL_SIZE_VersionD.csv,"Large vs small D","Large vs small",TIE,SHOELACE,Study2,B,99,156,Test,User,-,,Recall,Recall1,3733,Bow,18.181818181818,2158,3068,0,0,,,1
5ee65bebdde4ef3c586e6554,q1vx70sf0i,Trevor-ex1,1,160,2020-07-17T09:55:27-07:00,4.5151958465576,4,versionC_stim.csv,JOL_SIZE_VersionD.csv,"Large vs small D","Large vs small",PAPER,DOCUMENT,Study2,B,109,153,Test,User,-,,Recall,Recall1,3892,Scissors,12.5,1400,2940,0,0,,,1
5ee65bebdde4ef3c586e6554,q1vx70sf0i,Trevor-ex1,1,161,2020-07-17T09:55:30-07:00,3.2753601074219,4,versionC_stim.csv,JOL_SIZE_VersionD.csv,"Large vs small D","Large vs small",BRAWL,FIGHT,Study2,F,135,158,Test,User,-,,Recall,Recall1,2620,Cut,25,1617,1888,0,0,,,1
5ee65bebdde4ef3c586e6554,q1vx70sf0i,Trevor-ex1,1,162,2020-07-17T09:55:34-07:00,3.8923089504242,4,versionC_stim.csv,JOL_SIZE_VersionD.csv,"Large vs small D","Large vs small",PLANT,CACTUS,Study2,B,98,118,Test,User,-,,Recall,Recall1,3306,Cactus,100,1921,2603,1,1,,,1
5ee65bebdde4ef3c586e6554,q1vx70sf0i,Trevor-ex1,1,163,2020-07-17T09:55:41-07:00,6.7629549503326,4,versionC_stim.csv,JOL_SIZE_VersionD.csv,"Large vs small D","Large vs small",ELECTION,MAZE,Study2,U,159,171,Test,User,-,,Recall,Recall1,6065,Vote,25,2053,5254,0,0,,,1
5ee65bebdde4ef3c586e6554,q1vx70sf0i,Trevor-ex1,1,164,2020-07-17T09:55:44-07:00,3.2706379890442,4,versionC_stim.csv,JOL_SIZE_VersionD.csv,"Large vs small D","Large vs small",TEMPER,TANTRUM,Study2,S,154,144,Test,User,-,,Recall,Recall1,2743,Bad,20,1524,1843,0,0,,,1
5ee65bebdde4ef3c586e6554,q1vx70sf0i,Trevor-ex1,1,165,2020-07-17T09:55:47-07:00,3.1119680404663,4,versionC_stim.csv,JOL_SIZE_VersionD.csv,"Large vs small D","Large vs small",STEAK,GIVE,Study2,U,158,168,Test,User,-,,Recall,Recall1,2470,Food,0,1511,1749,0,0,,,1
5ee65bebdde4ef3c586e6554,q1vx70sf0i,Trevor-ex1,1,166,2020-07-17T09:55:52-07:00,4.5327141284943,4,versionC_stim.csv,JOL_SIZE_VersionD.csv,"Large vs small D","Large vs small",PANTHER,CAT,Study2,F,126,130,Test,User,-,,Recall,Recall1,3960,Pink,0,1592,3136,0,0,,,1
5ee65bebdde4ef3c586e6554,q1vx70sf0i,Trevor-ex1,1,167,2020-07-17T09:55:55-07:00,3.4156079292297,4,versionC_stim.csv,JOL_SIZE_VersionD.csv,"Large vs small D","Large vs small",SARDINE,FISH,Study2,F,130,121,Test,User,-,,Recall,Recall1,2819,Fish,100,1742,2068,1,1,,,1
5ee65bebdde4ef3c586e6554,q1vx70sf0i,Trevor-ex1,1,168,2020-07-17T09:55:58-07:00,3.3583190441132,4,versionC_stim.csv,JOL_SIZE_VersionD.csv,"Large vs small D","Large vs small",DRINK,WATER,Study2,S,143,115,Test,User,-,,Recall,Recall1,2859,Cold,0,1407,2018,0,0,,,1
5ee65bebdde4ef3c586e6554,q1vx70sf0i,Trevor-ex1,1,169,2020-07-17T09:56:02-07:00,3.5029170513153,4,versionC_stim.csv,JOL_SIZE_VersionD.csv,"Large vs small D","Large vs small",LOVE,AFFECTION,Study2,B,115,149,Test,User,-,,Recall,Recall1,3020,Heart,28.571428571429,1811,2280,0,0,,,1
5ee65bebdde4ef3c586e6554,q1vx70sf0i,Trevor-ex1,1,170,2020-07-17T09:56:06-07:00,4.4084630012512,4,versionC_stim.csv,JOL_SIZE_VersionD.csv,"Large vs small D","Large vs small",ACTRESS,STAR,Study2,F,120,163,Test,User,-,,Recall,Recall1,3710,Actor,44.444444444444,1384,2742,0,0,,,1
5ee65bebdde4ef3c586e6554,q1vx70sf0i,Trevor-ex1,1,171,2020-07-17T09:56:11-07:00,4.9095268249512,4,versionC_stim.csv,JOL_SIZE_VersionD.csv,"Large vs small D","Large vs small",FAVORITE,BEST,Study2,F,125,132,Test,User,-,,Recall,Recall1,4311,Love,25,1694,3331,0,0,,,1
5ee65bebdde4ef3c586e6554,q1vx70sf0i,Trevor-ex1,1,172,2020-07-17T09:56:15-07:00,3.8981029987335,4,versionC_stim.csv,JOL_SIZE_VersionD.csv,"Large vs small D","Large vs small",RED,CHERRY,Study2,B,104,100,Test,User,-,,Recall,Recall1,3283,Valentine,13.333333333333,1681,2595,0,0,,,1
5ee65bebdde4ef3c586e6554,q1vx70sf0i,Trevor-ex1,1,173,2020-07-17T09:56:20-07:00,4.8064019680023,4,versionC_stim.csv,JOL_SIZE_VersionD.csv,"Large vs small D","Large vs small",JAR,MASON,Study2,S,138,98,Test,User,-,,Recall,Recall1,4262,Glass,40,3005,3554,0,0,,,1
5ee65bebdde4ef3c586e6554,q1vx70sf0i,Trevor-ex1,1,174,2020-07-17T09:56:24-07:00,3.8741481304169,4,versionC_stim.csv,JOL_SIZE_VersionD.csv,"Large vs small D","Large vs small",REEL,ROD,Study2,S,150,120,Test,User,-,,Recall,Recall1,3001,Circle,22.222222222222,1814,2349,0,0,,,1
5ee65bebdde4ef3c586e6554,q1vx70sf0i,Trevor-ex1,1,175,2020-07-17T09:56:27-07:00,3.0908958911896,4,versionC_stim.csv,JOL_SIZE_VersionD.csv,"Large vs small D","Large vs small",MORNING,TEMPERATURE,Study2,U,173,111,Test,User,-,,Recall,Recall1,2482,Night,12.5,1196,1690,0,0,,,1
5ee65bebdde4ef3c586e6554,q1vx70sf0i,Trevor-ex1,1,176,2020-07-17T09:56:32-07:00,5.4261431694031,4,versionC_stim.csv,JOL_SIZE_VersionD.csv,"Large vs small D","Large vs small",END,ADJOURN,Study2,B,101,131,Test,User,-,,Recall,Recall1,4823,Beginning,12.5,1705,4047,0,0,,,1
5ee65bebdde4ef3c586e6554,q1vx70sf0i,Trevor-ex1,1,177,2020-07-17T09:56:36-07:00,4.0057408809662,4,versionC_stim.csv,JOL_SIZE_VersionD.csv,"Large vs small D","Large vs small",FIGHT,FEUD,Study2,B,113,169,Test,User,-,,Recall,Recall1,3244,"Make up",36.363636363636,1938,2534,0,0,,,1
5ee65bebdde4ef3c586e6554,q1vx70sf0i,Trevor-ex1,1,178,2020-07-17T09:56:40-07:00,3.2851309776306,4,versionC_stim.csv,JOL_SIZE_VersionD.csv,"Large vs small D","Large vs small",CLOTHES,CAKE,Study2,U,166,137,Test,User,-,,Recall,Recall1,2704,Body,0,1679,1985,0,0,,,1
5ee65bebdde4ef3c586e6554,q1vx70sf0i,Trevor-ex1,1,179,2020-07-17T09:56:52-07:00,11.971723079681,4,versionC_stim.csv,JOL_SIZE_VersionD.csv,"Large vs small D","Large vs small",,,,,,0,Instruct,-,10,"You will now be presented with a new set of word pairs. Please study each pair. Remember that your memory will be tested! When finished, press Enter to move to the next pair.",Initial_Instruct,Instruct4,11404,,,-1,-1,,,,,1
5ee65bebdde4ef3c586e6554,q1vx70sf0i,Trevor-ex1,1,180,2020-07-17T09:57:04-07:00,12.686945915222,4,versionC_stim.csv,JOL_SIZE_VersionD.csv,"Large vs small D","Large vs small",,,,,,0,Instruct,,10,"You will again be asked to rate your ability to remember these items using a 0 to 100 scale. Remember to use the full range of the scale!",,Instruct10,12156,,,-1,-1,,,,,1
5ee65bebdde4ef3c586e6554,q1vx70sf0i,Trevor-ex1,1,181,2020-07-17T09:57:06-07:00,1.9507620334625,4,versionC_stim.csv,JOL_SIZE_VersionD.csv,"Large vs small D","Large vs small",,,,,,0,Instruct,User,-,"Press Enter when you are readty to begin",,Instruct11,1370,,,-1,-1,,,,,1
5ee65bebdde4ef3c586e6554,q1vx70sf0i,Trevor-ex1,1,182,2020-07-17T09:57:13-07:00,6.677540063858,4,versionC_stim.csv,JOL_SIZE_VersionD.csv,"Large vs small D","Large vs small",HIDE,SCARE,BUFFER1,Buffer,4,2,JOL_Small,User,-,"How likely are you to correctly recall the second item in the pair?|Type your response on a scale from 0-100 and then press Enter.",Study/JOL,BUFFER3,6132,,,5164,5297,,,,30,1
5ee65bebdde4ef3c586e6554,q1vx70sf0i,Trevor-ex1,1,183,2020-07-17T09:57:19-07:00,6.0443248748779,4,versionC_stim.csv,JOL_SIZE_VersionD.csv,"Large vs small D","Large vs small",GREEN,TREES,BUFFER1,Buffer,1,5,JOL_Large,User,-,"How likely are you to correctly recall the second item in the pair?|Type your response on a scale from 0-100 and then press Enter.",Study/JOL,BUFFER3,5441,,,2777,2970,,,,80,1
5ee65bebdde4ef3c586e6554,q1vx70sf0i,Trevor-ex1,1,184,2020-07-17T09:57:24-07:00,5.2937090396881,4,versionC_stim.csv,JOL_SIZE_VersionD.csv,"Large vs small D","Large vs small",JAM,SPACE,BUFFER1,Buffer,5,3,JOL_Small,User,-,"How likely are you to correctly recall the second item in the pair?|Type your response on a scale from 0-100 and then press Enter.",Study/JOL,BUFFER3,3688,,,2805,2805,,,,0,1
5ee65bebdde4ef3c586e6554,q1vx70sf0i,Trevor-ex1,1,185,2020-07-17T09:57:28-07:00,3.8946650028229,4,versionC_stim.csv,JOL_SIZE_VersionD.csv,"Large vs small D","Large vs small",CATCHER,BASEBALL,BUFFER1,Buffer,2,6,JOL_Large,User,-,"How likely are you to correctly recall the second item in the pair?|Type your response on a scale from 0-100 and then press Enter.",Study/JOL,BUFFER3,3338,,,2380,2487,,,,30,1
5ee65bebdde4ef3c586e6554,q1vx70sf0i,Trevor-ex1,1,186,2020-07-17T09:57:33-07:00,4.7075719833374,4,versionC_stim.csv,JOL_SIZE_VersionD.csv,"Large vs small D","Large vs small",BUTTER,PEANUT,BUFFER1,Buffer,3,4,JOL_Small,User,-,"How likely are you to correctly recall the second item in the pair?|Type your response on a scale from 0-100 and then press Enter.",Study/JOL,BUFFER3,4083,,,3092,3274,,,,80,1
5ee65bebdde4ef3c586e6554,q1vx70sf0i,Trevor-ex1,1,187,2020-07-17T09:57:37-07:00,4.2004451751709,4,versionC_stim.csv,JOL_SIZE_VersionD.csv,"Large vs small D","Large vs small",SEIZE,TAKE,Study1,F,29,26,JOL_Small,User,-,"How likely are you to correctly recall the second item in the pair?|Type your response on a scale from 0-100 and then press Enter.",Study/JOL,"Study Phase2",3622,,,2563,2669,,,,20,1
5ee65bebdde4ef3c586e6554,q1vx70sf0i,Trevor-ex1,1,188,2020-07-17T09:57:41-07:00,4.1955277919769,4,versionC_stim.csv,JOL_SIZE_VersionD.csv,"Large vs small D","Large vs small",BEE,HONEY,Study1,S,63,41,JOL_Small,User,-,"How likely are you to correctly recall the second item in the pair?|Type your response on a scale from 0-100 and then press Enter.",Study/JOL,"Study Phase2",3671,,,2172,2872,,,,100,1
5ee65bebdde4ef3c586e6554,q1vx70sf0i,Trevor-ex1,1,189,2020-07-17T09:57:45-07:00,4.1991231441498,4,versionC_stim.csv,JOL_SIZE_VersionD.csv,"Large vs small D","Large vs small",SIGHT,DEBATE,Study1,U,73,31,JOL_Small,User,-,"How likely are you to correctly recall the second item in the pair?|Type your response on a scale from 0-100 and then press Enter.",Study/JOL,"Study Phase2",3379,,,2545,2603,,,,30,1
5ee65bebdde4ef3c586e6554,q1vx70sf0i,Trevor-ex1,1,190,2020-07-17T09:57:49-07:00,3.3821420669556,4,versionC_stim.csv,JOL_SIZE_VersionD.csv,"Large vs small D","Large vs small",FANTASTIC,GREAT,Study1,F,35,8,JOL_Small,User,-,"How likely are you to correctly recall the second item in the pair?|Type your response on a scale from 0-100 and then press Enter.",Study/JOL,"Study Phase2",2715,,,1869,1931,,,,50,1
5ee65bebdde4ef3c586e6554,q1vx70sf0i,Trevor-ex1,1,191,2020-07-17T09:57:52-07:00,3.1763157844543,4,versionC_stim.csv,JOL_SIZE_VersionD.csv,"Large vs small D","Large vs small",SIP,DRINK,Study1,F,27,85,JOL_Large,User,-,"How likely are you to correctly recall the second item in the pair?|Type your response on a scale from 0-100 and then press Enter.",Study/JOL,"Study Phase2",2549,,,1597,1789,,,,80,1
5ee65bebdde4ef3c586e6554,q1vx70sf0i,Trevor-ex1,1,192,2020-07-17T09:57:55-07:00,3.2013781070709,4,versionC_stim.csv,JOL_SIZE_VersionD.csv,"Large vs small D","Large vs small",RIDDLE,SUGAR,Study1,U,81,65,JOL_Large,User,-,"How likely are you to correctly recall the second item in the pair?|Type your response on a scale from 0-100 and then press Enter.",Study/JOL,"Study Phase2",2625,,,1808,1907,,,,10,1
5ee65bebdde4ef3c586e6554,q1vx70sf0i,Trevor-ex1,1,193,2020-07-17T09:57:58-07:00,3.248960018158,4,versionC_stim.csv,JOL_SIZE_VersionD.csv,"Large vs small D","Large vs small",SICK,HIDE,Study1,U,84,12,JOL_Small,User,-,"How likely are you to correctly recall the second item in the pair?|Type your response on a scale from 0-100 and then press Enter.",Study/JOL,"Study Phase2",2687,,,1745,1836,,,,40,1
5ee65bebdde4ef3c586e6554,q1vx70sf0i,Trevor-ex1,1,194,2020-07-17T09:58:03-07:00,4.4021689891815,4,versionC_stim.csv,JOL_SIZE_VersionD.csv,"Large vs small D","Large vs small",ROUND,CIRCLE,Study1,S,65,13,JOL_Small,User,-,"How likely are you to correctly recall the second item in the pair?|Type your response on a scale from 0-100 and then press Enter.",Study/JOL,"Study Phase2",3696,,,2797,2996,,,,70,1
5ee65bebdde4ef3c586e6554,q1vx70sf0i,Trevor-ex1,1,195,2020-07-17T09:58:09-07:00,6.0389709472656,4,versionC_stim.csv,JOL_SIZE_VersionD.csv,"Large vs small D","Large vs small",WOULD,CASH,Study1,U,83,11,JOL_Small,User,-,"How likely are you to correctly recall the second item in the pair?|Type your response on a scale from 0-100 and then press Enter.",Study/JOL,"Study Phase2",5370,,,1677,4563,,,,10,1
5ee65bebdde4ef3c586e6554,q1vx70sf0i,Trevor-ex1,1,196,2020-07-17T09:58:13-07:00,3.7031950950623,4,versionC_stim.csv,JOL_SIZE_VersionD.csv,"Large vs small D","Large vs small",LATCH,KEY,Study1,F,36,51,JOL_Large,User,-,"How likely are you to correctly recall the second item in the pair?|Type your response on a scale from 0-100 and then press Enter.",Study/JOL,"Study Phase2",3073,,,1683,2290,,,,10,1
5ee65bebdde4ef3c586e6554,q1vx70sf0i,Trevor-ex1,1,197,2020-07-17T09:58:16-07:00,3.6097400188446,4,versionC_stim.csv,JOL_SIZE_VersionD.csv,"Large vs small D","Large vs small",STOMACH,DIGESTION,Study1,B,7,17,JOL_Small,User,-,"How likely are you to correctly recall the second item in the pair?|Type your response on a scale from 0-100 and then press Enter.",Study/JOL,"Study Phase2",3031,,,2174,2274,,,,50,1
5ee65bebdde4ef3c586e6554,q1vx70sf0i,Trevor-ex1,1,198,2020-07-17T09:58:21-07:00,4.8753819465637,4,versionC_stim.csv,JOL_SIZE_VersionD.csv,"Large vs small D","Large vs small",BRONZE,ARTERY,Study1,U,74,20,JOL_Small,User,-,"How likely are you to correctly recall the second item in the pair?|Type your response on a scale from 0-100 and then press Enter.",Study/JOL,"Study Phase2",3334,,,1908,2568,,,,0,1
5ee65bebdde4ef3c586e6554,q1vx70sf0i,Trevor-ex1,1,199,2020-07-17T09:58:26-07:00,4.7138679027557,4,versionC_stim.csv,JOL_SIZE_VersionD.csv,"Large vs small D","Large vs small",FAMINE,HUNGER,Study1,F,40,29,JOL_Small,User,-,"How likely are you to correctly recall the second item in the pair?|Type your response on a scale from 0-100 and then press Enter.",Study/JOL,"Study Phase2",4083,,,3294,3355,,,,10,1
5ee65bebdde4ef3c586e6554,q1vx70sf0i,Trevor-ex1,1,200,2020-07-17T09:58:29-07:00,3.3112511634827,4,versionC_stim.csv,JOL_SIZE_VersionD.csv,"Large vs small D","Large vs small",ATTORNEY,LAW,Study1,F,34,77,JOL_Large,User,-,"How likely are you to correctly recall the second item in the pair?|Type your response on a scale from 0-100 and then press Enter.",Study/JOL,"Study Phase2",2675,,,1706,1875,,,,90,1
5ee65bebdde4ef3c586e6554,q1vx70sf0i,Trevor-ex1,1,201,2020-07-17T09:58:32-07:00,3.2368719577789,4,versionC_stim.csv,JOL_SIZE_VersionD.csv,"Large vs small D","Large vs small",SACKING,DIETARY,Study1,U,67,47,JOL_Large,User,-,"How likely are you to correctly recall the second item in the pair?|Type your response on a scale from 0-100 and then press Enter.",Study/JOL,"Study Phase2",2706,,,1815,1907,,,,10,1
5ee65bebdde4ef3c586e6554,q1vx70sf0i,Trevor-ex1,1,202,2020-07-17T09:58:36-07:00,3.4822678565979,4,versionC_stim.csv,JOL_SIZE_VersionD.csv,"Large vs small D","Large vs small",OUT,WAY,Study1,B,16,30,JOL_Small,User,-,"How likely are you to correctly recall the second item in the pair?|Type your response on a scale from 0-100 and then press Enter.",Study/JOL,"Study Phase2",2927,,,2114,2149,,,,10,1
5ee65bebdde4ef3c586e6554,q1vx70sf0i,Trevor-ex1,1,203,2020-07-17T09:58:41-07:00,4.6546640396118,4,versionC_stim.csv,JOL_SIZE_VersionD.csv,"Large vs small D","Large vs small",LION,ART,Study1,U,79,50,JOL_Large,User,-,"How likely are you to correctly recall the second item in the pair?|Type your response on a scale from 0-100 and then press Enter.",Study/JOL,"Study Phase2",3900,,,1784,3132,,,,0,1
5ee65bebdde4ef3c586e6554,q1vx70sf0i,Trevor-ex1,1,204,2020-07-17T09:58:44-07:00,3.5359189510345,4,versionC_stim.csv,JOL_SIZE_VersionD.csv,"Large vs small D","Large vs small",FOOT,SHOE,Study1,S,60,18,JOL_Small,User,-,"How likely are you to correctly recall the second item in the pair?|Type your response on a scale from 0-100 and then press Enter.",Study/JOL,"Study Phase2",2925,,,2034,2168,,,,99,1
5ee65bebdde4ef3c586e6554,q1vx70sf0i,Trevor-ex1,1,205,2020-07-17T09:58:48-07:00,3.4810202121735,4,versionC_stim.csv,JOL_SIZE_VersionD.csv,"Large vs small D","Large vs small",HUNGRY,PARK,Study1,U,68,42,JOL_Small,User,-,"How likely are you to correctly recall the second item in the pair?|Type your response on a scale from 0-100 and then press Enter.",Study/JOL,"Study Phase2",2954,,,2181,2181,,,,0,1
5ee65bebdde4ef3c586e6554,q1vx70sf0i,Trevor-ex1,1,206,2020-07-17T09:58:53-07:00,5.655464887619,4,versionC_stim.csv,JOL_SIZE_VersionD.csv,"Large vs small D","Large vs small",CAVE,DARK,Study1,F,28,79,JOL_Large,User,-,"How likely are you to correctly recall the second item in the pair?|Type your response on a scale from 0-100 and then press Enter.",Study/JOL,"Study Phase2",5059,,,2313,2497,,,,70,1
5ee65bebdde4ef3c586e6554,q1vx70sf0i,Trevor-ex1,1,207,2020-07-17T09:58:59-07:00,5.5085880756378,4,versionC_stim.csv,JOL_SIZE_VersionD.csv,"Large vs small D","Large vs small",TALK,DISCUSSION,Study1,B,21,9,JOL_Small,User,-,"How likely are you to correctly recall the second item in the pair?|Type your response on a scale from 0-100 and then press Enter.",Study/JOL,"Study Phase2",4967,,,3996,4185,,,,80,1
5ee65bebdde4ef3c586e6554,q1vx70sf0i,Trevor-ex1,1,208,2020-07-17T09:59:03-07:00,4.8135688304901,4,versionC_stim.csv,JOL_SIZE_VersionD.csv,"Large vs small D","Large vs small",WOMAN,LIFT,Study1,U,69,48,JOL_Large,User,-,"How likely are you to correctly recall the second item in the pair?|Type your response on a scale from 0-100 and then press Enter.",Study/JOL,"Study Phase2",4232,,,2468,2642,,,,80,1
5ee65bebdde4ef3c586e6554,q1vx70sf0i,Trevor-ex1,1,209,2020-07-17T09:59:09-07:00,5.5509071350098,4,versionC_stim.csv,JOL_SIZE_VersionD.csv,"Large vs small D","Large vs small",GROWTH,HEIGHT,Study1,F,30,14,JOL_Small,User,-,"How likely are you to correctly recall the second item in the pair?|Type your response on a scale from 0-100 and then press Enter.",Study/JOL,"Study Phase2",4929,,,3286,4020,,,,95,1
5ee65bebdde4ef3c586e6554,q1vx70sf0i,Trevor-ex1,1,210,2020-07-17T09:59:14-07:00,5.1145639419556,4,versionC_stim.csv,JOL_SIZE_VersionD.csv,"Large vs small D","Large vs small",BAD,DELINQUENT,Study1,B,6,35,JOL_Small,User,-,"How likely are you to correctly recall the second item in the pair?|Type your response on a scale from 0-100 and then press Enter.",Study/JOL,"Study Phase2",4547,,,2898,3829,,,,10,1
5ee65bebdde4ef3c586e6554,q1vx70sf0i,Trevor-ex1,1,211,2020-07-17T09:59:18-07:00,3.3656470775604,4,versionC_stim.csv,JOL_SIZE_VersionD.csv,"Large vs small D","Large vs small",WORD,SENTENCE,Study1,F,31,21,JOL_Small,User,-,"How likely are you to correctly recall the second item in the pair?|Type your response on a scale from 0-100 and then press Enter.",Study/JOL,"Study Phase2",2814,,,1947,2047,,,,40,1
5ee65bebdde4ef3c586e6554,q1vx70sf0i,Trevor-ex1,1,212,2020-07-17T09:59:22-07:00,4.1671969890594,4,versionC_stim.csv,JOL_SIZE_VersionD.csv,"Large vs small D","Large vs small",DESIGN,ARCHITECTURE,Study1,S,51,19,JOL_Small,User,-,"How likely are you to correctly recall the second item in the pair?|Type your response on a scale from 0-100 and then press Enter.",Study/JOL,"Study Phase2",3673,,,2672,2839,,,,80,1
5ee65bebdde4ef3c586e6554,q1vx70sf0i,Trevor-ex1,1,213,2020-07-17T09:59:25-07:00,3.715399980545,4,versionC_stim.csv,JOL_SIZE_VersionD.csv,"Large vs small D","Large vs small",VASE,KING,Study1,U,85,16,JOL_Small,User,-,"How likely are you to correctly recall the second item in the pair?|Type your response on a scale from 0-100 and then press Enter.",Study/JOL,"Study Phase2",3262,,,1672,2460,,,,50,1
5ee65bebdde4ef3c586e6554,q1vx70sf0i,Trevor-ex1,1,214,2020-07-17T09:59:31-07:00,5.9054219722748,4,versionC_stim.csv,JOL_SIZE_VersionD.csv,"Large vs small D","Large vs small",FLOWER,ORCHID,Study1,B,24,39,JOL_Small,User,-,"How likely are you to correctly recall the second item in the pair?|Type your response on a scale from 0-100 and then press Enter.",Study/JOL,"Study Phase2",5126,,,2314,4281,,,,30,1
5ee65bebdde4ef3c586e6554,q1vx70sf0i,Trevor-ex1,1,215,2020-07-17T09:59:35-07:00,3.6160650253296,4,versionC_stim.csv,JOL_SIZE_VersionD.csv,"Large vs small D","Large vs small",END,BEGIN,Study1,S,54,36,JOL_Small,User,-,"How likely are you to correctly recall the second item in the pair?|Type your response on a scale from 0-100 and then press Enter.",Study/JOL,"Study Phase2",3102,,,2281,2343,,,,40,1
5ee65bebdde4ef3c586e6554,q1vx70sf0i,Trevor-ex1,1,216,2020-07-17T09:59:38-07:00,2.7653410434723,4,versionC_stim.csv,JOL_SIZE_VersionD.csv,"Large vs small D","Large vs small",POSITION,MACHINE,Study1,U,76,63,JOL_Large,User,-,"How likely are you to correctly recall the second item in the pair?|Type your response on a scale from 0-100 and then press Enter.",Study/JOL,"Study Phase2",2173,,,1398,1399,,,,0,1
5ee65bebdde4ef3c586e6554,q1vx70sf0i,Trevor-ex1,1,217,2020-07-17T09:59:42-07:00,3.8936748504639,4,versionC_stim.csv,JOL_SIZE_VersionD.csv,"Large vs small D","Large vs small",CHILD,BABY,Study1,S,64,69,JOL_Large,User,-,"How likely are you to correctly recall the second item in the pair?|Type your response on a scale from 0-100 and then press Enter.",Study/JOL,"Study Phase2",3296,,,2075,2567,,,,60,1
5ee65bebdde4ef3c586e6554,q1vx70sf0i,Trevor-ex1,1,218,2020-07-17T09:59:44-07:00,2.8800570964813,4,versionC_stim.csv,JOL_SIZE_VersionD.csv,"Large vs small D","Large vs small",TOILET,BATHROOM,Study1,S,58,44,JOL_Small,User,-,"How likely are you to correctly recall the second item in the pair?|Type your response on a scale from 0-100 and then press Enter.",Study/JOL,"Study Phase2",2343,,,1449,1603,,,,90,1
5ee65bebdde4ef3c586e6554,q1vx70sf0i,Trevor-ex1,1,219,2020-07-17T09:59:48-07:00,3.0574700832367,4,versionC_stim.csv,JOL_SIZE_VersionD.csv,"Large vs small D","Large vs small",NEWS,EDITOR,Study1,B,10,38,JOL_Small,User,-,"How likely are you to correctly recall the second item in the pair?|Type your response on a scale from 0-100 and then press Enter.",Study/JOL,"Study Phase2",2519,,,1508,1643,,,,90,1
5ee65bebdde4ef3c586e6554,q1vx70sf0i,Trevor-ex1,1,220,2020-07-17T09:59:51-07:00,3.2779018878937,4,versionC_stim.csv,JOL_SIZE_VersionD.csv,"Large vs small D","Large vs small",BAR,GRILL,Study1,S,52,60,JOL_Large,User,-,"How likely are you to correctly recall the second item in the pair?|Type your response on a scale from 0-100 and then press Enter.",Study/JOL,"Study Phase2",2688,,,1570,1761,,,,80,1
5ee65bebdde4ef3c586e6554,q1vx70sf0i,Trevor-ex1,1,221,2020-07-17T09:59:54-07:00,3.2758378982544,4,versionC_stim.csv,JOL_SIZE_VersionD.csv,"Large vs small D","Large vs small",HAMMER,CHISEL,Study1,B,9,68,JOL_Large,User,-,"How likely are you to correctly recall the second item in the pair?|Type your response on a scale from 0-100 and then press Enter.",Study/JOL,"Study Phase2",2668,,,1736,1895,,,,80,1
5ee65bebdde4ef3c586e6554,q1vx70sf0i,Trevor-ex1,1,222,2020-07-17T09:59:57-07:00,3.1774771213531,4,versionC_stim.csv,JOL_SIZE_VersionD.csv,"Large vs small D","Large vs small",BLAZE,FIRE,Study1,F,45,24,JOL_Small,User,-,"How likely are you to correctly recall the second item in the pair?|Type your response on a scale from 0-100 and then press Enter.",Study/JOL,"Study Phase2",2563,,,1404,1808,,,,90,1
5ee65bebdde4ef3c586e6554,q1vx70sf0i,Trevor-ex1,1,223,2020-07-17T10:00:00-07:00,2.8653221130371,4,versionC_stim.csv,JOL_SIZE_VersionD.csv,"Large vs small D","Large vs small",FISH,TUNA,Study1,B,25,72,JOL_Large,User,-,"How likely are you to correctly recall the second item in the pair?|Type your response on a scale from 0-100 and then press Enter.",Study/JOL,"Study Phase2",2270,,,1343,1560,,,,100,1
5ee65bebdde4ef3c586e6554,q1vx70sf0i,Trevor-ex1,1,224,2020-07-17T10:00:03-07:00,2.969251871109,4,versionC_stim.csv,JOL_SIZE_VersionD.csv,"Large vs small D","Large vs small",PLANT,ROOT,Study1,B,13,80,JOL_Large,User,-,"How likely are you to correctly recall the second item in the pair?|Type your response on a scale from 0-100 and then press Enter.",Study/JOL,"Study Phase2",2358,,,1477,1683,,,,100,1
5ee65bebdde4ef3c586e6554,q1vx70sf0i,Trevor-ex1,1,225,2020-07-17T10:00:07-07:00,3.6880240440369,4,versionC_stim.csv,JOL_SIZE_VersionD.csv,"Large vs small D","Large vs small",BIRD,SWAN,Study1,B,14,56,JOL_Large,User,-,"How likely are you to correctly recall the second item in the pair?|Type your response on a scale from 0-100 and then press Enter.",Study/JOL,"Study Phase2",3091,,,1858,2107,,,,80,1
5ee65bebdde4ef3c586e6554,q1vx70sf0i,Trevor-ex1,1,226,2020-07-17T10:00:10-07:00,3.4863018989563,4,versionC_stim.csv,JOL_SIZE_VersionD.csv,"Large vs small D","Large vs small",AMOUNT,NUMBER,Study1,S,47,27,JOL_Small,User,-,"How likely are you to correctly recall the second item in the pair?|Type your response on a scale from 0-100 and then press Enter.",Study/JOL,"Study Phase2",2907,,,1974,2115,,,,80,1
5ee65bebdde4ef3c586e6554,q1vx70sf0i,Trevor-ex1,1,227,2020-07-17T10:00:13-07:00,2.8622410297394,4,versionC_stim.csv,JOL_SIZE_VersionD.csv,"Large vs small D","Large vs small",ASSIGNMENT,DUE,Study1,S,46,53,JOL_Large,User,-,"How likely are you to correctly recall the second item in the pair?|Type your response on a scale from 0-100 and then press Enter.",Study/JOL,"Study Phase2",2316,,,1407,1534,,,,90,1
5ee65bebdde4ef3c586e6554,q1vx70sf0i,Trevor-ex1,1,228,2020-07-17T10:00:16-07:00,3.0880579948425,4,versionC_stim.csv,JOL_SIZE_VersionD.csv,"Large vs small D","Large vs small",JURY,TRIAL,Study1,S,50,23,JOL_Small,User,-,"How likely are you to correctly recall the second item in the pair?|Type your response on a scale from 0-100 and then press Enter.",Study/JOL,"Study Phase2",2481,,,1534,1803,,,,80,1
5ee65bebdde4ef3c586e6554,q1vx70sf0i,Trevor-ex1,1,229,2020-07-17T10:00:19-07:00,2.8486549854279,4,versionC_stim.csv,JOL_SIZE_VersionD.csv,"Large vs small D","Large vs small",RACKET,BALL,Study1,F,38,70,JOL_Large,User,-,"How likely are you to correctly recall the second item in the pair?|Type your response on a scale from 0-100 and then press Enter.",Study/JOL,"Study Phase2",2281,,,1427,1593,,,,80,1
5ee65bebdde4ef3c586e6554,q1vx70sf0i,Trevor-ex1,1,230,2020-07-17T10:00:22-07:00,2.8799850940704,4,versionC_stim.csv,JOL_SIZE_VersionD.csv,"Large vs small D","Large vs small",CAR,HAPPY,Study1,U,77,71,JOL_Large,User,-,"How likely are you to correctly recall the second item in the pair?|Type your response on a scale from 0-100 and then press Enter.",Study/JOL,"Study Phase2",2318,,,1464,1632,,,,80,1
5ee65bebdde4ef3c586e6554,q1vx70sf0i,Trevor-ex1,1,231,2020-07-17T10:00:25-07:00,3.0602459907532,4,versionC_stim.csv,JOL_SIZE_VersionD.csv,"Large vs small D","Large vs small",HAND,FIX,Study1,U,75,32,JOL_Small,User,-,"How likely are you to correctly recall the second item in the pair?|Type your response on a scale from 0-100 and then press Enter.",Study/JOL,"Study Phase2",2467,,,1372,1564,,,,90,1
5ee65bebdde4ef3c586e6554,q1vx70sf0i,Trevor-ex1,1,232,2020-07-17T10:00:28-07:00,2.9687759876251,4,versionC_stim.csv,JOL_SIZE_VersionD.csv,"Large vs small D","Large vs small",COW,HERD,Study1,B,22,28,JOL_Small,User,-,"How likely are you to correctly recall the second item in the pair?|Type your response on a scale from 0-100 and then press Enter.",Study/JOL,"Study Phase2",2298,,,1487,1635,,,,80,1
5ee65bebdde4ef3c586e6554,q1vx70sf0i,Trevor-ex1,1,233,2020-07-17T10:00:31-07:00,2.8757610321045,4,versionC_stim.csv,JOL_SIZE_VersionD.csv,"Large vs small D","Large vs small",FUTURE,PAST,Study1,S,61,49,JOL_Large,User,-,"How likely are you to correctly recall the second item in the pair?|Type your response on a scale from 0-100 and then press Enter.",Study/JOL,"Study Phase2",2233,,,1429,1528,,,,90,1
5ee65bebdde4ef3c586e6554,q1vx70sf0i,Trevor-ex1,1,234,2020-07-17T10:00:34-07:00,2.962513923645,4,versionC_stim.csv,JOL_SIZE_VersionD.csv,"Large vs small D","Large vs small",SITE,LOCATION,Study1,S,48,25,JOL_Small,User,-,"How likely are you to correctly recall the second item in the pair?|Type your response on a scale from 0-100 and then press Enter.",Study/JOL,"Study Phase2",2377,,,1506,1673,,,,90,1
5ee65bebdde4ef3c586e6554,q1vx70sf0i,Trevor-ex1,1,235,2020-07-17T10:00:37-07:00,3.5032820701599,4,versionC_stim.csv,JOL_SIZE_VersionD.csv,"Large vs small D","Large vs small",MONEY,WAGE,Study1,B,8,73,JOL_Large,User,-,"How likely are you to correctly recall the second item in the pair?|Type your response on a scale from 0-100 and then press Enter.",Study/JOL,"Study Phase2",2816,,,1865,2083,,,,70,1
5ee65bebdde4ef3c586e6554,q1vx70sf0i,Trevor-ex1,1,236,2020-07-17T10:00:41-07:00,4.1015329360962,4,versionC_stim.csv,JOL_SIZE_VersionD.csv,"Large vs small D","Large vs small",DOG,PAW,Study1,B,15,57,JOL_Large,User,-,"How likely are you to correctly recall the second item in the pair?|Type your response on a scale from 0-100 and then press Enter.",Study/JOL,"Study Phase2",3415,,,1614,2756,,,,100,1
5ee65bebdde4ef3c586e6554,q1vx70sf0i,Trevor-ex1,1,237,2020-07-17T10:00:44-07:00,3.0575590133667,4,versionC_stim.csv,JOL_SIZE_VersionD.csv,"Large vs small D","Large vs small",CARD,CREDIT,Study1,B,23,64,JOL_Large,User,-,"How likely are you to correctly recall the second item in the pair?|Type your response on a scale from 0-100 and then press Enter.",Study/JOL,"Study Phase2",2543,,,1606,1808,,,,100,1
5ee65bebdde4ef3c586e6554,q1vx70sf0i,Trevor-ex1,1,238,2020-07-17T10:00:48-07:00,3.7771780490875,4,versionC_stim.csv,JOL_SIZE_VersionD.csv,"Large vs small D","Large vs small",DROWSY,SLEEP,Study1,F,41,75,JOL_Large,User,-,"How likely are you to correctly recall the second item in the pair?|Type your response on a scale from 0-100 and then press Enter.",Study/JOL,"Study Phase2",3148,,,2298,2466,,,,80,1
5ee65bebdde4ef3c586e6554,q1vx70sf0i,Trevor-ex1,1,239,2020-07-17T10:00:52-07:00,3.2456018924713,4,versionC_stim.csv,JOL_SIZE_VersionD.csv,"Large vs small D","Large vs small",SALAD,LETTUCE,Study1,S,59,54,JOL_Large,User,-,"How likely are you to correctly recall the second item in the pair?|Type your response on a scale from 0-100 and then press Enter.",Study/JOL,"Study Phase2",2707,,,1859,2037,,,,70,1
5ee65bebdde4ef3c586e6554,q1vx70sf0i,Trevor-ex1,1,240,2020-07-17T10:00:55-07:00,3.5151131153107,4,versionC_stim.csv,JOL_SIZE_VersionD.csv,"Large vs small D","Large vs small",STING,HORNET,Study1,B,11,59,JOL_Large,User,-,"How likely are you to correctly recall the second item in the pair?|Type your response on a scale from 0-100 and then press Enter.",Study/JOL,"Study Phase2",2789,,,2081,2129,,,,50,1
5ee65bebdde4ef3c586e6554,q1vx70sf0i,Trevor-ex1,1,241,2020-07-17T10:00:59-07:00,3.5797789096832,4,versionC_stim.csv,JOL_SIZE_VersionD.csv,"Large vs small D","Large vs small",WASTE,DUMP,Study1,S,49,22,JOL_Small,User,-,"How likely are you to correctly recall the second item in the pair?|Type your response on a scale from 0-100 and then press Enter.",Study/JOL,"Study Phase2",2904,,,1891,2217,,,,90,1
5ee65bebdde4ef3c586e6554,q1vx70sf0i,Trevor-ex1,1,242,2020-07-17T10:01:02-07:00,2.9747660160065,4,versionC_stim.csv,JOL_SIZE_VersionD.csv,"Large vs small D","Large vs small",WASP,BUG,Study1,F,32,58,JOL_Large,User,-,"How likely are you to correctly recall the second item in the pair?|Type your response on a scale from 0-100 and then press Enter.",Study/JOL,"Study Phase2",2412,,,1443,1737,,,,90,1
5ee65bebdde4ef3c586e6554,q1vx70sf0i,Trevor-ex1,1,243,2020-07-17T10:01:05-07:00,2.9769849777222,4,versionC_stim.csv,JOL_SIZE_VersionD.csv,"Large vs small D","Large vs small",STENCH,SMELL,Study1,F,42,45,JOL_Small,User,-,"How likely are you to correctly recall the second item in the pair?|Type your response on a scale from 0-100 and then press Enter.",Study/JOL,"Study Phase2",2355,,,1536,1698,,,,80,1
5ee65bebdde4ef3c586e6554,q1vx70sf0i,Trevor-ex1,1,244,2020-07-17T10:01:09-07:00,4.9032039642334,4,versionC_stim.csv,JOL_SIZE_VersionD.csv,"Large vs small D","Large vs small",ATTIRE,CLOTHES,Study1,F,43,66,JOL_Large,User,-,"How likely are you to correctly recall the second item in the pair?|Type your response on a scale from 0-100 and then press Enter.",Study/JOL,"Study Phase2",4248,,,1531,3608,,,,40,1
5ee65bebdde4ef3c586e6554,q1vx70sf0i,Trevor-ex1,1,245,2020-07-17T10:01:13-07:00,3.2844929695129,4,versionC_stim.csv,JOL_SIZE_VersionD.csv,"Large vs small D","Large vs small",PILOT,PLANE,Study1,F,44,81,JOL_Large,User,-,"How likely are you to correctly recall the second item in the pair?|Type your response on a scale from 0-100 and then press Enter.",Study/JOL,"Study Phase2",2541,,,1600,1749,,,,80,1
5ee65bebdde4ef3c586e6554,q1vx70sf0i,Trevor-ex1,1,246,2020-07-17T10:01:16-07:00,2.9632251262665,4,versionC_stim.csv,JOL_SIZE_VersionD.csv,"Large vs small D","Large vs small",BUSINESS,DEATH,Study1,U,72,82,JOL_Large,User,-,"How likely are you to correctly recall the second item in the pair?|Type your response on a scale from 0-100 and then press Enter.",Study/JOL,"Study Phase2",2300,,,1422,1574,,,,80,1
5ee65bebdde4ef3c586e6554,q1vx70sf0i,Trevor-ex1,1,247,2020-07-17T10:01:20-07:00,4.320708990097,4,versionC_stim.csv,JOL_SIZE_VersionD.csv,"Large vs small D","Large vs small",ADD,VALLEY,Study1,U,82,74,JOL_Large,User,-,"How likely are you to correctly recall the second item in the pair?|Type your response on a scale from 0-100 and then press Enter.",Study/JOL,"Study Phase2",3531,,,1388,1824,,,,0,1
5ee65bebdde4ef3c586e6554,q1vx70sf0i,Trevor-ex1,1,248,2020-07-17T10:01:24-07:00,3.5673270225525,4,versionC_stim.csv,JOL_SIZE_VersionD.csv,"Large vs small D","Large vs small",COLD,BITTER,Study1,B,12,46,JOL_Small,User,-,"How likely are you to correctly recall the second item in the pair?|Type your response on a scale from 0-100 and then press Enter.",Study/JOL,"Study Phase2",2889,,,2081,2156,,,,30,1
5ee65bebdde4ef3c586e6554,q1vx70sf0i,Trevor-ex1,1,249,2020-07-17T10:01:29-07:00,5.5360200405121,4,versionC_stim.csv,JOL_SIZE_VersionD.csv,"Large vs small D","Large vs small",WIND,BLOW,Study1,S,55,61,JOL_Large,User,-,"How likely are you to correctly recall the second item in the pair?|Type your response on a scale from 0-100 and then press Enter.",Study/JOL,"Study Phase2",4975,,,2026,4257,,,,70,1
5ee65bebdde4ef3c586e6554,q1vx70sf0i,Trevor-ex1,1,250,2020-07-17T10:01:33-07:00,3.6010749340057,4,versionC_stim.csv,JOL_SIZE_VersionD.csv,"Large vs small D","Large vs small",ENOUGH,FULL,Study1,F,26,52,JOL_Large,User,-,"How likely are you to correctly recall the second item in the pair?|Type your response on a scale from 0-100 and then press Enter.",Study/JOL,"Study Phase2",3048,,,1473,2363,,,,80,1
5ee65bebdde4ef3c586e6554,q1vx70sf0i,Trevor-ex1,1,251,2020-07-17T10:01:40-07:00,7.1446940898895,4,versionC_stim.csv,JOL_SIZE_VersionD.csv,"Large vs small D","Large vs small",FLOOR,DISCOVER,Study1,U,71,78,JOL_Large,User,-,"How likely are you to correctly recall the second item in the pair?|Type your response on a scale from 0-100 and then press Enter.",Study/JOL,"Study Phase2",6570,,,1590,5828,,,,10,1
5ee65bebdde4ef3c586e6554,q1vx70sf0i,Trevor-ex1,1,252,2020-07-17T10:01:43-07:00,3.1701138019562,4,versionC_stim.csv,JOL_SIZE_VersionD.csv,"Large vs small D","Large vs small",CLEAN,HYGIENE,Study1,B,17,67,JOL_Large,User,-,"How likely are you to correctly recall the second item in the pair?|Type your response on a scale from 0-100 and then press Enter.",Study/JOL,"Study Phase2",2615,,,1757,1940,,,,70,1
5ee65bebdde4ef3c586e6554,q1vx70sf0i,Trevor-ex1,1,253,2020-07-17T10:01:47-07:00,3.4848651885986,4,versionC_stim.csv,JOL_SIZE_VersionD.csv,"Large vs small D","Large vs small",WAR,REVOLUTION,Study1,B,20,43,JOL_Small,User,-,"How likely are you to correctly recall the second item in the pair?|Type your response on a scale from 0-100 and then press Enter.",Study/JOL,"Study Phase2",2862,,,1954,2154,,,,60,1
5ee65bebdde4ef3c586e6554,q1vx70sf0i,Trevor-ex1,1,254,2020-07-17T10:01:51-07:00,4.478483915329,4,versionC_stim.csv,JOL_SIZE_VersionD.csv,"Large vs small D","Large vs small",LIVER,KIDNEY,Study1,S,53,33,JOL_Small,User,-,"How likely are you to correctly recall the second item in the pair?|Type your response on a scale from 0-100 and then press Enter.",Study/JOL,"Study Phase2",3977,,,3087,3196,,,,20,1
5ee65bebdde4ef3c586e6554,q1vx70sf0i,Trevor-ex1,1,255,2020-07-17T10:01:55-07:00,4.4477889537811,4,versionC_stim.csv,JOL_SIZE_VersionD.csv,"Large vs small D","Large vs small",WATER,BRIDGE,Study1,B,18,55,JOL_Large,User,-,"How likely are you to correctly recall the second item in the pair?|Type your response on a scale from 0-100 and then press Enter.",Study/JOL,"Study Phase2",3949,,,2592,3267,,,,20,1
5ee65bebdde4ef3c586e6554,q1vx70sf0i,Trevor-ex1,1,256,2020-07-17T10:02:00-07:00,4.0809080600739,4,versionC_stim.csv,JOL_SIZE_VersionD.csv,"Large vs small D","Large vs small",CHEESE,WINE,Study1,S,57,7,JOL_Small,User,-,"How likely are you to correctly recall the second item in the pair?|Type your response on a scale from 0-100 and then press Enter.",Study/JOL,"Study Phase2",3386,,,1610,2661,,,,50,1
5ee65bebdde4ef3c586e6554,q1vx70sf0i,Trevor-ex1,1,257,2020-07-17T10:02:05-07:00,5.2661209106445,4,versionC_stim.csv,JOL_SIZE_VersionD.csv,"Large vs small D","Large vs small",BELT,SOON,Study1,U,70,76,JOL_Large,User,-,"How likely are you to correctly recall the second item in the pair?|Type your response on a scale from 0-100 and then press Enter.",Study/JOL,"Study Phase2",2580,,,1845,1846,,,,0,1
5ee65bebdde4ef3c586e6554,q1vx70sf0i,Trevor-ex1,1,258,2020-07-17T10:02:08-07:00,2.9246530532837,4,versionC_stim.csv,JOL_SIZE_VersionD.csv,"Large vs small D","Large vs small",CHILI,HOT,Study1,F,37,86,JOL_Large,User,-,"How likely are you to correctly recall the second item in the pair?|Type your response on a scale from 0-100 and then press Enter.",Study/JOL,"Study Phase2",2433,,,1549,1751,,,,80,1
5ee65bebdde4ef3c586e6554,q1vx70sf0i,Trevor-ex1,1,259,2020-07-17T10:02:12-07:00,4.0969209671021,4,versionC_stim.csv,JOL_SIZE_VersionD.csv,"Large vs small D","Large vs small",ROCK,GEOLOGY,Study1,B,19,15,JOL_Small,User,-,"How likely are you to correctly recall the second item in the pair?|Type your response on a scale from 0-100 and then press Enter.",Study/JOL,"Study Phase2",3396,,,1595,2701,,,,20,1
5ee65bebdde4ef3c586e6554,q1vx70sf0i,Trevor-ex1,1,260,2020-07-17T10:02:15-07:00,3.5797271728516,4,versionC_stim.csv,JOL_SIZE_VersionD.csv,"Large vs small D","Large vs small",SODA,POP,Study1,S,56,83,JOL_Large,User,-,"How likely are you to correctly recall the second item in the pair?|Type your response on a scale from 0-100 and then press Enter.",Study/JOL,"Study Phase2",2981,,,2131,2315,,,,70,1
5ee65bebdde4ef3c586e6554,q1vx70sf0i,Trevor-ex1,1,261,2020-07-17T10:02:21-07:00,5.5113458633423,4,versionC_stim.csv,JOL_SIZE_VersionD.csv,"Large vs small D","Large vs small",CLUTTER,PUSHER,Study1,U,66,40,JOL_Small,User,-,"How likely are you to correctly recall the second item in the pair?|Type your response on a scale from 0-100 and then press Enter.",Study/JOL,"Study Phase2",3905,,,3180,3180,,,,0,1
5ee65bebdde4ef3c586e6554,q1vx70sf0i,Trevor-ex1,1,262,2020-07-17T10:02:24-07:00,3.1164319515228,4,versionC_stim.csv,JOL_SIZE_VersionD.csv,"Large vs small D","Large vs small",ACCIDENT,STRONG,Study1,U,80,62,JOL_Large,User,-,"How likely are you to correctly recall the second item in the pair?|Type your response on a scale from 0-100 and then press Enter.",Study/JOL,"Study Phase2",2420,,,1713,1714,,,,0,1
5ee65bebdde4ef3c586e6554,q1vx70sf0i,Trevor-ex1,1,263,2020-07-17T10:02:28-07:00,4.2729971408844,4,versionC_stim.csv,JOL_SIZE_VersionD.csv,"Large vs small D","Large vs small",DEFINITION,MEANING,Study1,S,62,10,JOL_Small,User,-,"How likely are you to correctly recall the second item in the pair?|Type your response on a scale from 0-100 and then press Enter.",Study/JOL,"Study Phase2",3785,,,3003,3077,,,,60,1
5ee65bebdde4ef3c586e6554,q1vx70sf0i,Trevor-ex1,1,264,2020-07-17T10:02:32-07:00,4.1987819671631,4,versionC_stim.csv,JOL_SIZE_VersionD.csv,"Large vs small D","Large vs small",DIVISION,MATH,Study1,F,33,34,JOL_Small,User,-,"How likely are you to correctly recall the second item in the pair?|Type your response on a scale from 0-100 and then press Enter.",Study/JOL,"Study Phase2",3398,,,2573,2749,,,,80,1
5ee65bebdde4ef3c586e6554,q1vx70sf0i,Trevor-ex1,1,265,2020-07-17T10:02:35-07:00,2.8713328838348,4,versionC_stim.csv,JOL_SIZE_VersionD.csv,"Large vs small D","Large vs small",CHORE,WORK,Study1,F,39,84,JOL_Large,User,-,"How likely are you to correctly recall the second item in the pair?|Type your response on a scale from 0-100 and then press Enter.",Study/JOL,"Study Phase2",2314,,,1532,1674,,,,90,1
5ee65bebdde4ef3c586e6554,q1vx70sf0i,Trevor-ex1,1,266,2020-07-17T10:02:42-07:00,6.3554651737213,4,versionC_stim.csv,JOL_SIZE_VersionD.csv,"Large vs small D","Large vs small",TUCK,ALLOW,Study1,U,78,37,JOL_Small,User,-,"How likely are you to correctly recall the second item in the pair?|Type your response on a scale from 0-100 and then press Enter.",Study/JOL,"Study Phase2",5732,,,2092,2595,,,,0,1
5ee65bebdde4ef3c586e6554,q1vx70sf0i,Trevor-ex1,1,267,2020-07-17T10:02:46-07:00,3.7783999443054,4,versionC_stim.csv,JOL_SIZE_VersionD.csv,"Large vs small D","Large vs small",GOOSE,GEESE,BUFFER2,Buffer,86,87,JOL_Large,User,-,"How likely are you to correctly recall the second item in the pair?|Type your response on a scale from 0-100 and then press Enter.",Study/JOL,BUFFER4,3245,,,2305,2496,,,,80,1
5ee65bebdde4ef3c586e6554,q1vx70sf0i,Trevor-ex1,1,268,2020-07-17T10:02:50-07:00,4.6195919513702,4,versionC_stim.csv,JOL_SIZE_VersionD.csv,"Large vs small D","Large vs small",CHOCOLATE,MALT,BUFFER2,Buffer,88,89,JOL_Small,User,-,"How likely are you to correctly recall the second item in the pair?|Type your response on a scale from 0-100 and then press Enter.",Study/JOL,BUFFER4,3986,,,2646,3322,,,,30,1
5ee65bebdde4ef3c586e6554,q1vx70sf0i,Trevor-ex1,1,269,2020-07-17T10:02:54-07:00,3.6045911312103,4,versionC_stim.csv,JOL_SIZE_VersionD.csv,"Large vs small D","Large vs small",POLICE,SHERRIF,BUFFER2,Buffer,87,88,JOL_Large,User,-,"How likely are you to correctly recall the second item in the pair?|Type your response on a scale from 0-100 and then press Enter.",Study/JOL,BUFFER4,2897,,,2047,2205,,,,90,1
5ee65bebdde4ef3c586e6554,q1vx70sf0i,Trevor-ex1,1,270,2020-07-17T10:02:56-07:00,2.6312639713287,4,versionC_stim.csv,JOL_SIZE_VersionD.csv,"Large vs small D","Large vs small",STUFF,THING,BUFFER2,Buffer,90,91,JOL_Large,User,-,"How likely are you to correctly recall the second item in the pair?|Type your response on a scale from 0-100 and then press Enter.",Study/JOL,BUFFER4,2191,,,1355,1506,,,,90,1
5ee65bebdde4ef3c586e6554,q1vx70sf0i,Trevor-ex1,1,271,2020-07-17T10:02:59-07:00,2.9742119312286,4,versionC_stim.csv,JOL_SIZE_VersionD.csv,"Large vs small D","Large vs small",SPACE,MOON,BUFFER2,Buffer,89,90,JOL_Small,User,-,"How likely are you to correctly recall the second item in the pair?|Type your response on a scale from 0-100 and then press Enter.",Study/JOL,BUFFER4,2427,,,1627,1777,,,,90,1
5ee65bebdde4ef3c586e6554,q1vx70sf0i,Trevor-ex1,1,272,2020-07-17T10:03:01-07:00,1.6485269069672,4,versionC_stim.csv,JOL_SIZE_VersionD.csv,"Large vs small D","Large vs small",,,,,,0,Instruct,User,-,"You have completed this section. Please press Enter.",Filler_Instruction,Instruct5,1053,,,-1,-1,,,,,1
5ee65bebdde4ef3c586e6554,q1vx70sf0i,Trevor-ex1,1,273,2020-07-17T10:05:02-07:00,120.54821395874,4,versionC_stim.csv,JOL_SIZE_VersionD.csv,"Large vs small D","Large vs small",,,,,,0,FreeRecall,120,120,"Please list the 50 US states in reverse alphabetical order (z - a). The task will automatically advance to the next screen after two minutes.",,Filler2,120011,"Alabama Alaska Arizona Arkansas California Colorado Connecticut Delaware Florida Georgia Hawaii Idaho Illinois India Iowa Kansas Kentucky Louisiana Maine Maryland Massachusetts Michigan Minnesota Mississippi Missouri Montana Nebraska Nevada N",0,4230,119985,0,0,,,1
5ee65bebdde4ef3c586e6554,q1vx70sf0i,Trevor-ex1,1,274,2020-07-17T10:05:17-07:00,15.281135082245,4,versionC_stim.csv,JOL_SIZE_VersionD.csv,"Large vs small D","Large vs small",,,,,,0,Instruct,-,10,"You will now be presented with the first word from each of the previously studied item pairs. Please type the missing word. If you do not know the word, you may guess or press Enter to skip forward to the next pair.",,Instruct6,14787,,,-1,-1,,,,,1
5ee65bebdde4ef3c586e6554,q1vx70sf0i,Trevor-ex1,1,275,2020-07-17T10:05:21-07:00,4.4043619632721,4,versionC_stim.csv,JOL_SIZE_VersionD.csv,"Large vs small D","Large vs small",ROUND,CIRCLE,Study1,S,65,13,Test,User,-,,Recall,Recall2,3908,Circle,100,1855,3041,1,1,,,1
