Username,ID,ExperimentName,Session,Trial,Date,TimeDif,"Condition Number","Stimuli File","Order File","Condition Description","Condition Notes",Stimuli*Cue,Stimuli*Answer,Stimuli*Shuffle,"Stimuli*Stimuli Notes",Stimuli*Value,Procedure*Item,"Procedure*Trial Type","Procedure*Max Time","Procedure*Min Time",Procedure*Text,"Procedure*Procedure Notes",Procedure*Shuffle,Response*RT,Response*Response,Response*Accuracy,Response*RTfirst,Response*RTlast,Response*strictAcc,Response*lenientAcc,Response*focus,Response*JOL,Response*Focus
5f0b14b1938b1e3f7163a926,h4e2o6kk9o,Trevor-ex1,1,1,2020-07-17T09:35:19-07:00,9.3190021514893,7,versionC_stim.csv,JOL_H_VersionC.csv,"Highlight vs normal C","Highlight vs normal",,,,,,0,Instruct,-,5,"In this section, you will be presented with a series of word pairs.",Initial_Instruct,Instruct1,8633,,,-1,-1,,,,,1
5f0b14b1938b1e3f7163a926,h4e2o6kk9o,Trevor-ex1,1,2,2020-07-17T09:35:32-07:00,12.73566699028,7,versionC_stim.csv,JOL_H_VersionC.csv,"Highlight vs normal C","Highlight vs normal",,,,,,0,Instruct,-,10,"As you study, you will be asked to rate your ability to remember the second item in the pair if you were only shown the first at test. You will make these ratings using a 0 to 100 Scale.",,Instruct13,11860,,,-1,-1,,,,,1
5f0b14b1938b1e3f7163a926,h4e2o6kk9o,Trevor-ex1,1,3,2020-07-17T09:35:45-07:00,12.796304941177,7,versionC_stim.csv,JOL_H_VersionC.csv,"Highlight vs normal C","Highlight vs normal",,,,,,0,Instruct,-,10,"For example, if you are given the pair CAT - DOG, a rating of 0 indicates that you would not remember DOG at test, while a rating of 100 indicates full certainty that you would remember the word DOG at test.",,Instruct14,12019,,,-1,-1,,,,,1
5f0b14b1938b1e3f7163a926,h4e2o6kk9o,Trevor-ex1,1,4,2020-07-17T09:35:57-07:00,12.032345056534,7,versionC_stim.csv,JOL_H_VersionC.csv,"Highlight vs normal C","Highlight vs normal",,,,,,0,Instruct,-,10,"When making your ratings, it is criticial that you use the full range of the scale. You will be disqualified for only giving ratings of 0 or 100! After making your rating, press Enter to advance to the next pair.",,Instruct15,11227,,,-1,-1,,,,,1
5f0b14b1938b1e3f7163a926,h4e2o6kk9o,Trevor-ex1,1,5,2020-07-17T09:36:00-07:00,3.2201969623566,7,versionC_stim.csv,JOL_H_VersionC.csv,"Highlight vs normal C","Highlight vs normal",,,,,,0,Instruct,User,-,"You will now begin the study. Press Enter when you are ready to begin.",,Instruct16,2388,,,-1,-1,,,,,1
5f0b14b1938b1e3f7163a926,h4e2o6kk9o,Trevor-ex1,1,6,2020-07-17T09:36:15-07:00,15.158369064331,7,versionC_stim.csv,JOL_H_VersionC.csv,"Highlight vs normal C","Highlight vs normal",HIDE,SCARE,BUFFER1,Buffer,4,4,JOL_H,User,-,"How likely are you to correctly recall the second item in the pair?|Type your response on a scale from 0-100 and then press Enter.",Study/JOL,BUFFER,14346,,,13470,13596,,,,50,1
5f0b14b1938b1e3f7163a926,h4e2o6kk9o,Trevor-ex1,1,7,2020-07-17T09:36:21-07:00,5.8735790252686,7,versionC_stim.csv,JOL_H_VersionC.csv,"Highlight vs normal C","Highlight vs normal",CATCHER,BASEBALL,BUFFER1,Buffer,2,5,JOL_H,User,-,"How likely are you to correctly recall the second item in the pair?|Type your response on a scale from 0-100 and then press Enter.",Study/JOL,BUFFER,5066,,,4263,4442,,,,40,1
5f0b14b1938b1e3f7163a926,h4e2o6kk9o,Trevor-ex1,1,8,2020-07-17T09:36:25-07:00,3.9674279689789,7,versionC_stim.csv,JOL_H_VersionC.csv,"Highlight vs normal C","Highlight vs normal",GREEN,TREES,BUFFER1,Buffer,1,3,JOL,User,-,"How likely are you to correctly recall the second item in the pair?|Type your response on a scale from 0-100 and then press Enter.",Study/JOL,BUFFER,3261,,,2389,2611,,,,90,1
5f0b14b1938b1e3f7163a926,h4e2o6kk9o,Trevor-ex1,1,9,2020-07-17T09:36:32-07:00,6.6754870414734,7,versionC_stim.csv,JOL_H_VersionC.csv,"Highlight vs normal C","Highlight vs normal",JAM,SPACE,BUFFER1,Buffer,5,6,JOL_H,User,-,"How likely are you to correctly recall the second item in the pair?|Type your response on a scale from 0-100 and then press Enter.",Study/JOL,BUFFER,5673,,,4786,5116,,,,80,1
5f0b14b1938b1e3f7163a926,h4e2o6kk9o,Trevor-ex1,1,10,2020-07-17T09:36:36-07:00,4.8561539649963,7,versionC_stim.csv,JOL_H_VersionC.csv,"Highlight vs normal C","Highlight vs normal",BUTTER,PEANUT,BUFFER1,Buffer,3,2,JOL,User,-,"How likely are you to correctly recall the second item in the pair?|Type your response on a scale from 0-100 and then press Enter.",Study/JOL,BUFFER,4235,,,3530,3633,,,,90,1
5f0b14b1938b1e3f7163a926,h4e2o6kk9o,Trevor-ex1,1,11,2020-07-17T09:36:43-07:00,6.2319598197937,7,versionC_stim.csv,JOL_H_VersionC.csv,"Highlight vs normal C","Highlight vs normal",FOOT,SHOE,Study1,S,60,8,JOL_H,User,-,"How likely are you to correctly recall the second item in the pair?|Type your response on a scale from 0-100 and then press Enter.",Study/JOL,"Study Phase",5448,,,2828,4871,,,,95,1
5f0b14b1938b1e3f7163a926,h4e2o6kk9o,Trevor-ex1,1,12,2020-07-17T09:36:47-07:00,4.176117181778,7,versionC_stim.csv,JOL_H_VersionC.csv,"Highlight vs normal C","Highlight vs normal",LATCH,KEY,Study1,F,36,57,JOL,User,-,"How likely are you to correctly recall the second item in the pair?|Type your response on a scale from 0-100 and then press Enter.",Study/JOL,"Study Phase",3377,,,2180,2719,,,,30,1
5f0b14b1938b1e3f7163a926,h4e2o6kk9o,Trevor-ex1,1,13,2020-07-17T09:36:55-07:00,8.2562429904938,7,versionC_stim.csv,JOL_H_VersionC.csv,"Highlight vs normal C","Highlight vs normal",COW,HERD,Study1,B,22,28,JOL_H,User,-,"How likely are you to correctly recall the second item in the pair?|Type your response on a scale from 0-100 and then press Enter.",Study/JOL,"Study Phase",7449,,,6651,6798,,,,60,0.811
5f0b14b1938b1e3f7163a926,h4e2o6kk9o,Trevor-ex1,1,14,2020-07-17T09:37:03-07:00,8.452024936676,7,versionC_stim.csv,JOL_H_VersionC.csv,"Highlight vs normal C","Highlight vs normal",TALK,DISCUSSION,Study1,B,21,76,JOL,User,-,"How likely are you to correctly recall the second item in the pair?|Type your response on a scale from 0-100 and then press Enter.",Study/JOL,"Study Phase",7196,,,6515,6638,,,,30,1
5f0b14b1938b1e3f7163a926,h4e2o6kk9o,Trevor-ex1,1,15,2020-07-17T09:37:12-07:00,8.0703859329224,7,versionC_stim.csv,JOL_H_VersionC.csv,"Highlight vs normal C","Highlight vs normal",ROCK,GEOLOGY,Study1,B,19,54,JOL,User,-,"How likely are you to correctly recall the second item in the pair?|Type your response on a scale from 0-100 and then press Enter.",Study/JOL,"Study Phase",7013,,,5351,6387,,,,40,1
5f0b14b1938b1e3f7163a926,h4e2o6kk9o,Trevor-ex1,1,16,2020-07-17T09:37:20-07:00,8.4642970561981,7,versionC_stim.csv,JOL_H_VersionC.csv,"Highlight vs normal C","Highlight vs normal",HAND,FIX,Study1,U,75,71,JOL,User,-,"How likely are you to correctly recall the second item in the pair?|Type your response on a scale from 0-100 and then press Enter.",Study/JOL,"Study Phase",7533,,,6827,6946,,,,20,0.632
5f0b14b1938b1e3f7163a926,h4e2o6kk9o,Trevor-ex1,1,17,2020-07-17T09:37:25-07:00,5.3233680725098,7,versionC_stim.csv,JOL_H_VersionC.csv,"Highlight vs normal C","Highlight vs normal",CLUTTER,PUSHER,Study1,U,66,74,JOL,User,-,"How likely are you to correctly recall the second item in the pair?|Type your response on a scale from 0-100 and then press Enter.",Study/JOL,"Study Phase",4541,,,3844,3956,,,,10,1
5f0b14b1938b1e3f7163a926,h4e2o6kk9o,Trevor-ex1,1,18,2020-07-17T09:37:30-07:00,4.8498468399048,7,versionC_stim.csv,JOL_H_VersionC.csv,"Highlight vs normal C","Highlight vs normal",SODA,POP,Study1,S,56,25,JOL_H,User,-,"How likely are you to correctly recall the second item in the pair?|Type your response on a scale from 0-100 and then press Enter.",Study/JOL,"Study Phase",3966,,,3143,3367,,,,30,1
5f0b14b1938b1e3f7163a926,h4e2o6kk9o,Trevor-ex1,1,19,2020-07-17T09:37:35-07:00,4.8866701126099,7,versionC_stim.csv,JOL_H_VersionC.csv,"Highlight vs normal C","Highlight vs normal",STING,HORNET,Study1,B,11,77,JOL,User,-,"How likely are you to correctly recall the second item in the pair?|Type your response on a scale from 0-100 and then press Enter.",Study/JOL,"Study Phase",4256,,,3520,3672,,,,40,1
5f0b14b1938b1e3f7163a926,h4e2o6kk9o,Trevor-ex1,1,20,2020-07-17T09:37:45-07:00,9.5040299892426,7,versionC_stim.csv,JOL_H_VersionC.csv,"Highlight vs normal C","Highlight vs normal",WOULD,CASH,Study1,U,83,63,JOL,User,-,"How likely are you to correctly recall the second item in the pair?|Type your response on a scale from 0-100 and then press Enter.",Study/JOL,"Study Phase",7630,,,4657,6991,,,,20,1
5f0b14b1938b1e3f7163a926,h4e2o6kk9o,Trevor-ex1,1,21,2020-07-17T09:37:49-07:00,4.0593960285187,7,versionC_stim.csv,JOL_H_VersionC.csv,"Highlight vs normal C","Highlight vs normal",BAR,GRILL,Study1,S,52,16,JOL_H,User,-,"How likely are you to correctly recall the second item in the pair?|Type your response on a scale from 0-100 and then press Enter.",Study/JOL,"Study Phase",3281,,,2455,2571,,,,20,1
5f0b14b1938b1e3f7163a926,h4e2o6kk9o,Trevor-ex1,1,22,2020-07-17T09:37:52-07:00,3.5803790092468,7,versionC_stim.csv,JOL_H_VersionC.csv,"Highlight vs normal C","Highlight vs normal",CHILD,BABY,Study1,S,64,41,JOL_H,User,-,"How likely are you to correctly recall the second item in the pair?|Type your response on a scale from 0-100 and then press Enter.",Study/JOL,"Study Phase",2869,,,2104,2214,,,,90,1
5f0b14b1938b1e3f7163a926,h4e2o6kk9o,Trevor-ex1,1,23,2020-07-17T09:37:56-07:00,3.5602090358734,7,versionC_stim.csv,JOL_H_VersionC.csv,"Highlight vs normal C","Highlight vs normal",FISH,TUNA,Study1,B,25,19,JOL_H,User,-,"How likely are you to correctly recall the second item in the pair?|Type your response on a scale from 0-100 and then press Enter.",Study/JOL,"Study Phase",2822,,,1779,2139,,,,100,1
5f0b14b1938b1e3f7163a926,h4e2o6kk9o,Trevor-ex1,1,24,2020-07-17T09:38:01-07:00,4.847690820694,7,versionC_stim.csv,JOL_H_VersionC.csv,"Highlight vs normal C","Highlight vs normal",COLD,BITTER,Study1,B,12,12,JOL_H,User,-,"How likely are you to correctly recall the second item in the pair?|Type your response on a scale from 0-100 and then press Enter.",Study/JOL,"Study Phase",4066,,,2558,3448,,,,60,1
5f0b14b1938b1e3f7163a926,h4e2o6kk9o,Trevor-ex1,1,25,2020-07-17T09:38:05-07:00,4.5577440261841,7,versionC_stim.csv,JOL_H_VersionC.csv,"Highlight vs normal C","Highlight vs normal",FUTURE,PAST,Study1,S,61,75,JOL,User,-,"How likely are you to correctly recall the second item in the pair?|Type your response on a scale from 0-100 and then press Enter.",Study/JOL,"Study Phase",3877,,,1970,3224,,,,100,1
5f0b14b1938b1e3f7163a926,h4e2o6kk9o,Trevor-ex1,1,26,2020-07-17T09:38:09-07:00,3.7616851329803,7,versionC_stim.csv,JOL_H_VersionC.csv,"Highlight vs normal C","Highlight vs normal",STOMACH,DIGESTION,Study1,B,7,21,JOL_H,User,-,"How likely are you to correctly recall the second item in the pair?|Type your response on a scale from 0-100 and then press Enter.",Study/JOL,"Study Phase",2698,,,1811,2013,,,,90,1
5f0b14b1938b1e3f7163a926,h4e2o6kk9o,Trevor-ex1,1,27,2020-07-17T09:38:16-07:00,7.2498159408569,7,versionC_stim.csv,JOL_H_VersionC.csv,"Highlight vs normal C","Highlight vs normal",SICK,HIDE,Study1,U,84,52,JOL,User,-,"How likely are you to correctly recall the second item in the pair?|Type your response on a scale from 0-100 and then press Enter.",Study/JOL,"Study Phase",6583,,,5703,5855,,,,20,1
5f0b14b1938b1e3f7163a926,h4e2o6kk9o,Trevor-ex1,1,28,2020-07-17T09:38:20-07:00,3.8151609897614,7,versionC_stim.csv,JOL_H_VersionC.csv,"Highlight vs normal C","Highlight vs normal",END,BEGIN,Study1,S,54,66,JOL,User,-,"How likely are you to correctly recall the second item in the pair?|Type your response on a scale from 0-100 and then press Enter.",Study/JOL,"Study Phase",3026,,,2263,2415,,,,30,1
5f0b14b1938b1e3f7163a926,h4e2o6kk9o,Trevor-ex1,1,29,2020-07-17T09:38:24-07:00,3.7883861064911,7,versionC_stim.csv,JOL_H_VersionC.csv,"Highlight vs normal C","Highlight vs normal",MONEY,WAGE,Study1,B,8,61,JOL,User,-,"How likely are you to correctly recall the second item in the pair?|Type your response on a scale from 0-100 and then press Enter.",Study/JOL,"Study Phase",3063,,,2378,2480,,,,70,1
5f0b14b1938b1e3f7163a926,h4e2o6kk9o,Trevor-ex1,1,30,2020-07-17T09:38:28-07:00,4.1534149646759,7,versionC_stim.csv,JOL_H_VersionC.csv,"Highlight vs normal C","Highlight vs normal",WAR,REVOLUTION,Study1,B,20,60,JOL,User,-,"How likely are you to correctly recall the second item in the pair?|Type your response on a scale from 0-100 and then press Enter.",Study/JOL,"Study Phase",3366,,,2639,2711,,,,70,1
5f0b14b1938b1e3f7163a926,h4e2o6kk9o,Trevor-ex1,1,31,2020-07-17T09:38:31-07:00,3.1535768508911,7,versionC_stim.csv,JOL_H_VersionC.csv,"Highlight vs normal C","Highlight vs normal",GROWTH,HEIGHT,Study1,F,30,34,JOL_H,User,-,"How likely are you to correctly recall the second item in the pair?|Type your response on a scale from 0-100 and then press Enter.",Study/JOL,"Study Phase",2478,,,1766,1938,,,,60,1
5f0b14b1938b1e3f7163a926,h4e2o6kk9o,Trevor-ex1,1,32,2020-07-17T09:38:38-07:00,7.3577241897583,7,versionC_stim.csv,JOL_H_VersionC.csv,"Highlight vs normal C","Highlight vs normal",BAD,DELINQUENT,Study1,B,6,11,JOL_H,User,-,"How likely are you to correctly recall the second item in the pair?|Type your response on a scale from 0-100 and then press Enter.",Study/JOL,"Study Phase",6561,,,4572,6021,,,,60,1
5f0b14b1938b1e3f7163a926,h4e2o6kk9o,Trevor-ex1,1,33,2020-07-17T09:38:47-07:00,8.4720277786255,7,versionC_stim.csv,JOL_H_VersionC.csv,"Highlight vs normal C","Highlight vs normal",ENOUGH,FULL,Study1,F,26,58,JOL,User,-,"How likely are you to correctly recall the second item in the pair?|Type your response on a scale from 0-100 and then press Enter.",Study/JOL,"Study Phase",7694,,,6006,7096,,,,65,1
5f0b14b1938b1e3f7163a926,h4e2o6kk9o,Trevor-ex1,1,34,2020-07-17T09:38:53-07:00,6.4713010787964,7,versionC_stim.csv,JOL_H_VersionC.csv,"Highlight vs normal C","Highlight vs normal",CLEAN,HYGIENE,Study1,B,17,38,JOL_H,User,-,"How likely are you to correctly recall the second item in the pair?|Type your response on a scale from 0-100 and then press Enter.",Study/JOL,"Study Phase",5683,,,4972,5099,,,,60,1
5f0b14b1938b1e3f7163a926,h4e2o6kk9o,Trevor-ex1,1,35,2020-07-17T09:39:00-07:00,6.4171040058136,7,versionC_stim.csv,JOL_H_VersionC.csv,"Highlight vs normal C","Highlight vs normal",JURY,TRIAL,Study1,S,50,80,JOL,User,-,"How likely are you to correctly recall the second item in the pair?|Type your response on a scale from 0-100 and then press Enter.",Study/JOL,"Study Phase",5692,,,4704,5147,,,,80,1
5f0b14b1938b1e3f7163a926,h4e2o6kk9o,Trevor-ex1,1,36,2020-07-17T09:39:04-07:00,3.982677936554,7,versionC_stim.csv,JOL_H_VersionC.csv,"Highlight vs normal C","Highlight vs normal",SIP,DRINK,Study1,F,27,27,JOL_H,User,-,"How likely are you to correctly recall the second item in the pair?|Type your response on a scale from 0-100 and then press Enter.",Study/JOL,"Study Phase",3256,,,2607,2697,,,,60,1
5f0b14b1938b1e3f7163a926,h4e2o6kk9o,Trevor-ex1,1,37,2020-07-17T09:39:08-07:00,4.380805015564,7,versionC_stim.csv,JOL_H_VersionC.csv,"Highlight vs normal C","Highlight vs normal",WORD,SENTENCE,Study1,F,31,56,JOL,User,-,"How likely are you to correctly recall the second item in the pair?|Type your response on a scale from 0-100 and then press Enter.",Study/JOL,"Study Phase",3653,,,2737,3210,,,,65,1
5f0b14b1938b1e3f7163a926,h4e2o6kk9o,Trevor-ex1,1,38,2020-07-17T09:39:13-07:00,4.3658201694489,7,versionC_stim.csv,JOL_H_VersionC.csv,"Highlight vs normal C","Highlight vs normal",BELT,SOON,Study1,U,70,37,JOL_H,User,-,"How likely are you to correctly recall the second item in the pair?|Type your response on a scale from 0-100 and then press Enter.",Study/JOL,"Study Phase",3619,,,2876,3039,,,,20,1
5f0b14b1938b1e3f7163a926,h4e2o6kk9o,Trevor-ex1,1,39,2020-07-17T09:39:17-07:00,4.662230014801,7,versionC_stim.csv,JOL_H_VersionC.csv,"Highlight vs normal C","Highlight vs normal",WASP,BUG,Study1,F,32,48,JOL,User,-,"How likely are you to correctly recall the second item in the pair?|Type your response on a scale from 0-100 and then press Enter.",Study/JOL,"Study Phase",3888,,,3146,3248,,,,40,1
5f0b14b1938b1e3f7163a926,h4e2o6kk9o,Trevor-ex1,1,40,2020-07-17T09:39:21-07:00,3.8140227794647,7,versionC_stim.csv,JOL_H_VersionC.csv,"Highlight vs normal C","Highlight vs normal",BIRD,SWAN,Study1,B,14,40,JOL_H,User,-,"How likely are you to correctly recall the second item in the pair?|Type your response on a scale from 0-100 and then press Enter.",Study/JOL,"Study Phase",3162,,,2439,2568,,,,50,1
5f0b14b1938b1e3f7163a926,h4e2o6kk9o,Trevor-ex1,1,41,2020-07-17T09:39:25-07:00,3.9839820861816,7,versionC_stim.csv,JOL_H_VersionC.csv,"Highlight vs normal C","Highlight vs normal",PILOT,PLANE,Study1,F,44,51,JOL,User,-,"How likely are you to correctly recall the second item in the pair?|Type your response on a scale from 0-100 and then press Enter.",Study/JOL,"Study Phase",3199,,,2463,2671,,,,60,1
5f0b14b1938b1e3f7163a926,h4e2o6kk9o,Trevor-ex1,1,42,2020-07-17T09:39:28-07:00,2.9488799571991,7,versionC_stim.csv,JOL_H_VersionC.csv,"Highlight vs normal C","Highlight vs normal",WIND,BLOW,Study1,S,55,78,JOL,User,-,"How likely are you to correctly recall the second item in the pair?|Type your response on a scale from 0-100 and then press Enter.",Study/JOL,"Study Phase",2150,,,1441,1538,,,,70,1
5f0b14b1938b1e3f7163a926,h4e2o6kk9o,Trevor-ex1,1,43,2020-07-17T09:39:32-07:00,3.9982130527496,7,versionC_stim.csv,JOL_H_VersionC.csv,"Highlight vs normal C","Highlight vs normal",STENCH,SMELL,Study1,F,42,14,JOL_H,User,-,"How likely are you to correctly recall the second item in the pair?|Type your response on a scale from 0-100 and then press Enter.",Study/JOL,"Study Phase",3311,,,2164,2857,,,,75,1
5f0b14b1938b1e3f7163a926,h4e2o6kk9o,Trevor-ex1,1,44,2020-07-17T09:39:39-07:00,7.309140920639,7,versionC_stim.csv,JOL_H_VersionC.csv,"Highlight vs normal C","Highlight vs normal",CHEESE,WINE,Study1,S,57,83,JOL,User,-,"How likely are you to correctly recall the second item in the pair?|Type your response on a scale from 0-100 and then press Enter.",Study/JOL,"Study Phase",6491,,,5823,5963,,,,60,1
5f0b14b1938b1e3f7163a926,h4e2o6kk9o,Trevor-ex1,1,45,2020-07-17T09:39:43-07:00,4.1353180408478,7,versionC_stim.csv,JOL_H_VersionC.csv,"Highlight vs normal C","Highlight vs normal",FAMINE,HUNGER,Study1,F,40,53,JOL,User,-,"How likely are you to correctly recall the second item in the pair?|Type your response on a scale from 0-100 and then press Enter.",Study/JOL,"Study Phase",3467,,,2445,2541,,,,80,1
5f0b14b1938b1e3f7163a926,h4e2o6kk9o,Trevor-ex1,1,46,2020-07-17T09:39:47-07:00,3.5552821159363,7,versionC_stim.csv,JOL_H_VersionC.csv,"Highlight vs normal C","Highlight vs normal",ASSIGNMENT,DUE,Study1,S,46,39,JOL_H,User,-,"How likely are you to correctly recall the second item in the pair?|Type your response on a scale from 0-100 and then press Enter.",Study/JOL,"Study Phase",2778,,,1799,2012,,,,90,1
5f0b14b1938b1e3f7163a926,h4e2o6kk9o,Trevor-ex1,1,47,2020-07-17T09:39:51-07:00,3.7627148628235,7,versionC_stim.csv,JOL_H_VersionC.csv,"Highlight vs normal C","Highlight vs normal",CAR,HAPPY,Study1,U,77,42,JOL_H,User,-,"How likely are you to correctly recall the second item in the pair?|Type your response on a scale from 0-100 and then press Enter.",Study/JOL,"Study Phase",3097,,,2394,2562,,,,30,1
5f0b14b1938b1e3f7163a926,h4e2o6kk9o,Trevor-ex1,1,48,2020-07-17T09:39:55-07:00,3.8913199901581,7,versionC_stim.csv,JOL_H_VersionC.csv,"Highlight vs normal C","Highlight vs normal",ATTIRE,CLOTHES,Study1,F,43,65,JOL,User,-,"How likely are you to correctly recall the second item in the pair?|Type your response on a scale from 0-100 and then press Enter.",Study/JOL,"Study Phase",3187,,,2163,2344,,,,50,1
5f0b14b1938b1e3f7163a926,h4e2o6kk9o,Trevor-ex1,1,49,2020-07-17T09:39:59-07:00,4.3349189758301,7,versionC_stim.csv,JOL_H_VersionC.csv,"Highlight vs normal C","Highlight vs normal",LION,ART,Study1,U,79,69,JOL,User,-,"How likely are you to correctly recall the second item in the pair?|Type your response on a scale from 0-100 and then press Enter.",Study/JOL,"Study Phase",3538,,,2748,2989,,,,20,1
5f0b14b1938b1e3f7163a926,h4e2o6kk9o,Trevor-ex1,1,50,2020-07-17T09:40:03-07:00,4.051589012146,7,versionC_stim.csv,JOL_H_VersionC.csv,"Highlight vs normal C","Highlight vs normal",ADD,VALLEY,Study1,U,82,55,JOL,User,-,"How likely are you to correctly recall the second item in the pair?|Type your response on a scale from 0-100 and then press Enter.",Study/JOL,"Study Phase",3401,,,2627,2803,,,,10,1
5f0b14b1938b1e3f7163a926,h4e2o6kk9o,Trevor-ex1,1,51,2020-07-17T09:40:08-07:00,5.2224671840668,7,versionC_stim.csv,JOL_H_VersionC.csv,"Highlight vs normal C","Highlight vs normal",ACCIDENT,STRONG,Study1,U,80,70,JOL,User,-,"How likely are you to correctly recall the second item in the pair?|Type your response on a scale from 0-100 and then press Enter.",Study/JOL,"Study Phase",4312,,,3618,3727,,,,20,1
5f0b14b1938b1e3f7163a926,h4e2o6kk9o,Trevor-ex1,1,52,2020-07-17T09:40:12-07:00,3.601616859436,7,versionC_stim.csv,JOL_H_VersionC.csv,"Highlight vs normal C","Highlight vs normal",WATER,BRIDGE,Study1,B,18,44,JOL_H,User,-,"How likely are you to correctly recall the second item in the pair?|Type your response on a scale from 0-100 and then press Enter.",Study/JOL,"Study Phase",2693,,,1942,2089,,,,40,1
5f0b14b1938b1e3f7163a926,h4e2o6kk9o,Trevor-ex1,1,53,2020-07-17T09:40:17-07:00,5.4290370941162,7,versionC_stim.csv,JOL_H_VersionC.csv,"Highlight vs normal C","Highlight vs normal",NEWS,EDITOR,Study1,B,10,79,JOL,User,-,"How likely are you to correctly recall the second item in the pair?|Type your response on a scale from 0-100 and then press Enter.",Study/JOL,"Study Phase",4616,,,2562,4209,,,,75,1
5f0b14b1938b1e3f7163a926,h4e2o6kk9o,Trevor-ex1,1,54,2020-07-17T09:40:23-07:00,6.114639043808,7,versionC_stim.csv,JOL_H_VersionC.csv,"Highlight vs normal C","Highlight vs normal",SACKING,DIETARY,Study1,U,67,22,JOL_H,User,-,"How likely are you to correctly recall the second item in the pair?|Type your response on a scale from 0-100 and then press Enter.",Study/JOL,"Study Phase",5283,,,4403,4500,,,,10,1
5f0b14b1938b1e3f7163a926,h4e2o6kk9o,Trevor-ex1,1,55,2020-07-17T09:40:27-07:00,3.3281178474426,7,versionC_stim.csv,JOL_H_VersionC.csv,"Highlight vs normal C","Highlight vs normal",FLOOR,DISCOVER,Study1,U,71,62,JOL,User,-,"How likely are you to correctly recall the second item in the pair?|Type your response on a scale from 0-100 and then press Enter.",Study/JOL,"Study Phase",2569,,,1918,1918,,,,0,1
5f0b14b1938b1e3f7163a926,h4e2o6kk9o,Trevor-ex1,1,56,2020-07-17T09:40:30-07:00,3.4368150234222,7,versionC_stim.csv,JOL_H_VersionC.csv,"Highlight vs normal C","Highlight vs normal",RIDDLE,SUGAR,Study1,U,81,7,JOL_H,User,-,"How likely are you to correctly recall the second item in the pair?|Type your response on a scale from 0-100 and then press Enter.",Study/JOL,"Study Phase",2695,,,2089,2089,,,,0,1
5f0b14b1938b1e3f7163a926,h4e2o6kk9o,Trevor-ex1,1,57,2020-07-17T09:40:35-07:00,4.67990899086,7,versionC_stim.csv,JOL_H_VersionC.csv,"Highlight vs normal C","Highlight vs normal",TUCK,ALLOW,Study1,U,78,24,JOL_H,User,-,"How likely are you to correctly recall the second item in the pair?|Type your response on a scale from 0-100 and then press Enter.",Study/JOL,"Study Phase",3983,,,1495,3556,,,,5,1
5f0b14b1938b1e3f7163a926,h4e2o6kk9o,Trevor-ex1,1,58,2020-07-17T09:40:38-07:00,3.0908479690552,7,versionC_stim.csv,JOL_H_VersionC.csv,"Highlight vs normal C","Highlight vs normal",HAMMER,CHISEL,Study1,B,9,20,JOL_H,User,-,"How likely are you to correctly recall the second item in the pair?|Type your response on a scale from 0-100 and then press Enter.",Study/JOL,"Study Phase",2288,,,1721,1721,,,,1,1
5f0b14b1938b1e3f7163a926,h4e2o6kk9o,Trevor-ex1,1,59,2020-07-17T09:40:43-07:00,5.3394150733948,7,versionC_stim.csv,JOL_H_VersionC.csv,"Highlight vs normal C","Highlight vs normal",FANTASTIC,GREAT,Study1,F,35,82,JOL,User,-,"How likely are you to correctly recall the second item in the pair?|Type your response on a scale from 0-100 and then press Enter.",Study/JOL,"Study Phase",4584,,,2837,2968,,,,30,1
5f0b14b1938b1e3f7163a926,h4e2o6kk9o,Trevor-ex1,1,60,2020-07-17T09:40:48-07:00,4.5645270347595,7,versionC_stim.csv,JOL_H_VersionC.csv,"Highlight vs normal C","Highlight vs normal",CAVE,DARK,Study1,F,28,10,JOL_H,User,-,"How likely are you to correctly recall the second item in the pair?|Type your response on a scale from 0-100 and then press Enter.",Study/JOL,"Study Phase",3801,,,3015,3214,,,,50,1
5f0b14b1938b1e3f7163a926,h4e2o6kk9o,Trevor-ex1,1,61,2020-07-17T09:40:52-07:00,3.772145986557,7,versionC_stim.csv,JOL_H_VersionC.csv,"Highlight vs normal C","Highlight vs normal",SALAD,LETTUCE,Study1,S,59,68,JOL,User,-,"How likely are you to correctly recall the second item in the pair?|Type your response on a scale from 0-100 and then press Enter.",Study/JOL,"Study Phase",3023,,,2056,2428,,,,100,1
5f0b14b1938b1e3f7163a926,h4e2o6kk9o,Trevor-ex1,1,62,2020-07-17T09:40:55-07:00,2.9491260051727,7,versionC_stim.csv,JOL_H_VersionC.csv,"Highlight vs normal C","Highlight vs normal",TOILET,BATHROOM,Study1,S,58,81,JOL,User,-,"How likely are you to correctly recall the second item in the pair?|Type your response on a scale from 0-100 and then press Enter.",Study/JOL,"Study Phase",2277,,,1339,1663,,,,100,1
5f0b14b1938b1e3f7163a926,h4e2o6kk9o,Trevor-ex1,1,63,2020-07-17T09:40:59-07:00,4.5999488830566,7,versionC_stim.csv,JOL_H_VersionC.csv,"Highlight vs normal C","Highlight vs normal",ATTORNEY,LAW,Study1,F,34,67,JOL,User,-,"How likely are you to correctly recall the second item in the pair?|Type your response on a scale from 0-100 and then press Enter.",Study/JOL,"Study Phase",3753,,,3137,3224,,,,70,1
5f0b14b1938b1e3f7163a926,h4e2o6kk9o,Trevor-ex1,1,64,2020-07-17T09:41:02-07:00,3.2855591773987,7,versionC_stim.csv,JOL_H_VersionC.csv,"Highlight vs normal C","Highlight vs normal",WOMAN,LIFT,Study1,U,69,18,JOL_H,User,-,"How likely are you to correctly recall the second item in the pair?|Type your response on a scale from 0-100 and then press Enter.",Study/JOL,"Study Phase",2520,,,1767,1941,,,,30,1
5f0b14b1938b1e3f7163a926,h4e2o6kk9o,Trevor-ex1,1,65,2020-07-17T09:41:09-07:00,6.3895869255066,7,versionC_stim.csv,JOL_H_VersionC.csv,"Highlight vs normal C","Highlight vs normal",SITE,LOCATION,Study1,S,48,73,JOL,User,-,"How likely are you to correctly recall the second item in the pair?|Type your response on a scale from 0-100 and then press Enter.",Study/JOL,"Study Phase",5530,,,2781,4987,,,,50,1
5f0b14b1938b1e3f7163a926,h4e2o6kk9o,Trevor-ex1,1,66,2020-07-17T09:41:12-07:00,3.2778689861298,7,versionC_stim.csv,JOL_H_VersionC.csv,"Highlight vs normal C","Highlight vs normal",BRONZE,ARTERY,Study1,U,74,50,JOL,User,-,"How likely are you to correctly recall the second item in the pair?|Type your response on a scale from 0-100 and then press Enter.",Study/JOL,"Study Phase",2617,,,1860,2019,,,,40,1
5f0b14b1938b1e3f7163a926,h4e2o6kk9o,Trevor-ex1,1,67,2020-07-17T09:41:17-07:00,4.6211221218109,7,versionC_stim.csv,JOL_H_VersionC.csv,"Highlight vs normal C","Highlight vs normal",BEE,HONEY,Study1,S,63,13,JOL_H,User,-,"How likely are you to correctly recall the second item in the pair?|Type your response on a scale from 0-100 and then press Enter.",Study/JOL,"Study Phase",3860,,,3197,3308,,,,70,1
5f0b14b1938b1e3f7163a926,h4e2o6kk9o,Trevor-ex1,1,68,2020-07-17T09:41:20-07:00,2.9542939662933,7,versionC_stim.csv,JOL_H_VersionC.csv,"Highlight vs normal C","Highlight vs normal",CARD,CREDIT,Study1,B,23,45,JOL_H,User,-,"How likely are you to correctly recall the second item in the pair?|Type your response on a scale from 0-100 and then press Enter.",Study/JOL,"Study Phase",2311,,,1685,1758,,,,80,1
5f0b14b1938b1e3f7163a926,h4e2o6kk9o,Trevor-ex1,1,69,2020-07-17T09:41:24-07:00,4.6196830272675,7,versionC_stim.csv,JOL_H_VersionC.csv,"Highlight vs normal C","Highlight vs normal",BUSINESS,DEATH,Study1,U,72,85,JOL,User,-,"How likely are you to correctly recall the second item in the pair?|Type your response on a scale from 0-100 and then press Enter.",Study/JOL,"Study Phase",3886,,,2583,2919,,,,50,1
5f0b14b1938b1e3f7163a926,h4e2o6kk9o,Trevor-ex1,1,70,2020-07-17T09:41:28-07:00,3.7883698940277,7,versionC_stim.csv,JOL_H_VersionC.csv,"Highlight vs normal C","Highlight vs normal",CHORE,WORK,Study1,F,39,47,JOL,User,-,"How likely are you to correctly recall the second item in the pair?|Type your response on a scale from 0-100 and then press Enter.",Study/JOL,"Study Phase",2987,,,2295,2429,,,,70,1
5f0b14b1938b1e3f7163a926,h4e2o6kk9o,Trevor-ex1,1,71,2020-07-17T09:41:33-07:00,4.4991989135742,7,versionC_stim.csv,JOL_H_VersionC.csv,"Highlight vs normal C","Highlight vs normal",DEFINITION,MEANING,Study1,S,62,17,JOL_H,User,-,"How likely are you to correctly recall the second item in the pair?|Type your response on a scale from 0-100 and then press Enter.",Study/JOL,"Study Phase",3687,,,3085,3207,,,,80,1
5f0b14b1938b1e3f7163a926,h4e2o6kk9o,Trevor-ex1,1,72,2020-07-17T09:41:35-07:00,2.7602021694183,7,versionC_stim.csv,JOL_H_VersionC.csv,"Highlight vs normal C","Highlight vs normal",DOG,PAW,Study1,B,15,36,JOL_H,User,-,"How likely are you to correctly recall the second item in the pair?|Type your response on a scale from 0-100 and then press Enter.",Study/JOL,"Study Phase",2049,,,1359,1506,,,,90,1
5f0b14b1938b1e3f7163a926,h4e2o6kk9o,Trevor-ex1,1,73,2020-07-17T09:41:42-07:00,6.3954119682312,7,versionC_stim.csv,JOL_H_VersionC.csv,"Highlight vs normal C","Highlight vs normal",SEIZE,TAKE,Study1,F,29,72,JOL,User,-,"How likely are you to correctly recall the second item in the pair?|Type your response on a scale from 0-100 and then press Enter.",Study/JOL,"Study Phase",5545,,,2280,4995,,,,65,1
5f0b14b1938b1e3f7163a926,h4e2o6kk9o,Trevor-ex1,1,74,2020-07-17T09:41:46-07:00,4.1324598789215,7,versionC_stim.csv,JOL_H_VersionC.csv,"Highlight vs normal C","Highlight vs normal",FLOWER,ORCHID,Study1,B,24,26,JOL_H,User,-,"How likely are you to correctly recall the second item in the pair?|Type your response on a scale from 0-100 and then press Enter.",Study/JOL,"Study Phase",3408,,,2158,2295,,,,60,1
5f0b14b1938b1e3f7163a926,h4e2o6kk9o,Trevor-ex1,1,75,2020-07-17T09:41:49-07:00,3.5582520961761,7,versionC_stim.csv,JOL_H_VersionC.csv,"Highlight vs normal C","Highlight vs normal",PLANT,ROOT,Study1,B,13,9,JOL_H,User,-,"How likely are you to correctly recall the second item in the pair?|Type your response on a scale from 0-100 and then press Enter.",Study/JOL,"Study Phase",2685,,,2043,2126,,,,70,1
5f0b14b1938b1e3f7163a926,h4e2o6kk9o,Trevor-ex1,1,76,2020-07-17T09:41:53-07:00,3.3105108737946,7,versionC_stim.csv,JOL_H_VersionC.csv,"Highlight vs normal C","Highlight vs normal",POSITION,MACHINE,Study1,U,76,23,JOL_H,User,-,"How likely are you to correctly recall the second item in the pair?|Type your response on a scale from 0-100 and then press Enter.",Study/JOL,"Study Phase",2681,,,2010,2073,,,,30,1
5f0b14b1938b1e3f7163a926,h4e2o6kk9o,Trevor-ex1,1,77,2020-07-17T09:41:57-07:00,3.7996101379395,7,versionC_stim.csv,JOL_H_VersionC.csv,"Highlight vs normal C","Highlight vs normal",DROWSY,SLEEP,Study1,F,41,59,JOL,User,-,"How likely are you to correctly recall the second item in the pair?|Type your response on a scale from 0-100 and then press Enter.",Study/JOL,"Study Phase",3020,,,2386,2505,,,,50,1
5f0b14b1938b1e3f7163a926,h4e2o6kk9o,Trevor-ex1,1,78,2020-07-17T09:42:00-07:00,3.5660018920898,7,versionC_stim.csv,JOL_H_VersionC.csv,"Highlight vs normal C","Highlight vs normal",VASE,KING,Study1,U,85,33,JOL_H,User,-,"How likely are you to correctly recall the second item in the pair?|Type your response on a scale from 0-100 and then press Enter.",Study/JOL,"Study Phase",2744,,,2275,2275,,,,0,1
5f0b14b1938b1e3f7163a926,h4e2o6kk9o,Trevor-ex1,1,79,2020-07-17T09:42:04-07:00,3.8632040023804,7,versionC_stim.csv,JOL_H_VersionC.csv,"Highlight vs normal C","Highlight vs normal",OUT,WAY,Study1,B,16,64,JOL,User,-,"How likely are you to correctly recall the second item in the pair?|Type your response on a scale from 0-100 and then press Enter.",Study/JOL,"Study Phase",3152,,,2551,2670,,,,30,1
5f0b14b1938b1e3f7163a926,h4e2o6kk9o,Trevor-ex1,1,80,2020-07-17T09:42:07-07:00,3.513396024704,7,versionC_stim.csv,JOL_H_VersionC.csv,"Highlight vs normal C","Highlight vs normal",AMOUNT,NUMBER,Study1,S,47,15,JOL_H,User,-,"How likely are you to correctly recall the second item in the pair?|Type your response on a scale from 0-100 and then press Enter.",Study/JOL,"Study Phase",2693,,,2060,2156,,,,30,1
5f0b14b1938b1e3f7163a926,h4e2o6kk9o,Trevor-ex1,1,81,2020-07-17T09:42:11-07:00,3.5616791248322,7,versionC_stim.csv,JOL_H_VersionC.csv,"Highlight vs normal C","Highlight vs normal",DESIGN,ARCHITECTURE,Study1,S,51,49,JOL,User,-,"How likely are you to correctly recall the second item in the pair?|Type your response on a scale from 0-100 and then press Enter.",Study/JOL,"Study Phase",2865,,,2141,2304,,,,80,1
5f0b14b1938b1e3f7163a926,h4e2o6kk9o,Trevor-ex1,1,82,2020-07-17T09:42:15-07:00,4.4019799232483,7,versionC_stim.csv,JOL_H_VersionC.csv,"Highlight vs normal C","Highlight vs normal",HUNGRY,PARK,Study1,U,68,32,JOL_H,User,-,"How likely are you to correctly recall the second item in the pair?|Type your response on a scale from 0-100 and then press Enter.",Study/JOL,"Study Phase",3715,,,2967,3088,,,,20,1
5f0b14b1938b1e3f7163a926,h4e2o6kk9o,Trevor-ex1,1,83,2020-07-17T09:42:18-07:00,2.9291229248047,7,versionC_stim.csv,JOL_H_VersionC.csv,"Highlight vs normal C","Highlight vs normal",BLAZE,FIRE,Study1,F,45,86,JOL,User,-,"How likely are you to correctly recall the second item in the pair?|Type your response on a scale from 0-100 and then press Enter.",Study/JOL,"Study Phase",2017,,,1375,1496,,,,40,1
5f0b14b1938b1e3f7163a926,h4e2o6kk9o,Trevor-ex1,1,84,2020-07-17T09:42:26-07:00,7.3483510017395,7,versionC_stim.csv,JOL_H_VersionC.csv,"Highlight vs normal C","Highlight vs normal",SIGHT,DEBATE,Study1,U,73,43,JOL_H,User,-,"How likely are you to correctly recall the second item in the pair?|Type your response on a scale from 0-100 and then press Enter.",Study/JOL,"Study Phase",5665,,,1991,5159,,,,10,1
5f0b14b1938b1e3f7163a926,h4e2o6kk9o,Trevor-ex1,1,85,2020-07-17T09:42:31-07:00,5.4000861644745,7,versionC_stim.csv,JOL_H_VersionC.csv,"Highlight vs normal C","Highlight vs normal",CHILI,HOT,Study1,F,37,29,JOL_H,User,-,"How likely are you to correctly recall the second item in the pair?|Type your response on a scale from 0-100 and then press Enter.",Study/JOL,"Study Phase",3433,,,2740,2846,,,,70,1
5f0b14b1938b1e3f7163a926,h4e2o6kk9o,Trevor-ex1,1,86,2020-07-17T09:42:34-07:00,3.1161878108978,7,versionC_stim.csv,JOL_H_VersionC.csv,"Highlight vs normal C","Highlight vs normal",ROUND,CIRCLE,Study1,S,65,35,JOL_H,User,-,"How likely are you to correctly recall the second item in the pair?|Type your response on a scale from 0-100 and then press Enter.",Study/JOL,"Study Phase",2445,,,1817,1932,,,,80,1
5f0b14b1938b1e3f7163a926,h4e2o6kk9o,Trevor-ex1,1,87,2020-07-17T09:42:38-07:00,3.9059209823608,7,versionC_stim.csv,JOL_H_VersionC.csv,"Highlight vs normal C","Highlight vs normal",RACKET,BALL,Study1,F,38,46,JOL_H,User,-,"How likely are you to correctly recall the second item in the pair?|Type your response on a scale from 0-100 and then press Enter.",Study/JOL,"Study Phase",2832,,,2169,2285,,,,90,1
5f0b14b1938b1e3f7163a926,h4e2o6kk9o,Trevor-ex1,1,88,2020-07-17T09:42:42-07:00,3.8509960174561,7,versionC_stim.csv,JOL_H_VersionC.csv,"Highlight vs normal C","Highlight vs normal",LIVER,KIDNEY,Study1,S,53,84,JOL,User,-,"How likely are you to correctly recall the second item in the pair?|Type your response on a scale from 0-100 and then press Enter.",Study/JOL,"Study Phase",3191,,,2547,2658,,,,70,1
5f0b14b1938b1e3f7163a926,h4e2o6kk9o,Trevor-ex1,1,89,2020-07-17T09:42:47-07:00,5.0030891895294,7,versionC_stim.csv,JOL_H_VersionC.csv,"Highlight vs normal C","Highlight vs normal",WASTE,DUMP,Study1,S,49,31,JOL_H,User,-,"How likely are you to correctly recall the second item in the pair?|Type your response on a scale from 0-100 and then press Enter.",Study/JOL,"Study Phase",4189,,,3046,3579,,,,60,1
5f0b14b1938b1e3f7163a926,h4e2o6kk9o,Trevor-ex1,1,90,2020-07-17T09:42:51-07:00,3.6924698352814,7,versionC_stim.csv,JOL_H_VersionC.csv,"Highlight vs normal C","Highlight vs normal",DIVISION,MATH,Study1,F,33,30,JOL_H,User,-,"How likely are you to correctly recall the second item in the pair?|Type your response on a scale from 0-100 and then press Enter.",Study/JOL,"Study Phase",3016,,,2091,2428,,,,80,1
5f0b14b1938b1e3f7163a926,h4e2o6kk9o,Trevor-ex1,1,91,2020-07-17T09:42:53-07:00,2.5752410888672,7,versionC_stim.csv,JOL_H_VersionC.csv,"Highlight vs normal C","Highlight vs normal",POLICE,SHERRIF,BUFFER2,Buffer,87,87,JOL_H,User,-,"How likely are you to correctly recall the second item in the pair?|Type your response on a scale from 0-100 and then press Enter.",Study/JOL,BUFFER2,1843,,,1188,1310,,,,90,1
5f0b14b1938b1e3f7163a926,h4e2o6kk9o,Trevor-ex1,1,92,2020-07-17T09:42:56-07:00,3.1203870773315,7,versionC_stim.csv,JOL_H_VersionC.csv,"Highlight vs normal C","Highlight vs normal",SPACE,MOON,BUFFER2,Buffer,89,90,JOL,User,-,"How likely are you to correctly recall the second item in the pair?|Type your response on a scale from 0-100 and then press Enter.",Study/JOL,BUFFER2,2459,,,1609,1888,,,,100,1
5f0b14b1938b1e3f7163a926,h4e2o6kk9o,Trevor-ex1,1,93,2020-07-17T09:42:59-07:00,2.9642629623413,7,versionC_stim.csv,JOL_H_VersionC.csv,"Highlight vs normal C","Highlight vs normal",GOOSE,GEESE,BUFFER2,Buffer,86,91,JOL,User,-,"How likely are you to correctly recall the second item in the pair?|Type your response on a scale from 0-100 and then press Enter.",Study/JOL,BUFFER2,2152,,,1318,1617,,,,100,1
5f0b14b1938b1e3f7163a926,h4e2o6kk9o,Trevor-ex1,1,94,2020-07-17T09:43:04-07:00,4.3098518848419,7,versionC_stim.csv,JOL_H_VersionC.csv,"Highlight vs normal C","Highlight vs normal",STUFF,THING,BUFFER2,Buffer,90,89,JOL_H,User,-,"How likely are you to correctly recall the second item in the pair?|Type your response on a scale from 0-100 and then press Enter.",Study/JOL,BUFFER2,3601,,,935,3129,,,,50,1
5f0b14b1938b1e3f7163a926,h4e2o6kk9o,Trevor-ex1,1,95,2020-07-17T09:43:09-07:00,5.3085300922394,7,versionC_stim.csv,JOL_H_VersionC.csv,"Highlight vs normal C","Highlight vs normal",CHOCOLATE,MALT,BUFFER2,Buffer,88,88,JOL_H,User,-,"How likely are you to correctly recall the second item in the pair?|Type your response on a scale from 0-100 and then press Enter.",Study/JOL,BUFFER2,4488,,,2002,3980,,,,30,1
5f0b14b1938b1e3f7163a926,h4e2o6kk9o,Trevor-ex1,1,96,2020-07-17T09:43:12-07:00,2.8635468482971,7,versionC_stim.csv,JOL_H_VersionC.csv,"Highlight vs normal C","Highlight vs normal",,,,,,0,Instruct,User,-,"You have completed this section. Please press Enter.",Filler_Instruction,Instruct2,2180,,,-1,-1,,,,,1
5f0b14b1938b1e3f7163a926,h4e2o6kk9o,Trevor-ex1,1,97,2020-07-17T09:45:13-07:00,120.95598220825,7,versionC_stim.csv,JOL_H_VersionC.csv,"Highlight vs normal C","Highlight vs normal",,,,,,0,FreeRecall,120,120,"Please list the 50 US states in alphabetical order. The task will automatically advance to the next screen after two minutes.",,Filler1,120013,"albama alaska arizona arkansas california colorado connecticut delaware florida georgia hawa",0,60902,119826,0,0,,,0.662
5f0b14b1938b1e3f7163a926,h4e2o6kk9o,Trevor-ex1,1,98,2020-07-17T09:45:25-07:00,11.850544929504,7,versionC_stim.csv,JOL_H_VersionC.csv,"Highlight vs normal C","Highlight vs normal",,,,,,0,Instruct,-,10,"You will now be presented with the first word from each of the previously studied item pairs. Please type the missing word. If you do not know the word, you may guess or press Enter to skip forward to the next pair.",,Instruct3,11016,,,-1,-1,,,,,1
5f0b14b1938b1e3f7163a926,h4e2o6kk9o,Trevor-ex1,1,99,2020-07-17T09:45:36-07:00,11.367899894714,7,versionC_stim.csv,JOL_H_VersionC.csv,"Highlight vs normal C","Highlight vs normal",AMOUNT,NUMBER,Study1,S,47,15,Test,User,-,,Recall,Recall1,10413,"Number ",100,2768,9801,1,1,,,1
5f0b14b1938b1e3f7163a926,h4e2o6kk9o,Trevor-ex1,1,100,2020-07-17T09:45:40-07:00,4.2225852012634,7,versionC_stim.csv,JOL_H_VersionC.csv,"Highlight vs normal C","Highlight vs normal",CHEESE,WINE,Study1,S,57,83,Test,User,-,,Recall,Recall1,3333,"Wine ",100,2077,2758,1,1,,,1
5f0b14b1938b1e3f7163a926,h4e2o6kk9o,Trevor-ex1,1,101,2020-07-17T09:45:48-07:00,7.6683747768402,7,versionC_stim.csv,JOL_H_VersionC.csv,"Highlight vs normal C","Highlight vs normal",LATCH,KEY,Study1,F,36,57,Test,User,-,,Recall,Recall1,6841,"clasp ",0,4898,6170,0,0,,,1
5f0b14b1938b1e3f7163a926,h4e2o6kk9o,Trevor-ex1,1,102,2020-07-17T09:45:53-07:00,5.1889910697937,7,versionC_stim.csv,JOL_H_VersionC.csv,"Highlight vs normal C","Highlight vs normal",STING,HORNET,Study1,B,11,77,Test,User,-,,Recall,Recall1,4452,Bug,0,2993,3566,0,0,,,1
5f0b14b1938b1e3f7163a926,h4e2o6kk9o,Trevor-ex1,1,103,2020-07-17T09:45:56-07:00,3.2786250114441,7,versionC_stim.csv,JOL_H_VersionC.csv,"Highlight vs normal C","Highlight vs normal",RACKET,BALL,Study1,F,38,46,Test,User,-,,Recall,Recall1,2554,Ball,100,1318,1979,1,1,,,1
5f0b14b1938b1e3f7163a926,h4e2o6kk9o,Trevor-ex1,1,104,2020-07-17T09:46:04-07:00,7.3979320526123,7,versionC_stim.csv,JOL_H_VersionC.csv,"Highlight vs normal C","Highlight vs normal",SACKING,DIETARY,Study1,U,67,22,Test,User,-,,Recall,Recall1,6620,Fire,36.363636363636,5214,6026,0,0,,,1
5f0b14b1938b1e3f7163a926,h4e2o6kk9o,Trevor-ex1,1,105,2020-07-17T09:46:09-07:00,5.2263770103455,7,versionC_stim.csv,JOL_H_VersionC.csv,"Highlight vs normal C","Highlight vs normal",FISH,TUNA,Study1,B,25,19,Test,User,-,,Recall,Recall1,4415,,0,-1,-1,0,0,,,1
5f0b14b1938b1e3f7163a926,h4e2o6kk9o,Trevor-ex1,1,106,2020-07-17T09:46:14-07:00,5.4671189785004,7,versionC_stim.csv,JOL_H_VersionC.csv,"Highlight vs normal C","Highlight vs normal",BAD,DELINQUENT,Study1,B,6,11,Test,User,-,,Recall,Recall1,4794,Mad,15.384615384615,2429,4233,0,0,,,1
5f0b14b1938b1e3f7163a926,h4e2o6kk9o,Trevor-ex1,1,107,2020-07-17T09:46:19-07:00,5.042496919632,7,versionC_stim.csv,JOL_H_VersionC.csv,"Highlight vs normal C","Highlight vs normal",BAR,GRILL,Study1,S,52,16,Test,User,-,,Recall,Recall1,4096,Bell,44.444444444444,2120,3421,0,0,,,1
5f0b14b1938b1e3f7163a926,h4e2o6kk9o,Trevor-ex1,1,108,2020-07-17T09:46:23-07:00,3.7288420200348,7,versionC_stim.csv,JOL_H_VersionC.csv,"Highlight vs normal C","Highlight vs normal",VASE,KING,Study1,U,85,33,Test,User,-,,Recall,Recall1,3096,,0,-1,-1,0,0,,,1
5f0b14b1938b1e3f7163a926,h4e2o6kk9o,Trevor-ex1,1,109,2020-07-17T09:46:26-07:00,3.0898540019989,7,versionC_stim.csv,JOL_H_VersionC.csv,"Highlight vs normal C","Highlight vs normal",TALK,DISCUSSION,Study1,B,21,76,Test,User,-,,Recall,Recall1,2375,,0,-1,-1,0,0,,,1
5f0b14b1938b1e3f7163a926,h4e2o6kk9o,Trevor-ex1,1,110,2020-07-17T09:46:33-07:00,6.308002948761,7,versionC_stim.csv,JOL_H_VersionC.csv,"Highlight vs normal C","Highlight vs normal",FLOWER,ORCHID,Study1,B,24,26,Test,User,-,,Recall,Recall1,5590,Orchid,100,2216,4931,1,1,,,1
5f0b14b1938b1e3f7163a926,h4e2o6kk9o,Trevor-ex1,1,111,2020-07-17T09:46:41-07:00,8.3368771076202,7,versionC_stim.csv,JOL_H_VersionC.csv,"Highlight vs normal C","Highlight vs normal",SICK,HIDE,Study1,U,84,52,Test,User,-,,Recall,Recall1,7452,Ill,28.571428571429,2763,6747,0,0,,,1
5f0b14b1938b1e3f7163a926,h4e2o6kk9o,Trevor-ex1,1,112,2020-07-17T09:46:44-07:00,2.7828528881073,7,versionC_stim.csv,JOL_H_VersionC.csv,"Highlight vs normal C","Highlight vs normal",SODA,POP,Study1,S,56,25,Test,User,-,,Recall,Recall1,2058,pop,100,1124,1434,1,1,,,1
5f0b14b1938b1e3f7163a926,h4e2o6kk9o,Trevor-ex1,1,113,2020-07-17T09:46:50-07:00,6.7382121086121,7,versionC_stim.csv,JOL_H_VersionC.csv,"Highlight vs normal C","Highlight vs normal",STOMACH,DIGESTION,Study1,B,7,21,Test,User,-,,Recall,Recall1,5856,digestion,100,1718,4866,1,1,,,1
5f0b14b1938b1e3f7163a926,h4e2o6kk9o,Trevor-ex1,1,114,2020-07-17T09:46:55-07:00,4.7411329746246,7,versionC_stim.csv,JOL_H_VersionC.csv,"Highlight vs normal C","Highlight vs normal",FANTASTIC,GREAT,Study1,F,35,82,Test,User,-,,Recall,Recall1,2962,Big,25,1469,2024,0,0,,,1
5f0b14b1938b1e3f7163a926,h4e2o6kk9o,Trevor-ex1,1,115,2020-07-17T09:47:00-07:00,4.5566298961639,7,versionC_stim.csv,JOL_H_VersionC.csv,"Highlight vs normal C","Highlight vs normal",ATTIRE,CLOTHES,Study1,F,43,65,Test,User,-,,Recall,Recall1,3719,outfit,30.769230769231,2051,3166,0,0,,,1
5f0b14b1938b1e3f7163a926,h4e2o6kk9o,Trevor-ex1,1,116,2020-07-17T09:47:05-07:00,4.954136133194,7,versionC_stim.csv,JOL_H_VersionC.csv,"Highlight vs normal C","Highlight vs normal",WAR,REVOLUTION,Study1,B,20,60,Test,User,-,,Recall,Recall1,4274,revolution,100,1642,3639,1,1,,,1
5f0b14b1938b1e3f7163a926,h4e2o6kk9o,Trevor-ex1,1,117,2020-07-17T09:47:12-07:00,7.1850650310516,7,versionC_stim.csv,JOL_H_VersionC.csv,"Highlight vs normal C","Highlight vs normal",WATER,BRIDGE,Study1,B,18,44,Test,User,-,,Recall,Recall1,6355,sea,22.222222222222,5464,5903,0,0,,,1
5f0b14b1938b1e3f7163a926,h4e2o6kk9o,Trevor-ex1,1,118,2020-07-17T09:47:16-07:00,4.2426409721375,7,versionC_stim.csv,JOL_H_VersionC.csv,"Highlight vs normal C","Highlight vs normal",GROWTH,HEIGHT,Study1,F,30,34,Test,User,-,,Recall,Recall1,3083,height,100,1572,2521,1,1,,,1
5f0b14b1938b1e3f7163a926,h4e2o6kk9o,Trevor-ex1,1,119,2020-07-17T09:47:24-07:00,7.9883239269257,7,versionC_stim.csv,JOL_H_VersionC.csv,"Highlight vs normal C","Highlight vs normal",HUNGRY,PARK,Study1,U,68,32,Test,User,-,,Recall,Recall1,7109,straving,16.666666666667,3585,5013,0,0,,,1
5f0b14b1938b1e3f7163a926,h4e2o6kk9o,Trevor-ex1,1,120,2020-07-17T09:47:31-07:00,6.3803451061249,7,versionC_stim.csv,JOL_H_VersionC.csv,"Highlight vs normal C","Highlight vs normal",BIRD,SWAN,Study1,B,14,40,Test,User,-,,Recall,Recall1,5552,swan,100,4433,4997,1,1,,,1
5f0b14b1938b1e3f7163a926,h4e2o6kk9o,Trevor-ex1,1,121,2020-07-17T09:47:34-07:00,3.7327289581299,7,versionC_stim.csv,JOL_H_VersionC.csv,"Highlight vs normal C","Highlight vs normal",WORD,SENTENCE,Study1,F,31,56,Test,User,-,,Recall,Recall1,3005,,0,-1,-1,0,0,,,1
5f0b14b1938b1e3f7163a926,h4e2o6kk9o,Trevor-ex1,1,122,2020-07-17T09:47:39-07:00,5.09845495224,7,versionC_stim.csv,JOL_H_VersionC.csv,"Highlight vs normal C","Highlight vs normal",WOULD,CASH,Study1,U,83,63,Test,User,-,,Recall,Recall1,4271,could,22.222222222222,3153,3822,0,0,,,1
5f0b14b1938b1e3f7163a926,h4e2o6kk9o,Trevor-ex1,1,123,2020-07-17T09:47:44-07:00,4.2173669338226,7,versionC_stim.csv,JOL_H_VersionC.csv,"Highlight vs normal C","Highlight vs normal",ROUND,CIRCLE,Study1,S,65,35,Test,User,-,,Recall,Recall1,3286,circle,100,1464,2504,1,1,,,1
5f0b14b1938b1e3f7163a926,h4e2o6kk9o,Trevor-ex1,1,124,2020-07-17T09:47:48-07:00,3.9662501811981,7,versionC_stim.csv,JOL_H_VersionC.csv,"Highlight vs normal C","Highlight vs normal",DOG,PAW,Study1,B,15,36,Test,User,-,,Recall,Recall1,3221,cat,33.333333333333,2378,2610,0,0,,,1
5f0b14b1938b1e3f7163a926,h4e2o6kk9o,Trevor-ex1,1,125,2020-07-17T09:47:56-07:00,8.1432569026947,7,versionC_stim.csv,JOL_H_VersionC.csv,"Highlight vs normal C","Highlight vs normal",ROCK,GEOLOGY,Study1,B,19,54,Test,User,-,,Recall,Recall1,7350,geology,100,2349,6620,1,1,,,1
5f0b14b1938b1e3f7163a926,h4e2o6kk9o,Trevor-ex1,1,126,2020-07-17T09:47:59-07:00,3.2278170585632,7,versionC_stim.csv,JOL_H_VersionC.csv,"Highlight vs normal C","Highlight vs normal",CHILI,HOT,Study1,F,37,29,Test,User,-,,Recall,Recall1,2348,hot,100,1490,1900,1,1,,,1
5f0b14b1938b1e3f7163a926,h4e2o6kk9o,Trevor-ex1,1,127,2020-07-17T09:48:05-07:00,5.8333170413971,7,versionC_stim.csv,JOL_H_VersionC.csv,"Highlight vs normal C","Highlight vs normal",CAR,HAPPY,Study1,U,77,42,Test,User,-,,Recall,Recall1,5062,fun,0,4137,4525,0,0,,,1
5f0b14b1938b1e3f7163a926,h4e2o6kk9o,Trevor-ex1,1,128,2020-07-17T09:48:08-07:00,3.0374019145966,7,versionC_stim.csv,JOL_H_VersionC.csv,"Highlight vs normal C","Highlight vs normal",BELT,SOON,Study1,U,70,37,Test,User,-,,Recall,Recall1,2260,,0,-1,-1,0,0,,,1
5f0b14b1938b1e3f7163a926,h4e2o6kk9o,Trevor-ex1,1,129,2020-07-17T09:48:33-07:00,25.026088953018,7,versionC_stim.csv,JOL_H_VersionC.csv,"Highlight vs normal C","Highlight vs normal",TOILET,BATHROOM,Study1,S,58,81,Test,User,-,,Recall,Recall1,24216,,0,-1,-1,0,0,,,1
5f0b14b1938b1e3f7163a926,h4e2o6kk9o,Trevor-ex1,1,130,2020-07-17T09:48:39-07:00,6.2868919372559,7,versionC_stim.csv,JOL_H_VersionC.csv,"Highlight vs normal C","Highlight vs normal",ATTORNEY,LAW,Study1,F,34,67,Test,User,-,,Recall,Recall1,5466,Law,100,4483,5003,1,1,,,1
5f0b14b1938b1e3f7163a926,h4e2o6kk9o,Trevor-ex1,1,131,2020-07-17T09:48:44-07:00,5.3026690483093,7,versionC_stim.csv,JOL_H_VersionC.csv,"Highlight vs normal C","Highlight vs normal",LION,ART,Study1,U,79,69,Test,User,-,,Recall,Recall1,4581,,0,-1,-1,0,0,,,1
5f0b14b1938b1e3f7163a926,h4e2o6kk9o,Trevor-ex1,1,132,2020-07-17T09:48:53-07:00,8.6170320510864,7,versionC_stim.csv,JOL_H_VersionC.csv,"Highlight vs normal C","Highlight vs normal",WASTE,DUMP,Study1,S,49,31,Test,User,-,,Recall,Recall1,7851,trash,0,6511,7237,0,0,,,1
5f0b14b1938b1e3f7163a926,h4e2o6kk9o,Trevor-ex1,1,133,2020-07-17T09:48:56-07:00,3.1144881248474,7,versionC_stim.csv,JOL_H_VersionC.csv,"Highlight vs normal C","Highlight vs normal",PILOT,PLANE,Study1,F,44,51,Test,User,-,,Recall,Recall1,2397,plane,100,1325,1920,1,1,,,1
5f0b14b1938b1e3f7163a926,h4e2o6kk9o,Trevor-ex1,1,134,2020-07-17T09:49:15-07:00,18.88006401062,7,versionC_stim.csv,JOL_H_VersionC.csv,"Highlight vs normal C","Highlight vs normal",JURY,TRIAL,Study1,S,50,80,Test,User,-,,Recall,Recall1,18086,court,20,16917,17542,0,0,,,1
5f0b14b1938b1e3f7163a926,h4e2o6kk9o,Trevor-ex1,1,135,2020-07-17T09:49:20-07:00,4.5666477680206,7,versionC_stim.csv,JOL_H_VersionC.csv,"Highlight vs normal C","Highlight vs normal",WASP,BUG,Study1,F,32,48,Test,User,-,,Recall,Recall1,3530,hornet,0,1846,2866,0,0,,,1
5f0b14b1938b1e3f7163a926,h4e2o6kk9o,Trevor-ex1,1,136,2020-07-17T09:49:24-07:00,4.1377921104431,7,versionC_stim.csv,JOL_H_VersionC.csv,"Highlight vs normal C","Highlight vs normal",STENCH,SMELL,Study1,F,42,14,Test,User,-,,Recall,Recall1,3489,smell,100,2411,2954,1,1,,,1
5f0b14b1938b1e3f7163a926,h4e2o6kk9o,Trevor-ex1,1,137,2020-07-17T09:49:28-07:00,3.9064970016479,7,versionC_stim.csv,JOL_H_VersionC.csv,"Highlight vs normal C","Highlight vs normal",FOOT,SHOE,Study1,S,60,8,Test,User,-,,Recall,Recall1,3018,shoe,100,1906,2520,1,1,,,1
5f0b14b1938b1e3f7163a926,h4e2o6kk9o,Trevor-ex1,1,138,2020-07-17T09:49:34-07:00,6.2356081008911,7,versionC_stim.csv,JOL_H_VersionC.csv,"Highlight vs normal C","Highlight vs normal",WOMAN,LIFT,Study1,U,69,18,Test,User,-,,Recall,Recall1,5605,man,0,4833,5053,0,0,,,1
5f0b14b1938b1e3f7163a926,h4e2o6kk9o,Trevor-ex1,1,139,2020-07-17T09:49:39-07:00,5.4101598262787,7,versionC_stim.csv,JOL_H_VersionC.csv,"Highlight vs normal C","Highlight vs normal",HAND,FIX,Study1,U,75,71,Test,User,-,,Recall,Recall1,3869,,0,-1,-1,0,0,,,1
5f0b14b1938b1e3f7163a926,h4e2o6kk9o,Trevor-ex1,1,140,2020-07-17T09:49:57-07:00,18.189480066299,7,versionC_stim.csv,JOL_H_VersionC.csv,"Highlight vs normal C","Highlight vs normal",NEWS,EDITOR,Study1,B,10,79,Test,User,-,,Recall,Recall1,17422,headline,42.857142857143,15629,16972,0,0,,,1
5f0b14b1938b1e3f7163a926,h4e2o6kk9o,Trevor-ex1,1,141,2020-07-17T09:50:01-07:00,3.1219890117645,7,versionC_stim.csv,JOL_H_VersionC.csv,"Highlight vs normal C","Highlight vs normal",OUT,WAY,Study1,B,16,64,Test,User,-,,Recall,Recall1,2377,in,0,1628,1825,0,0,,,1
5f0b14b1938b1e3f7163a926,h4e2o6kk9o,Trevor-ex1,1,142,2020-07-17T09:50:08-07:00,7.4613649845123,7,versionC_stim.csv,JOL_H_VersionC.csv,"Highlight vs normal C","Highlight vs normal",ACCIDENT,STRONG,Study1,U,80,70,Test,User,-,,Recall,Recall1,6739,no,25,1779,6200,0,0,,,1
5f0b14b1938b1e3f7163a926,h4e2o6kk9o,Trevor-ex1,1,143,2020-07-17T09:50:11-07:00,2.7551770210266,7,versionC_stim.csv,JOL_H_VersionC.csv,"Highlight vs normal C","Highlight vs normal",RIDDLE,SUGAR,Study1,U,81,7,Test,User,-,,Recall,Recall1,2051,,0,-1,-1,0,0,,,1
5f0b14b1938b1e3f7163a926,h4e2o6kk9o,Trevor-ex1,1,144,2020-07-17T09:50:16-07:00,4.9522950649261,7,versionC_stim.csv,JOL_H_VersionC.csv,"Highlight vs normal C","Highlight vs normal",SIP,DRINK,Study1,F,27,27,Test,User,-,,Recall,Recall1,4258,drink,100,2889,3657,1,1,,,1
5f0b14b1938b1e3f7163a926,h4e2o6kk9o,Trevor-ex1,1,145,2020-07-17T09:50:42-07:00,26.046941995621,7,versionC_stim.csv,JOL_H_VersionC.csv,"Highlight vs normal C","Highlight vs normal",BEE,HONEY,Study1,S,63,13,Test,User,-,,Recall,Recall1,25219,,0,-1,-1,0,0,,,1
5f0b14b1938b1e3f7163a926,h4e2o6kk9o,Trevor-ex1,1,146,2020-07-17T09:50:54-07:00,11.811813831329,7,versionC_stim.csv,JOL_H_VersionC.csv,"Highlight vs normal C","Highlight vs normal",CLEAN,HYGIENE,Study1,B,17,38,Test,User,-,,Recall,Recall1,11049,,0,-1,-1,0,0,,,1
5f0b14b1938b1e3f7163a926,h4e2o6kk9o,Trevor-ex1,1,147,2020-07-17T09:50:58-07:00,4.3401670455933,7,versionC_stim.csv,JOL_H_VersionC.csv,"Highlight vs normal C","Highlight vs normal",CARD,CREDIT,Study1,B,23,45,Test,User,-,,Recall,Recall1,3270,pay,0,2470,2777,0,0,,,1
5f0b14b1938b1e3f7163a926,h4e2o6kk9o,Trevor-ex1,1,148,2020-07-17T09:51:12-07:00,14.128714084625,7,versionC_stim.csv,JOL_H_VersionC.csv,"Highlight vs normal C","Highlight vs normal",PLANT,ROOT,Study1,B,13,9,Test,User,-,,Recall,Recall1,13408,roots,88.888888888889,12289,13036,0,1,,,1
5f0b14b1938b1e3f7163a926,h4e2o6kk9o,Trevor-ex1,1,149,2020-07-17T09:51:15-07:00,3.0943779945374,7,versionC_stim.csv,JOL_H_VersionC.csv,"Highlight vs normal C","Highlight vs normal",DIVISION,MATH,Study1,F,33,30,Test,User,-,,Recall,Recall1,2356,maths,88.888888888889,1308,1893,0,1,,,1
5f0b14b1938b1e3f7163a926,h4e2o6kk9o,Trevor-ex1,1,150,2020-07-17T09:51:25-07:00,9.5624990463257,7,versionC_stim.csv,JOL_H_VersionC.csv,"Highlight vs normal C","Highlight vs normal",DESIGN,ARCHITECTURE,Study1,S,51,49,Test,User,-,,Recall,Recall1,8775,architecture,100,2658,8240,1,1,,,1
5f0b14b1938b1e3f7163a926,h4e2o6kk9o,Trevor-ex1,1,151,2020-07-17T09:51:33-07:00,7.9853398799896,7,versionC_stim.csv,JOL_H_VersionC.csv,"Highlight vs normal C","Highlight vs normal",FAMINE,HUNGER,Study1,F,40,53,Test,User,-,,Recall,Recall1,7102,starve,16.666666666667,3881,5817,0,0,,,1
5f0b14b1938b1e3f7163a926,h4e2o6kk9o,Trevor-ex1,1,152,2020-07-17T09:51:36-07:00,3.3402919769287,7,versionC_stim.csv,JOL_H_VersionC.csv,"Highlight vs normal C","Highlight vs normal",CAVE,DARK,Study1,F,28,10,Test,User,-,,Recall,Recall1,2632,dark,100,1438,2091,1,1,,,1
5f0b14b1938b1e3f7163a926,h4e2o6kk9o,Trevor-ex1,1,153,2020-07-17T09:51:41-07:00,4.6960279941559,7,versionC_stim.csv,JOL_H_VersionC.csv,"Highlight vs normal C","Highlight vs normal",COLD,BITTER,Study1,B,12,12,Test,User,-,,Recall,Recall1,3652,warm,20,2151,2996,0,0,,,1
5f0b14b1938b1e3f7163a926,h4e2o6kk9o,Trevor-ex1,1,154,2020-07-17T09:51:46-07:00,4.8078119754791,7,versionC_stim.csv,JOL_H_VersionC.csv,"Highlight vs normal C","Highlight vs normal",DROWSY,SLEEP,Study1,F,41,59,Test,User,-,,Recall,Recall1,4102,dizzy,0,2427,3473,0,0,,,1
5f0b14b1938b1e3f7163a926,h4e2o6kk9o,Trevor-ex1,1,155,2020-07-17T09:51:48-07:00,2.6492800712585,7,versionC_stim.csv,JOL_H_VersionC.csv,"Highlight vs normal C","Highlight vs normal",ENOUGH,FULL,Study1,F,26,58,Test,User,-,,Recall,Recall1,1821,,0,-1,-1,0,0,,,1
5f0b14b1938b1e3f7163a926,h4e2o6kk9o,Trevor-ex1,1,156,2020-07-17T09:51:51-07:00,3.0684599876404,7,versionC_stim.csv,JOL_H_VersionC.csv,"Highlight vs normal C","Highlight vs normal",TUCK,ALLOW,Study1,U,78,24,Test,User,-,,Recall,Recall1,2435,,0,-1,-1,0,0,,,1
5f0b14b1938b1e3f7163a926,h4e2o6kk9o,Trevor-ex1,1,157,2020-07-17T09:51:55-07:00,3.2794630527496,7,versionC_stim.csv,JOL_H_VersionC.csv,"Highlight vs normal C","Highlight vs normal",SITE,LOCATION,Study1,S,48,73,Test,User,-,,Recall,Recall1,1556,,0,-1,-1,0,0,,,1
5f0b14b1938b1e3f7163a926,h4e2o6kk9o,Trevor-ex1,1,158,2020-07-17T09:51:57-07:00,2.3755888938904,7,versionC_stim.csv,JOL_H_VersionC.csv,"Highlight vs normal C","Highlight vs normal",CLUTTER,PUSHER,Study1,U,66,74,Test,User,-,,Recall,Recall1,1562,,0,-1,-1,0,0,,,1
5f0b14b1938b1e3f7163a926,h4e2o6kk9o,Trevor-ex1,1,159,2020-07-17T09:52:00-07:00,2.6290400028229,7,versionC_stim.csv,JOL_H_VersionC.csv,"Highlight vs normal C","Highlight vs normal",BRONZE,ARTERY,Study1,U,74,50,Test,User,-,,Recall,Recall1,1816,,0,-1,-1,0,0,,,1
5f0b14b1938b1e3f7163a926,h4e2o6kk9o,Trevor-ex1,1,160,2020-07-17T09:52:02-07:00,2.8609690666199,7,versionC_stim.csv,JOL_H_VersionC.csv,"Highlight vs normal C","Highlight vs normal",SIGHT,DEBATE,Study1,U,73,43,Test,User,-,,Recall,Recall1,2199,see,44.444444444444,1515,1917,0,0,,,1
5f0b14b1938b1e3f7163a926,h4e2o6kk9o,Trevor-ex1,1,161,2020-07-17T09:52:08-07:00,5.4614310264587,7,versionC_stim.csv,JOL_H_VersionC.csv,"Highlight vs normal C","Highlight vs normal",FLOOR,DISCOVER,Study1,U,71,62,Test,User,-,,Recall,Recall1,4624,ground,14.285714285714,1926,4082,0,0,,,1
5f0b14b1938b1e3f7163a926,h4e2o6kk9o,Trevor-ex1,1,162,2020-07-17T09:52:12-07:00,4.0998549461365,7,versionC_stim.csv,JOL_H_VersionC.csv,"Highlight vs normal C","Highlight vs normal",LIVER,KIDNEY,Study1,S,53,84,Test,User,-,,Recall,Recall1,3384,kidney,100,1887,2795,1,1,,,1
5f0b14b1938b1e3f7163a926,h4e2o6kk9o,Trevor-ex1,1,163,2020-07-17T09:52:16-07:00,4.3842680454254,7,versionC_stim.csv,JOL_H_VersionC.csv,"Highlight vs normal C","Highlight vs normal",ASSIGNMENT,DUE,Study1,S,46,39,Test,User,-,,Recall,Recall1,3582,due,100,2854,3122,1,1,,,1
5f0b14b1938b1e3f7163a926,h4e2o6kk9o,Trevor-ex1,1,164,2020-07-17T09:52:20-07:00,3.1740031242371,7,versionC_stim.csv,JOL_H_VersionC.csv,"Highlight vs normal C","Highlight vs normal",CHILD,BABY,Study1,S,64,41,Test,User,-,,Recall,Recall1,2314,kid,0,1533,1791,0,0,,,1
5f0b14b1938b1e3f7163a926,h4e2o6kk9o,Trevor-ex1,1,165,2020-07-17T09:52:35-07:00,15.760265827179,7,versionC_stim.csv,JOL_H_VersionC.csv,"Highlight vs normal C","Highlight vs normal",WIND,BLOW,Study1,S,55,78,Test,User,-,,Recall,Recall1,14945,blow,100,13795,14546,1,1,,,1
5f0b14b1938b1e3f7163a926,h4e2o6kk9o,Trevor-ex1,1,166,2020-07-17T09:52:40-07:00,4.7711930274963,7,versionC_stim.csv,JOL_H_VersionC.csv,"Highlight vs normal C","Highlight vs normal",COW,HERD,Study1,B,22,28,Test,User,-,,Recall,Recall1,3996,herd,100,2799,3458,1,1,,,1
5f0b14b1938b1e3f7163a926,h4e2o6kk9o,Trevor-ex1,1,167,2020-07-17T09:52:44-07:00,3.8631980419159,7,versionC_stim.csv,JOL_H_VersionC.csv,"Highlight vs normal C","Highlight vs normal",POSITION,MACHINE,Study1,U,76,23,Test,User,-,,Recall,Recall1,3153,,0,-1,-1,0,0,,,1
5f0b14b1938b1e3f7163a926,h4e2o6kk9o,Trevor-ex1,1,168,2020-07-17T09:52:47-07:00,2.9404060840607,7,versionC_stim.csv,JOL_H_VersionC.csv,"Highlight vs normal C","Highlight vs normal",END,BEGIN,Study1,S,54,66,Test,User,-,,Recall,Recall1,2190,,0,-1,-1,0,0,,,1
5f0b14b1938b1e3f7163a926,h4e2o6kk9o,Trevor-ex1,1,169,2020-07-17T09:52:51-07:00,3.7745578289032,7,versionC_stim.csv,JOL_H_VersionC.csv,"Highlight vs normal C","Highlight vs normal",BLAZE,FIRE,Study1,F,45,86,Test,User,-,,Recall,Recall1,2906,fire,100,1655,2286,1,1,,,1
5f0b14b1938b1e3f7163a926,h4e2o6kk9o,Trevor-ex1,1,170,2020-07-17T09:52:54-07:00,3.7123329639435,7,versionC_stim.csv,JOL_H_VersionC.csv,"Highlight vs normal C","Highlight vs normal",CHORE,WORK,Study1,F,39,47,Test,User,-,,Recall,Recall1,3024,job,28.571428571429,1932,2450,0,0,,,1
5f0b14b1938b1e3f7163a926,h4e2o6kk9o,Trevor-ex1,1,171,2020-07-17T09:52:56-07:00,2.1247951984406,7,versionC_stim.csv,JOL_H_VersionC.csv,"Highlight vs normal C","Highlight vs normal",ADD,VALLEY,Study1,U,82,55,Test,User,-,,Recall,Recall1,1416,,0,-1,-1,0,0,,,1
5f0b14b1938b1e3f7163a926,h4e2o6kk9o,Trevor-ex1,1,172,2020-07-17T09:52:59-07:00,2.0174448490143,7,versionC_stim.csv,JOL_H_VersionC.csv,"Highlight vs normal C","Highlight vs normal",HAMMER,CHISEL,Study1,B,9,20,Test,User,-,,Recall,Recall1,1272,,0,-1,-1,0,0,,,1
5f0b14b1938b1e3f7163a926,h4e2o6kk9o,Trevor-ex1,1,173,2020-07-17T09:53:05-07:00,6.0805470943451,7,versionC_stim.csv,JOL_H_VersionC.csv,"Highlight vs normal C","Highlight vs normal",DEFINITION,MEANING,Study1,S,62,17,Test,User,-,,Recall,Recall1,5300,meaning,100,1321,4744,1,1,,,1
5f0b14b1938b1e3f7163a926,h4e2o6kk9o,Trevor-ex1,1,174,2020-07-17T09:53:10-07:00,5.8337340354919,7,versionC_stim.csv,JOL_H_VersionC.csv,"Highlight vs normal C","Highlight vs normal",SEIZE,TAKE,Study1,F,29,72,Test,User,-,,Recall,Recall1,5095,take,100,4020,4637,1,1,,,1
5f0b14b1938b1e3f7163a926,h4e2o6kk9o,Trevor-ex1,1,175,2020-07-17T09:53:14-07:00,3.9559128284454,7,versionC_stim.csv,JOL_H_VersionC.csv,"Highlight vs normal C","Highlight vs normal",MONEY,WAGE,Study1,B,8,61,Test,User,-,,Recall,Recall1,3219,cash,25,2089,2657,0,0,,,1
5f0b14b1938b1e3f7163a926,h4e2o6kk9o,Trevor-ex1,1,176,2020-07-17T09:53:17-07:00,2.8589651584625,7,versionC_stim.csv,JOL_H_VersionC.csv,"Highlight vs normal C","Highlight vs normal",BUSINESS,DEATH,Study1,U,72,85,Test,User,-,,Recall,Recall1,1751,,0,-1,-1,0,0,,,1
5f0b14b1938b1e3f7163a926,h4e2o6kk9o,Trevor-ex1,1,177,2020-07-17T09:53:22-07:00,4.743499994278,7,versionC_stim.csv,JOL_H_VersionC.csv,"Highlight vs normal C","Highlight vs normal",FUTURE,PAST,Study1,S,61,75,Test,User,-,,Recall,Recall1,3890,past,100,2878,3364,1,1,,,1
5f0b14b1938b1e3f7163a926,h4e2o6kk9o,Trevor-ex1,1,178,2020-07-17T09:53:28-07:00,5.778776884079,7,versionC_stim.csv,JOL_H_VersionC.csv,"Highlight vs normal C","Highlight vs normal",SALAD,LETTUCE,Study1,S,59,68,Test,User,-,,Recall,Recall1,4980,lettuce,100,2665,4363,1,1,,,1
5f0b14b1938b1e3f7163a926,h4e2o6kk9o,Trevor-ex1,1,179,2020-07-17T09:53:40-07:00,11.762643098831,7,versionC_stim.csv,JOL_H_VersionC.csv,"Highlight vs normal C","Highlight vs normal",,,,,,0,Instruct,-,10,"You will now be presented with a new set of word pairs. Please study each pair. Remember that your memory will be tested! When finished, press Enter to move to the next pair.",Initial_Instruct,Instruct4,10957,,,-1,-1,,,,,1
5f0b14b1938b1e3f7163a926,h4e2o6kk9o,Trevor-ex1,1,180,2020-07-17T09:53:51-07:00,11.813030004501,7,versionC_stim.csv,JOL_H_VersionC.csv,"Highlight vs normal C","Highlight vs normal",,,,,,0,Instruct,,10,"You will again be asked to rate your ability to remember these items using a 0 to 100 scale. Remember to use the full range of the scale!",,Instruct10,10977,,,-1,-1,,,,,1
5f0b14b1938b1e3f7163a926,h4e2o6kk9o,Trevor-ex1,1,181,2020-07-17T09:53:55-07:00,3.5596270561218,7,versionC_stim.csv,JOL_H_VersionC.csv,"Highlight vs normal C","Highlight vs normal",,,,,,0,Instruct,User,-,"Press Enter when you are readty to begin",,Instruct11,2815,,,-1,-1,,,,,1
5f0b14b1938b1e3f7163a926,h4e2o6kk9o,Trevor-ex1,1,182,2020-07-17T09:54:00-07:00,5.0654079914093,7,versionC_stim.csv,JOL_H_VersionC.csv,"Highlight vs normal C","Highlight vs normal",POTATO,CARROT,BUFFER3,Buffer,91,93,JOL,User,-,"How likely are you to correctly recall the second item in the pair?|Type your response on a scale from 0-100 and then press Enter.",Study/JOL,BUFFER3,4258,,,3649,3755,,,,50,1
5f0b14b1938b1e3f7163a926,h4e2o6kk9o,Trevor-ex1,1,183,2020-07-17T09:54:05-07:00,5.0497918128967,7,versionC_stim.csv,JOL_H_VersionC.csv,"Highlight vs normal C","Highlight vs normal",STRING,NOODLE,BUFFER3,Buffer,92,95,JOL_H,User,-,"How likely are you to correctly recall the second item in the pair?|Type your response on a scale from 0-100 and then press Enter.",Study/JOL,BUFFER3,4215,,,3574,3690,,,,40,1
5f0b14b1938b1e3f7163a926,h4e2o6kk9o,Trevor-ex1,1,184,2020-07-17T09:54:09-07:00,3.8393330574036,7,versionC_stim.csv,JOL_H_VersionC.csv,"Highlight vs normal C","Highlight vs normal",ADVENTURE,CAMP,BUFFER3,Buffer,95,92,JOL,User,-,"How likely are you to correctly recall the second item in the pair?|Type your response on a scale from 0-100 and then press Enter.",Study/JOL,BUFFER3,2881,,,2207,2313,,,,50,1
5f0b14b1938b1e3f7163a926,h4e2o6kk9o,Trevor-ex1,1,185,2020-07-17T09:54:13-07:00,3.9203820228577,7,versionC_stim.csv,JOL_H_VersionC.csv,"Highlight vs normal C","Highlight vs normal",FROZEN,ICE,BUFFER3,Buffer,94,96,JOL_H,User,-,"How likely are you to correctly recall the second item in the pair?|Type your response on a scale from 0-100 and then press Enter.",Study/JOL,BUFFER3,3215,,,1667,2722,,,,80,1
5f0b14b1938b1e3f7163a926,h4e2o6kk9o,Trevor-ex1,1,186,2020-07-17T09:54:16-07:00,2.9714250564575,7,versionC_stim.csv,JOL_H_VersionC.csv,"Highlight vs normal C","Highlight vs normal",FISH,SHRIMP,BUFFER3,Buffer,93,94,JOL_H,User,-,"How likely are you to correctly recall the second item in the pair?|Type your response on a scale from 0-100 and then press Enter.",Study/JOL,BUFFER3,2284,,,1631,1744,,,,80,1
5f0b14b1938b1e3f7163a926,h4e2o6kk9o,Trevor-ex1,1,187,2020-07-17T09:54:21-07:00,5.1799938678741,7,versionC_stim.csv,JOL_H_VersionC.csv,"Highlight vs normal C","Highlight vs normal",TEMPER,TANTRUM,Study2,S,154,157,JOL,User,-,"How likely are you to correctly recall the second item in the pair?|Type your response on a scale from 0-100 and then press Enter.",Study/JOL,"Study Phase2",4342,,,3730,3802,,,,60,1
5f0b14b1938b1e3f7163a926,h4e2o6kk9o,Trevor-ex1,1,188,2020-07-17T09:54:27-07:00,6.0056231021881,7,versionC_stim.csv,JOL_H_VersionC.csv,"Highlight vs normal C","Highlight vs normal",CARBON,ELEMENT,Study2,S,141,142,JOL,User,-,"How likely are you to correctly recall the second item in the pair?|Type your response on a scale from 0-100 and then press Enter.",Study/JOL,"Study Phase2",5095,,,3570,4555,,,,30,1
5f0b14b1938b1e3f7163a926,h4e2o6kk9o,Trevor-ex1,1,189,2020-07-17T09:54:35-07:00,7.925999879837,7,versionC_stim.csv,JOL_H_VersionC.csv,"Highlight vs normal C","Highlight vs normal",SCAR,MAIN,Study2,U,175,167,JOL,User,-,"How likely are you to correctly recall the second item in the pair?|Type your response on a scale from 0-100 and then press Enter.",Study/JOL,"Study Phase2",7123,,,5485,5654,,,,40,1
5f0b14b1938b1e3f7163a926,h4e2o6kk9o,Trevor-ex1,1,190,2020-07-17T09:54:42-07:00,7.4612441062927,7,versionC_stim.csv,JOL_H_VersionC.csv,"Highlight vs normal C","Highlight vs normal",SHAKE,SHELL,Study2,U,163,163,JOL,User,-,"How likely are you to correctly recall the second item in the pair?|Type your response on a scale from 0-100 and then press Enter.",Study/JOL,"Study Phase2",6696,,,5869,6024,,,,30,1
5f0b14b1938b1e3f7163a926,h4e2o6kk9o,Trevor-ex1,1,191,2020-07-17T09:54:47-07:00,4.5867719650269,7,versionC_stim.csv,JOL_H_VersionC.csv,"Highlight vs normal C","Highlight vs normal",LEAGUE,BASEBALL,Study2,F,131,149,JOL,User,-,"How likely are you to correctly recall the second item in the pair?|Type your response on a scale from 0-100 and then press Enter.",Study/JOL,"Study Phase2",3832,,,3234,3372,,,,40,1
5f0b14b1938b1e3f7163a926,h4e2o6kk9o,Trevor-ex1,1,192,2020-07-17T09:54:53-07:00,5.8897700309753,7,versionC_stim.csv,JOL_H_VersionC.csv,"Highlight vs normal C","Highlight vs normal",SMELL,INCENSE,Study2,B,110,168,JOL,User,-,"How likely are you to correctly recall the second item in the pair?|Type your response on a scale from 0-100 and then press Enter.",Study/JOL,"Study Phase2",4971,,,3581,4436,,,,50,1
5f0b14b1938b1e3f7163a926,h4e2o6kk9o,Trevor-ex1,1,193,2020-07-17T09:54:58-07:00,4.9419419765472,7,versionC_stim.csv,JOL_H_VersionC.csv,"Highlight vs normal C","Highlight vs normal",SEATBELT,SAFETY,Study2,S,147,117,JOL_H,User,-,"How likely are you to correctly recall the second item in the pair?|Type your response on a scale from 0-100 and then press Enter.",Study/JOL,"Study Phase2",4097,,,3544,3628,,,,60,1
5f0b14b1938b1e3f7163a926,h4e2o6kk9o,Trevor-ex1,1,194,2020-07-17T09:55:05-07:00,6.9181821346283,7,versionC_stim.csv,JOL_H_VersionC.csv,"Highlight vs normal C","Highlight vs normal",ABLE,CRACKLE,Study2,U,162,108,JOL_H,User,-,"How likely are you to correctly recall the second item in the pair?|Type your response on a scale from 0-100 and then press Enter.",Study/JOL,"Study Phase2",5227,,,4422,4705,,,,20,1
5f0b14b1938b1e3f7163a926,h4e2o6kk9o,Trevor-ex1,1,195,2020-07-17T09:55:08-07:00,3.6375398635864,7,versionC_stim.csv,JOL_H_VersionC.csv,"Highlight vs normal C","Highlight vs normal",PAPER,DOCUMENT,Study2,B,109,144,JOL,User,-,"How likely are you to correctly recall the second item in the pair?|Type your response on a scale from 0-100 and then press Enter.",Study/JOL,"Study Phase2",2793,,,2167,2320,,,,60,1
5f0b14b1938b1e3f7163a926,h4e2o6kk9o,Trevor-ex1,1,196,2020-07-17T09:55:13-07:00,4.3189179897308,7,versionC_stim.csv,JOL_H_VersionC.csv,"Highlight vs normal C","Highlight vs normal",PANTHER,CAT,Study2,F,126,121,JOL_H,User,-,"How likely are you to correctly recall the second item in the pair?|Type your response on a scale from 0-100 and then press Enter.",Study/JOL,"Study Phase2",3719,,,2923,3160,,,,40,1
5f0b14b1938b1e3f7163a926,h4e2o6kk9o,Trevor-ex1,1,197,2020-07-17T09:55:16-07:00,3.6695449352264,7,versionC_stim.csv,JOL_H_VersionC.csv,"Highlight vs normal C","Highlight vs normal",COFFIN,DEAD,Study2,F,128,124,JOL_H,User,-,"How likely are you to correctly recall the second item in the pair?|Type your response on a scale from 0-100 and then press Enter.",Study/JOL,"Study Phase2",2875,,,2227,2380,,,,70,1
5f0b14b1938b1e3f7163a926,h4e2o6kk9o,Trevor-ex1,1,198,2020-07-17T09:55:20-07:00,3.6721692085266,7,versionC_stim.csv,JOL_H_VersionC.csv,"Highlight vs normal C","Highlight vs normal",OUNCE,BOTH,Study2,U,172,140,JOL,User,-,"How likely are you to correctly recall the second item in the pair?|Type your response on a scale from 0-100 and then press Enter.",Study/JOL,"Study Phase2",2883,,,2235,2437,,,,30,1
5f0b14b1938b1e3f7163a926,h4e2o6kk9o,Trevor-ex1,1,199,2020-07-17T09:55:23-07:00,3.5407028198242,7,versionC_stim.csv,JOL_H_VersionC.csv,"Highlight vs normal C","Highlight vs normal",ACTRESS,STAR,Study2,F,120,137,JOL,User,-,"How likely are you to correctly recall the second item in the pair?|Type your response on a scale from 0-100 and then press Enter.",Study/JOL,"Study Phase2",2789,,,2104,2247,,,,50,1
5f0b14b1938b1e3f7163a926,h4e2o6kk9o,Trevor-ex1,1,200,2020-07-17T09:55:27-07:00,3.851557970047,7,versionC_stim.csv,JOL_H_VersionC.csv,"Highlight vs normal C","Highlight vs normal",MORNING,TEMPERATURE,Study2,U,173,128,JOL_H,User,-,"How likely are you to correctly recall the second item in the pair?|Type your response on a scale from 0-100 and then press Enter.",Study/JOL,"Study Phase2",3071,,,2481,2541,,,,40,1
5f0b14b1938b1e3f7163a926,h4e2o6kk9o,Trevor-ex1,1,201,2020-07-17T09:55:32-07:00,4.6383800506592,7,versionC_stim.csv,JOL_H_VersionC.csv,"Highlight vs normal C","Highlight vs normal",HEAD,SCALP,Study2,B,105,135,JOL_H,User,-,"How likely are you to correctly recall the second item in the pair?|Type your response on a scale from 0-100 and then press Enter.",Study/JOL,"Study Phase2",3904,,,3306,3472,,,,70,1
5f0b14b1938b1e3f7163a926,h4e2o6kk9o,Trevor-ex1,1,202,2020-07-17T09:55:36-07:00,3.6594669818878,7,versionC_stim.csv,JOL_H_VersionC.csv,"Highlight vs normal C","Highlight vs normal",AIRCRAFT,PLANE,Study2,F,129,130,JOL_H,User,-,"How likely are you to correctly recall the second item in the pair?|Type your response on a scale from 0-100 and then press Enter.",Study/JOL,"Study Phase2",3052,,,2462,2584,,,,70,1
5f0b14b1938b1e3f7163a926,h4e2o6kk9o,Trevor-ex1,1,203,2020-07-17T09:55:40-07:00,4.48095703125,7,versionC_stim.csv,JOL_H_VersionC.csv,"Highlight vs normal C","Highlight vs normal",SCISSORS,SHEARS,Study2,B,112,99,JOL_H,User,-,"How likely are you to correctly recall the second item in the pair?|Type your response on a scale from 0-100 and then press Enter.",Study/JOL,"Study Phase2",3494,,,2820,2921,,,,30,1
5f0b14b1938b1e3f7163a926,h4e2o6kk9o,Trevor-ex1,1,204,2020-07-17T09:55:44-07:00,3.9373450279236,7,versionC_stim.csv,JOL_H_VersionC.csv,"Highlight vs normal C","Highlight vs normal",WET,DRY,Study2,S,146,102,JOL_H,User,-,"How likely are you to correctly recall the second item in the pair?|Type your response on a scale from 0-100 and then press Enter.",Study/JOL,"Study Phase2",3252,,,2692,2736,,,,80,1
5f0b14b1938b1e3f7163a926,h4e2o6kk9o,Trevor-ex1,1,205,2020-07-17T09:55:49-07:00,4.5058150291443,7,versionC_stim.csv,JOL_H_VersionC.csv,"Highlight vs normal C","Highlight vs normal",FIGHT,FEUD,Study2,B,113,158,JOL,User,-,"How likely are you to correctly recall the second item in the pair?|Type your response on a scale from 0-100 and then press Enter.",Study/JOL,"Study Phase2",3697,,,3046,3149,,,,60,1
5f0b14b1938b1e3f7163a926,h4e2o6kk9o,Trevor-ex1,1,206,2020-07-17T09:55:53-07:00,4.3999478816986,7,versionC_stim.csv,JOL_H_VersionC.csv,"Highlight vs normal C","Highlight vs normal",TICK,FLEA,Study2,S,151,100,JOL_H,User,-,"How likely are you to correctly recall the second item in the pair?|Type your response on a scale from 0-100 and then press Enter.",Study/JOL,"Study Phase2",3674,,,2994,3182,,,,60,1
5f0b14b1938b1e3f7163a926,h4e2o6kk9o,Trevor-ex1,1,207,2020-07-17T09:56:02-07:00,9.295342206955,7,versionC_stim.csv,JOL_H_VersionC.csv,"Highlight vs normal C","Highlight vs normal",CLOTH,STRETCH,Study2,U,157,148,JOL,User,-,"How likely are you to correctly recall the second item in the pair?|Type your response on a scale from 0-100 and then press Enter.",Study/JOL,"Study Phase2",8417,,,7744,7862,,,,60,1
5f0b14b1938b1e3f7163a926,h4e2o6kk9o,Trevor-ex1,1,208,2020-07-17T09:56:06-07:00,3.3256919384003,7,versionC_stim.csv,JOL_H_VersionC.csv,"Highlight vs normal C","Highlight vs normal",REVENGE,EVEN,Study2,F,122,125,JOL_H,User,-,"How likely are you to correctly recall the second item in the pair?|Type your response on a scale from 0-100 and then press Enter.",Study/JOL,"Study Phase2",2563,,,1855,2044,,,,40,1
5f0b14b1938b1e3f7163a926,h4e2o6kk9o,Trevor-ex1,1,209,2020-07-17T09:56:09-07:00,3.8828790187836,7,versionC_stim.csv,JOL_H_VersionC.csv,"Highlight vs normal C","Highlight vs normal",RED,CHERRY,Study2,B,104,112,JOL_H,User,-,"How likely are you to correctly recall the second item in the pair?|Type your response on a scale from 0-100 and then press Enter.",Study/JOL,"Study Phase2",2907,,,2369,2465,,,,30,1
5f0b14b1938b1e3f7163a926,h4e2o6kk9o,Trevor-ex1,1,210,2020-07-17T09:56:13-07:00,3.4938929080963,7,versionC_stim.csv,JOL_H_VersionC.csv,"Highlight vs normal C","Highlight vs normal",BANKER,MONEY,Study2,F,132,169,JOL,User,-,"How likely are you to correctly recall the second item in the pair?|Type your response on a scale from 0-100 and then press Enter.",Study/JOL,"Study Phase2",2818,,,2004,2284,,,,50,1
5f0b14b1938b1e3f7163a926,h4e2o6kk9o,Trevor-ex1,1,211,2020-07-17T09:56:17-07:00,3.5965931415558,7,versionC_stim.csv,JOL_H_VersionC.csv,"Highlight vs normal C","Highlight vs normal",COLD,CHILL,Study2,B,114,162,JOL,User,-,"How likely are you to correctly recall the second item in the pair?|Type your response on a scale from 0-100 and then press Enter.",Study/JOL,"Study Phase2",2874,,,1658,1805,,,,60,1
5f0b14b1938b1e3f7163a926,h4e2o6kk9o,Trevor-ex1,1,212,2020-07-17T09:56:21-07:00,4.637218952179,7,versionC_stim.csv,JOL_H_VersionC.csv,"Highlight vs normal C","Highlight vs normal",COMMUNICATION,PHONE,Study2,S,149,110,JOL_H,User,-,"How likely are you to correctly recall the second item in the pair?|Type your response on a scale from 0-100 and then press Enter.",Study/JOL,"Study Phase2",3896,,,3330,3434,,,,60,1
5f0b14b1938b1e3f7163a926,h4e2o6kk9o,Trevor-ex1,1,213,2020-07-17T09:56:25-07:00,3.6304619312286,7,versionC_stim.csv,JOL_H_VersionC.csv,"Highlight vs normal C","Highlight vs normal",SHAVE,RAZOR,Study2,S,136,146,JOL,User,-,"How likely are you to correctly recall the second item in the pair?|Type your response on a scale from 0-100 and then press Enter.",Study/JOL,"Study Phase2",2904,,,1671,1836,,,,50,1
5f0b14b1938b1e3f7163a926,h4e2o6kk9o,Trevor-ex1,1,214,2020-07-17T09:56:29-07:00,3.9700520038605,7,versionC_stim.csv,JOL_H_VersionC.csv,"Highlight vs normal C","Highlight vs normal",BANG,FUZZY,Study2,U,168,129,JOL_H,User,-,"How likely are you to correctly recall the second item in the pair?|Type your response on a scale from 0-100 and then press Enter.",Study/JOL,"Study Phase2",3248,,,2589,2754,,,,30,1
5f0b14b1938b1e3f7163a926,h4e2o6kk9o,Trevor-ex1,1,215,2020-07-17T09:56:33-07:00,4.1227920055389,7,versionC_stim.csv,JOL_H_VersionC.csv,"Highlight vs normal C","Highlight vs normal",CLEAR,MOAT,Study2,U,169,150,JOL,User,-,"How likely are you to correctly recall the second item in the pair?|Type your response on a scale from 0-100 and then press Enter.",Study/JOL,"Study Phase2",2411,,,1708,1920,,,,40,1
5f0b14b1938b1e3f7163a926,h4e2o6kk9o,Trevor-ex1,1,216,2020-07-17T09:56:37-07:00,3.8516340255737,7,versionC_stim.csv,JOL_H_VersionC.csv,"Highlight vs normal C","Highlight vs normal",BREAKABLE,GLASS,Study2,F,127,156,JOL,User,-,"How likely are you to correctly recall the second item in the pair?|Type your response on a scale from 0-100 and then press Enter.",Study/JOL,"Study Phase2",3165,,,2552,2668,,,,30,1
5f0b14b1938b1e3f7163a926,h4e2o6kk9o,Trevor-ex1,1,217,2020-07-17T09:56:40-07:00,3.7229809761047,7,versionC_stim.csv,JOL_H_VersionC.csv,"Highlight vs normal C","Highlight vs normal",WAX,CANDLE,Study2,S,139,160,JOL,User,-,"How likely are you to correctly recall the second item in the pair?|Type your response on a scale from 0-100 and then press Enter.",Study/JOL,"Study Phase2",2847,,,2184,2266,,,,60,1
5f0b14b1938b1e3f7163a926,h4e2o6kk9o,Trevor-ex1,1,218,2020-07-17T09:56:50-07:00,9.4676821231842,7,versionC_stim.csv,JOL_H_VersionC.csv,"Highlight vs normal C","Highlight vs normal",REEL,ROD,Study2,S,150,116,JOL_H,User,-,"How likely are you to correctly recall the second item in the pair?|Type your response on a scale from 0-100 and then press Enter.",Study/JOL,"Study Phase2",8744,,,6986,8255,,,,40,1
5f0b14b1938b1e3f7163a926,h4e2o6kk9o,Trevor-ex1,1,219,2020-07-17T09:56:53-07:00,3.2362818717957,7,versionC_stim.csv,JOL_H_VersionC.csv,"Highlight vs normal C","Highlight vs normal",MYSTERY,DETECTIVE,Study2,B,100,147,JOL,User,-,"How likely are you to correctly recall the second item in the pair?|Type your response on a scale from 0-100 and then press Enter.",Study/JOL,"Study Phase2",2451,,,1776,1938,,,,50,1
5f0b14b1938b1e3f7163a926,h4e2o6kk9o,Trevor-ex1,1,220,2020-07-17T09:56:58-07:00,4.7240469455719,7,versionC_stim.csv,JOL_H_VersionC.csv,"Highlight vs normal C","Highlight vs normal",HATE,NAME,Study2,U,167,132,JOL_H,User,-,"How likely are you to correctly recall the second item in the pair?|Type your response on a scale from 0-100 and then press Enter.",Study/JOL,"Study Phase2",3969,,,3336,3500,,,,50,1
5f0b14b1938b1e3f7163a926,h4e2o6kk9o,Trevor-ex1,1,221,2020-07-17T09:57:03-07:00,5.3726439476013,7,versionC_stim.csv,JOL_H_VersionC.csv,"Highlight vs normal C","Highlight vs normal",OBTAIN,MEAT,Study2,U,161,106,JOL_H,User,-,"How likely are you to correctly recall the second item in the pair?|Type your response on a scale from 0-100 and then press Enter.",Study/JOL,"Study Phase2",4610,,,3639,3795,,,,40,1
5f0b14b1938b1e3f7163a926,h4e2o6kk9o,Trevor-ex1,1,222,2020-07-17T09:57:06-07:00,2.4383201599121,7,versionC_stim.csv,JOL_H_VersionC.csv,"Highlight vs normal C","Highlight vs normal",FAVORITE,BEST,Study2,F,125,175,JOL,User,-,"How likely are you to correctly recall the second item in the pair?|Type your response on a scale from 0-100 and then press Enter.",Study/JOL,"Study Phase2",1715,,,1107,1212,,,,50,1
5f0b14b1938b1e3f7163a926,h4e2o6kk9o,Trevor-ex1,1,223,2020-07-17T09:57:15-07:00,8.8112268447876,7,versionC_stim.csv,JOL_H_VersionC.csv,"Highlight vs normal C","Highlight vs normal",AWAY,GONE,Study2,S,142,120,JOL_H,User,-,"How likely are you to correctly recall the second item in the pair?|Type your response on a scale from 0-100 and then press Enter.",Study/JOL,"Study Phase2",7936,,,3713,6699,,,,60,1
5f0b14b1938b1e3f7163a926,h4e2o6kk9o,Trevor-ex1,1,224,2020-07-17T09:57:18-07:00,3.3815820217133,7,versionC_stim.csv,JOL_H_VersionC.csv,"Highlight vs normal C","Highlight vs normal",TIE,SHOELACE,Study2,B,99,136,JOL_H,User,-,"How likely are you to correctly recall the second item in the pair?|Type your response on a scale from 0-100 and then press Enter.",Study/JOL,"Study Phase2",2134,,,1234,1466,,,,50,1
5f0b14b1938b1e3f7163a926,h4e2o6kk9o,Trevor-ex1,1,225,2020-07-17T09:57:21-07:00,3.0284600257874,7,versionC_stim.csv,JOL_H_VersionC.csv,"Highlight vs normal C","Highlight vs normal",PLANT,CACTUS,Study2,B,98,152,JOL,User,-,"How likely are you to correctly recall the second item in the pair?|Type your response on a scale from 0-100 and then press Enter.",Study/JOL,"Study Phase2",2096,,,1381,1623,,,,50,1
5f0b14b1938b1e3f7163a926,h4e2o6kk9o,Trevor-ex1,1,226,2020-07-17T09:57:24-07:00,2.7681591510773,7,versionC_stim.csv,JOL_H_VersionC.csv,"Highlight vs normal C","Highlight vs normal",LONG,EXTENSION,Study2,B,96,164,JOL,User,-,"How likely are you to correctly recall the second item in the pair?|Type your response on a scale from 0-100 and then press Enter.",Study/JOL,"Study Phase2",2052,,,1437,1606,,,,60,1
5f0b14b1938b1e3f7163a926,h4e2o6kk9o,Trevor-ex1,1,227,2020-07-17T09:57:27-07:00,2.9849548339844,7,versionC_stim.csv,JOL_H_VersionC.csv,"Highlight vs normal C","Highlight vs normal",NAP,SLEEP,Study2,F,134,141,JOL,User,-,"How likely are you to correctly recall the second item in the pair?|Type your response on a scale from 0-100 and then press Enter.",Study/JOL,"Study Phase2",2191,,,1654,1728,,,,90,1
5f0b14b1938b1e3f7163a926,h4e2o6kk9o,Trevor-ex1,1,228,2020-07-17T09:57:29-07:00,2.4079561233521,7,versionC_stim.csv,JOL_H_VersionC.csv,"Highlight vs normal C","Highlight vs normal",CAR,DRIVER,Study2,B,106,165,JOL,User,-,"How likely are you to correctly recall the second item in the pair?|Type your response on a scale from 0-100 and then press Enter.",Study/JOL,"Study Phase2",1615,,,945,1068,,,,70,1
5f0b14b1938b1e3f7163a926,h4e2o6kk9o,Trevor-ex1,1,229,2020-07-17T09:57:32-07:00,2.6056740283966,7,versionC_stim.csv,JOL_H_VersionC.csv,"Highlight vs normal C","Highlight vs normal",NOISE,LOUD,Study2,S,152,159,JOL,User,-,"How likely are you to correctly recall the second item in the pair?|Type your response on a scale from 0-100 and then press Enter.",Study/JOL,"Study Phase2",1833,,,1230,1356,,,,60,1
5f0b14b1938b1e3f7163a926,h4e2o6kk9o,Trevor-ex1,1,230,2020-07-17T09:57:36-07:00,4.4566700458527,7,versionC_stim.csv,JOL_H_VersionC.csv,"Highlight vs normal C","Highlight vs normal",GAME,CLUE,Study2,B,97,170,JOL,User,-,"How likely are you to correctly recall the second item in the pair?|Type your response on a scale from 0-100 and then press Enter.",Study/JOL,"Study Phase2",3819,,,2632,3408,,,,40,1
5f0b14b1938b1e3f7163a926,h4e2o6kk9o,Trevor-ex1,1,231,2020-07-17T09:57:40-07:00,3.5319969654083,7,versionC_stim.csv,JOL_H_VersionC.csv,"Highlight vs normal C","Highlight vs normal",LIE,TRUTH,Study2,S,148,114,JOL_H,User,-,"How likely are you to correctly recall the second item in the pair?|Type your response on a scale from 0-100 and then press Enter.",Study/JOL,"Study Phase2",2669,,,1679,2191,,,,60,1
5f0b14b1938b1e3f7163a926,h4e2o6kk9o,Trevor-ex1,1,232,2020-07-17T09:57:43-07:00,2.8751208782196,7,versionC_stim.csv,JOL_H_VersionC.csv,"Highlight vs normal C","Highlight vs normal",FICTION,LISTEN,Study2,U,164,153,JOL,User,-,"How likely are you to correctly recall the second item in the pair?|Type your response on a scale from 0-100 and then press Enter.",Study/JOL,"Study Phase2",2139,,,1319,1697,,,,60,1
5f0b14b1938b1e3f7163a926,h4e2o6kk9o,Trevor-ex1,1,233,2020-07-17T09:57:47-07:00,4.377454996109,7,versionC_stim.csv,JOL_H_VersionC.csv,"Highlight vs normal C","Highlight vs normal",TOIL,LEASE,Study2,U,170,174,JOL,User,-,"How likely are you to correctly recall the second item in the pair?|Type your response on a scale from 0-100 and then press Enter.",Study/JOL,"Study Phase2",3671,,,1720,3155,,,,20,1
5f0b14b1938b1e3f7163a926,h4e2o6kk9o,Trevor-ex1,1,234,2020-07-17T09:57:53-07:00,6.0078339576721,7,versionC_stim.csv,JOL_H_VersionC.csv,"Highlight vs normal C","Highlight vs normal",MAROON,JUSTICE,Study2,U,156,145,JOL,User,-,"How likely are you to correctly recall the second item in the pair?|Type your response on a scale from 0-100 and then press Enter.",Study/JOL,"Study Phase2",4201,,,3430,3653,,,,30,1
5f0b14b1938b1e3f7163a926,h4e2o6kk9o,Trevor-ex1,1,235,2020-07-17T09:57:57-07:00,3.8058381080627,7,versionC_stim.csv,JOL_H_VersionC.csv,"Highlight vs normal C","Highlight vs normal",PENGUIN,BIRD,Study2,F,119,122,JOL_H,User,-,"How likely are you to correctly recall the second item in the pair?|Type your response on a scale from 0-100 and then press Enter.",Study/JOL,"Study Phase2",3058,,,2358,2571,,,,70,1
5f0b14b1938b1e3f7163a926,h4e2o6kk9o,Trevor-ex1,1,236,2020-07-17T09:58:01-07:00,4.106113910675,7,versionC_stim.csv,JOL_H_VersionC.csv,"Highlight vs normal C","Highlight vs normal",VILLAIN,BAD,Study2,F,118,123,JOL_H,User,-,"How likely are you to correctly recall the second item in the pair?|Type your response on a scale from 0-100 and then press Enter.",Study/JOL,"Study Phase2",2369,,,1758,1909,,,,60,1
5f0b14b1938b1e3f7163a926,h4e2o6kk9o,Trevor-ex1,1,237,2020-07-17T09:58:04-07:00,3.506735086441,7,versionC_stim.csv,JOL_H_VersionC.csv,"Highlight vs normal C","Highlight vs normal",CHARM,VEHICLE,Study2,U,160,166,JOL,User,-,"How likely are you to correctly recall the second item in the pair?|Type your response on a scale from 0-100 and then press Enter.",Study/JOL,"Study Phase2",2589,,,1789,2074,,,,30,1
5f0b14b1938b1e3f7163a926,h4e2o6kk9o,Trevor-ex1,1,238,2020-07-17T09:58:10-07:00,5.2221910953522,7,versionC_stim.csv,JOL_H_VersionC.csv,"Highlight vs normal C","Highlight vs normal",DOG,FURRY,Study2,B,102,134,JOL_H,User,-,"How likely are you to correctly recall the second item in the pair?|Type your response on a scale from 0-100 and then press Enter.",Study/JOL,"Study Phase2",4447,,,3736,3875,,,,60,1
5f0b14b1938b1e3f7163a926,h4e2o6kk9o,Trevor-ex1,1,239,2020-07-17T09:58:14-07:00,4.4859058856964,7,versionC_stim.csv,JOL_H_VersionC.csv,"Highlight vs normal C","Highlight vs normal",STEAK,GIVE,Study2,U,158,139,JOL,User,-,"How likely are you to correctly recall the second item in the pair?|Type your response on a scale from 0-100 and then press Enter.",Study/JOL,"Study Phase2",3728,,,3009,3250,,,,60,1
5f0b14b1938b1e3f7163a926,h4e2o6kk9o,Trevor-ex1,1,240,2020-07-17T09:58:26-07:00,11.757823944092,7,versionC_stim.csv,JOL_H_VersionC.csv,"Highlight vs normal C","Highlight vs normal",THIMBLE,THREAD,Study2,F,121,101,JOL_H,User,-,"How likely are you to correctly recall the second item in the pair?|Type your response on a scale from 0-100 and then press Enter.",Study/JOL,"Study Phase2",10924,,,10308,10417,,,,50,1
5f0b14b1938b1e3f7163a926,h4e2o6kk9o,Trevor-ex1,1,241,2020-07-17T09:58:30-07:00,3.8057360649109,7,versionC_stim.csv,JOL_H_VersionC.csv,"Highlight vs normal C","Highlight vs normal",GROUND,EARTH,Study2,S,144,97,JOL_H,User,-,"How likely are you to correctly recall the second item in the pair?|Type your response on a scale from 0-100 and then press Enter.",Study/JOL,"Study Phase2",2870,,,2200,2389,,,,50,1
5f0b14b1938b1e3f7163a926,h4e2o6kk9o,Trevor-ex1,1,242,2020-07-17T09:58:32-07:00,2.6017010211945,7,versionC_stim.csv,JOL_H_VersionC.csv,"Highlight vs normal C","Highlight vs normal",BALLOON,POP,Study2,F,123,103,JOL_H,User,-,"How likely are you to correctly recall the second item in the pair?|Type your response on a scale from 0-100 and then press Enter.",Study/JOL,"Study Phase2",1909,,,1282,1424,,,,60,1
5f0b14b1938b1e3f7163a926,h4e2o6kk9o,Trevor-ex1,1,243,2020-07-17T09:58:36-07:00,3.814768075943,7,versionC_stim.csv,JOL_H_VersionC.csv,"Highlight vs normal C","Highlight vs normal",SARDINE,FISH,Study2,F,130,127,JOL_H,User,-,"How likely are you to correctly recall the second item in the pair?|Type your response on a scale from 0-100 and then press Enter.",Study/JOL,"Study Phase2",3105,,,2452,2590,,,,70,1
5f0b14b1938b1e3f7163a926,h4e2o6kk9o,Trevor-ex1,1,244,2020-07-17T09:58:42-07:00,6.247987985611,7,versionC_stim.csv,JOL_H_VersionC.csv,"Highlight vs normal C","Highlight vs normal",DONKEY,MULE,Study2,B,108,176,JOL,User,-,"How likely are you to correctly recall the second item in the pair?|Type your response on a scale from 0-100 and then press Enter.",Study/JOL,"Study Phase2",5455,,,4815,4959,,,,40,1
5f0b14b1938b1e3f7163a926,h4e2o6kk9o,Trevor-ex1,1,245,2020-07-17T09:58:45-07:00,3.0659649372101,7,versionC_stim.csv,JOL_H_VersionC.csv,"Highlight vs normal C","Highlight vs normal",CLOTHES,CAKE,Study2,U,166,98,JOL_H,User,-,"How likely are you to correctly recall the second item in the pair?|Type your response on a scale from 0-100 and then press Enter.",Study/JOL,"Study Phase2",2332,,,1669,1813,,,,50,1
5f0b14b1938b1e3f7163a926,h4e2o6kk9o,Trevor-ex1,1,246,2020-07-17T09:58:48-07:00,2.5936470031738,7,versionC_stim.csv,JOL_H_VersionC.csv,"Highlight vs normal C","Highlight vs normal",TAN,SUN,Study2,S,155,107,JOL_H,User,-,"How likely are you to correctly recall the second item in the pair?|Type your response on a scale from 0-100 and then press Enter.",Study/JOL,"Study Phase2",1791,,,1142,1385,,,,50,1
5f0b14b1938b1e3f7163a926,h4e2o6kk9o,Trevor-ex1,1,247,2020-07-17T09:58:52-07:00,3.799299955368,7,versionC_stim.csv,JOL_H_VersionC.csv,"Highlight vs normal C","Highlight vs normal",ELECTION,MAZE,Study2,U,159,173,JOL,User,-,"How likely are you to correctly recall the second item in the pair?|Type your response on a scale from 0-100 and then press Enter.",Study/JOL,"Study Phase2",3074,,,2417,2588,,,,30,1
5f0b14b1938b1e3f7163a926,h4e2o6kk9o,Trevor-ex1,1,248,2020-07-17T09:58:54-07:00,2.5708289146423,7,versionC_stim.csv,JOL_H_VersionC.csv,"Highlight vs normal C","Highlight vs normal",STRAWBERRY,FRUIT,Study2,F,124,161,JOL,User,-,"How likely are you to correctly recall the second item in the pair?|Type your response on a scale from 0-100 and then press Enter.",Study/JOL,"Study Phase2",1922,,,1347,1459,,,,80,1
5f0b14b1938b1e3f7163a926,h4e2o6kk9o,Trevor-ex1,1,249,2020-07-17T09:58:59-07:00,4.6857981681824,7,versionC_stim.csv,JOL_H_VersionC.csv,"Highlight vs normal C","Highlight vs normal",WINDSHIELD,CAR,Study2,F,117,115,JOL_H,User,-,"How likely are you to correctly recall the second item in the pair?|Type your response on a scale from 0-100 and then press Enter.",Study/JOL,"Study Phase2",3864,,,2971,3348,,,,40,1
5f0b14b1938b1e3f7163a926,h4e2o6kk9o,Trevor-ex1,1,250,2020-07-17T09:59:04-07:00,4.5395720005035,7,versionC_stim.csv,JOL_H_VersionC.csv,"Highlight vs normal C","Highlight vs normal",END,ADJOURN,Study2,B,101,109,JOL_H,User,-,"How likely are you to correctly recall the second item in the pair?|Type your response on a scale from 0-100 and then press Enter.",Study/JOL,"Study Phase2",3782,,,3192,3271,,,,50,1
5f0b14b1938b1e3f7163a926,h4e2o6kk9o,Trevor-ex1,1,251,2020-07-17T09:59:06-07:00,2.8564038276672,7,versionC_stim.csv,JOL_H_VersionC.csv,"Highlight vs normal C","Highlight vs normal",EQUAL,RIGHTS,Study2,S,137,151,JOL,User,-,"How likely are you to correctly recall the second item in the pair?|Type your response on a scale from 0-100 and then press Enter.",Study/JOL,"Study Phase2",2073,,,1294,1469,,,,30,1
5f0b14b1938b1e3f7163a926,h4e2o6kk9o,Trevor-ex1,1,252,2020-07-17T09:59:10-07:00,3.1589012145996,7,versionC_stim.csv,JOL_H_VersionC.csv,"Highlight vs normal C","Highlight vs normal",LONELY,ALONE,Study2,S,145,113,JOL_H,User,-,"How likely are you to correctly recall the second item in the pair?|Type your response on a scale from 0-100 and then press Enter.",Study/JOL,"Study Phase2",2331,,,1611,1757,,,,60,1
5f0b14b1938b1e3f7163a926,h4e2o6kk9o,Trevor-ex1,1,253,2020-07-17T09:59:14-07:00,3.9292299747467,7,versionC_stim.csv,JOL_H_VersionC.csv,"Highlight vs normal C","Highlight vs normal",CHILDREN,MIRROR,Study2,U,174,111,JOL_H,User,-,"How likely are you to correctly recall the second item in the pair?|Type your response on a scale from 0-100 and then press Enter.",Study/JOL,"Study Phase2",3243,,,2164,2277,,,,40,1
5f0b14b1938b1e3f7163a926,h4e2o6kk9o,Trevor-ex1,1,254,2020-07-17T09:59:17-07:00,3.5224058628082,7,versionC_stim.csv,JOL_H_VersionC.csv,"Highlight vs normal C","Highlight vs normal",JOKE,KEYS,Study2,U,165,104,JOL_H,User,-,"How likely are you to correctly recall the second item in the pair?|Type your response on a scale from 0-100 and then press Enter.",Study/JOL,"Study Phase2",2840,,,2271,2365,,,,50,1
5f0b14b1938b1e3f7163a926,h4e2o6kk9o,Trevor-ex1,1,255,2020-07-17T09:59:24-07:00,7.2626960277557,7,versionC_stim.csv,JOL_H_VersionC.csv,"Highlight vs normal C","Highlight vs normal",TRASH,LITTER,Study2,B,103,105,JOL_H,User,-,"How likely are you to correctly recall the second item in the pair?|Type your response on a scale from 0-100 and then press Enter.",Study/JOL,"Study Phase2",6516,,,2080,5945,,,,60,1
5f0b14b1938b1e3f7163a926,h4e2o6kk9o,Trevor-ex1,1,256,2020-07-17T09:59:28-07:00,4.0110020637512,7,versionC_stim.csv,JOL_H_VersionC.csv,"Highlight vs normal C","Highlight vs normal",CUT,CHOP,Study2,B,107,126,JOL_H,User,-,"How likely are you to correctly recall the second item in the pair?|Type your response on a scale from 0-100 and then press Enter.",Study/JOL,"Study Phase2",3214,,,2472,2718,,,,60,1
5f0b14b1938b1e3f7163a926,h4e2o6kk9o,Trevor-ex1,1,257,2020-07-17T09:59:32-07:00,3.7600009441376,7,versionC_stim.csv,JOL_H_VersionC.csv,"Highlight vs normal C","Highlight vs normal",HAVE,OWN,Study2,S,153,133,JOL_H,User,-,"How likely are you to correctly recall the second item in the pair?|Type your response on a scale from 0-100 and then press Enter.",Study/JOL,"Study Phase2",2872,,,2308,2422,,,,30,1
5f0b14b1938b1e3f7163a926,h4e2o6kk9o,Trevor-ex1,1,258,2020-07-17T09:59:35-07:00,2.5349149703979,7,versionC_stim.csv,JOL_H_VersionC.csv,"Highlight vs normal C","Highlight vs normal",LOVE,AFFECTION,Study2,B,115,143,JOL,User,-,"How likely are you to correctly recall the second item in the pair?|Type your response on a scale from 0-100 and then press Enter.",Study/JOL,"Study Phase2",1886,,,1207,1349,,,,40,1
5f0b14b1938b1e3f7163a926,h4e2o6kk9o,Trevor-ex1,1,259,2020-07-17T09:59:38-07:00,2.9428839683533,7,versionC_stim.csv,JOL_H_VersionC.csv,"Highlight vs normal C","Highlight vs normal",DRINK,WATER,Study2,S,143,119,JOL_H,User,-,"How likely are you to correctly recall the second item in the pair?|Type your response on a scale from 0-100 and then press Enter.",Study/JOL,"Study Phase2",2100,,,1483,1612,,,,70,1
5f0b14b1938b1e3f7163a926,h4e2o6kk9o,Trevor-ex1,1,260,2020-07-17T09:59:40-07:00,2.6585199832916,7,versionC_stim.csv,JOL_H_VersionC.csv,"Highlight vs normal C","Highlight vs normal",EAT,DINE,Study2,B,111,155,JOL,User,-,"How likely are you to correctly recall the second item in the pair?|Type your response on a scale from 0-100 and then press Enter.",Study/JOL,"Study Phase2",2013,,,1406,1489,,,,70,1
5f0b14b1938b1e3f7163a926,h4e2o6kk9o,Trevor-ex1,1,261,2020-07-17T09:59:45-07:00,4.8537340164185,7,versionC_stim.csv,JOL_H_VersionC.csv,"Highlight vs normal C","Highlight vs normal",BRACELET,WRIST,Study2,S,140,118,JOL_H,User,-,"How likely are you to correctly recall the second item in the pair?|Type your response on a scale from 0-100 and then press Enter.",Study/JOL,"Study Phase2",4088,,,2182,2566,,,,30,1
5f0b14b1938b1e3f7163a926,h4e2o6kk9o,Trevor-ex1,1,262,2020-07-17T09:59:51-07:00,5.7145781517029,7,versionC_stim.csv,JOL_H_VersionC.csv,"Highlight vs normal C","Highlight vs normal",JAR,MASON,Study2,S,138,171,JOL,User,-,"How likely are you to correctly recall the second item in the pair?|Type your response on a scale from 0-100 and then press Enter.",Study/JOL,"Study Phase2",4737,,,4042,4184,,,,40,1
5f0b14b1938b1e3f7163a926,h4e2o6kk9o,Trevor-ex1,1,263,2020-07-17T09:59:54-07:00,3.0940840244293,7,versionC_stim.csv,JOL_H_VersionC.csv,"Highlight vs normal C","Highlight vs normal",SIGN,LOAN,Study2,U,171,131,JOL_H,User,-,"How likely are you to correctly recall the second item in the pair?|Type your response on a scale from 0-100 and then press Enter.",Study/JOL,"Study Phase2",2387,,,1737,1854,,,,60,1
5f0b14b1938b1e3f7163a926,h4e2o6kk9o,Trevor-ex1,1,264,2020-07-17T09:59:58-07:00,4.1735119819641,7,versionC_stim.csv,JOL_H_VersionC.csv,"Highlight vs normal C","Highlight vs normal",BRAWL,FIGHT,Study2,F,135,172,JOL,User,-,"How likely are you to correctly recall the second item in the pair?|Type your response on a scale from 0-100 and then press Enter.",Study/JOL,"Study Phase2",3348,,,2706,2838,,,,40,1
5f0b14b1938b1e3f7163a926,h4e2o6kk9o,Trevor-ex1,1,265,2020-07-17T10:00:01-07:00,2.6129329204559,7,versionC_stim.csv,JOL_H_VersionC.csv,"Highlight vs normal C","Highlight vs normal",FLIP,TURN,Study2,F,116,138,JOL,User,-,"How likely are you to correctly recall the second item in the pair?|Type your response on a scale from 0-100 and then press Enter.",Study/JOL,"Study Phase2",1849,,,1270,1421,,,,30,1
5f0b14b1938b1e3f7163a926,h4e2o6kk9o,Trevor-ex1,1,266,2020-07-17T10:00:05-07:00,3.9622459411621,7,versionC_stim.csv,JOL_H_VersionC.csv,"Highlight vs normal C","Highlight vs normal",TRUTHFUL,HONEST,Study2,F,133,154,JOL,User,-,"How likely are you to correctly recall the second item in the pair?|Type your response on a scale from 0-100 and then press Enter.",Study/JOL,"Study Phase2",3294,,,1602,2802,,,,20,1
5f0b14b1938b1e3f7163a926,h4e2o6kk9o,Trevor-ex1,1,267,2020-07-17T10:00:07-07:00,2.7156939506531,7,versionC_stim.csv,JOL_H_VersionC.csv,"Highlight vs normal C","Highlight vs normal",YEAR,MONTH,BUFFER4,Buffer,177,177,JOL_H,User,-,"How likely are you to correctly recall the second item in the pair?|Type your response on a scale from 0-100 and then press Enter.",Study/JOL,BUFFER4,1857,,,1135,1367,,,,30,1
5f0b14b1938b1e3f7163a926,h4e2o6kk9o,Trevor-ex1,1,268,2020-07-17T10:00:10-07:00,2.5936501026154,7,versionC_stim.csv,JOL_H_VersionC.csv,"Highlight vs normal C","Highlight vs normal",SHED,TOOL,BUFFER4,Buffer,178,179,JOL_H,User,-,"How likely are you to correctly recall the second item in the pair?|Type your response on a scale from 0-100 and then press Enter.",Study/JOL,BUFFER4,1859,,,1216,1343,,,,40,1
5f0b14b1938b1e3f7163a926,h4e2o6kk9o,Trevor-ex1,1,269,2020-07-17T10:00:13-07:00,2.8482439517975,7,versionC_stim.csv,JOL_H_VersionC.csv,"Highlight vs normal C","Highlight vs normal",MARCH,SPRING,BUFFER4,Buffer,179,181,JOL,User,-,"How likely are you to correctly recall the second item in the pair?|Type your response on a scale from 0-100 and then press Enter.",Study/JOL,BUFFER4,2142,,,1288,1592,,,,20,1
5f0b14b1938b1e3f7163a926,h4e2o6kk9o,Trevor-ex1,1,270,2020-07-17T10:00:16-07:00,3.5879580974579,7,versionC_stim.csv,JOL_H_VersionC.csv,"Highlight vs normal C","Highlight vs normal",WEEKS,DAYS,BUFFER4,Buffer,176,180,JOL,User,-,"How likely are you to correctly recall the second item in the pair?|Type your response on a scale from 0-100 and then press Enter.",Study/JOL,BUFFER4,2871,,,2166,2313,,,,70,1
5f0b14b1938b1e3f7163a926,h4e2o6kk9o,Trevor-ex1,1,271,2020-07-17T10:00:21-07:00,4.2377119064331,7,versionC_stim.csv,JOL_H_VersionC.csv,"Highlight vs normal C","Highlight vs normal",SPOOKY,OCTOBER,BUFFER4,Buffer,180,178,JOL_H,User,-,"How likely are you to correctly recall the second item in the pair?|Type your response on a scale from 0-100 and then press Enter.",Study/JOL,BUFFER4,3397,,,2697,2872,,,,70,1
5f0b14b1938b1e3f7163a926,h4e2o6kk9o,Trevor-ex1,1,272,2020-07-17T10:00:23-07:00,2.0948510169983,7,versionC_stim.csv,JOL_H_VersionC.csv,"Highlight vs normal C","Highlight vs normal",,,,,,0,Instruct,User,-,"You have completed this section. Please press Enter.",Filler_Instruction,Instruct5,1419,,,-1,-1,,,,,1
5f0b14b1938b1e3f7163a926,h4e2o6kk9o,Trevor-ex1,1,273,2020-07-17T10:02:23-07:00,120.79206204414,7,versionC_stim.csv,JOL_H_VersionC.csv,"Highlight vs normal C","Highlight vs normal",,,,,,0,FreeRecall,120,120,"Please list the 50 US states in reverse alphabetical order (z - a). The task will automatically advance to the next screen after two minutes.",,Filler2,120010,"Wyoming wisconsin west virginia washington virginia vermont utah texas tennessee south dakota south caroline phode island pennsylvania oregon oklahoma ohio noth dakota north caroline new york ",0,11120,113344,0,0,,,0.903
5f0b14b1938b1e3f7163a926,h4e2o6kk9o,Trevor-ex1,1,274,2020-07-17T10:02:37-07:00,13.781908035278,7,versionC_stim.csv,JOL_H_VersionC.csv,"Highlight vs normal C","Highlight vs normal",,,,,,0,Instruct,-,10,"You will now be presented with the first word from each of the previously studied item pairs. Please type the missing word. If you do not know the word, you may guess or press Enter to skip forward to the next pair.",,Instruct6,12917,,,-1,-1,,,,,1
