Username,ID,ExperimentName,Session,Trial,Date,TimeDif,"Condition Number","Stimuli File","Order File","Condition Description","Condition Notes",Stimuli*Cue,Stimuli*Answer,Stimuli*Shuffle,"Stimuli*Stimuli Notes",Stimuli*Value,Procedure*Item,"Procedure*Trial Type","Procedure*Max Time","Procedure*Min Time",Procedure*Text,"Procedure*Procedure Notes",Procedure*Shuffle,Response*RT,Response*Response,Response*Accuracy,Response*RTfirst,Response*RTlast,Response*strictAcc,Response*lenientAcc,Response*focus,Response*JOL,Response*Focus
5de8695380e0fc7e7ac9f271,2y44mpm192,Trevor-ex1,1,1,2020-07-17T09:42:24-07:00,6.48956990242,6,versionA_stim.csv,JOL_H_VersionB.csv,"Highlight vs normal B","Highlight vs normal",,,,,,0,Instruct,-,5,"In this section, you will be presented with a series of word pairs.",Initial_Instruct,Instruct1,6331,,,-1,-1,,,,,1
5de8695380e0fc7e7ac9f271,2y44mpm192,Trevor-ex1,1,2,2020-07-17T09:42:36-07:00,12.096504211426,6,versionA_stim.csv,JOL_H_VersionB.csv,"Highlight vs normal B","Highlight vs normal",,,,,,0,Instruct,-,10,"As you study, you will be asked to rate your ability to remember the second item in the pair if you were only shown the first at test. You will make these ratings using a 0 to 100 Scale.",,Instruct13,11840,,,-1,-1,,,,,1
5de8695380e0fc7e7ac9f271,2y44mpm192,Trevor-ex1,1,3,2020-07-17T09:42:50-07:00,13.818712949753,6,versionA_stim.csv,JOL_H_VersionB.csv,"Highlight vs normal B","Highlight vs normal",,,,,,0,Instruct,-,10,"For example, if you are given the pair CAT - DOG, a rating of 0 indicates that you would not remember DOG at test, while a rating of 100 indicates full certainty that you would remember the word DOG at test.",,Instruct14,13553,,,-1,-1,,,,,0.851
5de8695380e0fc7e7ac9f271,2y44mpm192,Trevor-ex1,1,4,2020-07-17T09:43:02-07:00,12.454602956772,6,versionA_stim.csv,JOL_H_VersionB.csv,"Highlight vs normal B","Highlight vs normal",,,,,,0,Instruct,-,10,"When making your ratings, it is criticial that you use the full range of the scale. You will be disqualified for only giving ratings of 0 or 100! After making your rating, press Enter to advance to the next pair.",,Instruct15,12203,,,-1,-1,,,,,0.918
5de8695380e0fc7e7ac9f271,2y44mpm192,Trevor-ex1,1,5,2020-07-17T09:43:04-07:00,2.4892289638519,6,versionA_stim.csv,JOL_H_VersionB.csv,"Highlight vs normal B","Highlight vs normal",,,,,,0,Instruct,User,-,"You will now begin the study. Press Enter when you are ready to begin.",,Instruct16,2237,,,-1,-1,,,,,1
5de8695380e0fc7e7ac9f271,2y44mpm192,Trevor-ex1,1,6,2020-07-17T09:43:10-07:00,5.7918109893799,6,versionA_stim.csv,JOL_H_VersionB.csv,"Highlight vs normal B","Highlight vs normal",SHRIMP,FISH,BUFFER3,Buffer,93,93,JOL,User,-,"How likely are you to correctly recall the second item in the pair?|Type your response on a scale from 0-100 and then press Enter.",Study/JOL,BUFFER,5534,,,4390,4470,,,,95,1
5de8695380e0fc7e7ac9f271,2y44mpm192,Trevor-ex1,1,7,2020-07-17T09:43:18-07:00,7.8343939781189,6,versionA_stim.csv,JOL_H_VersionB.csv,"Highlight vs normal B","Highlight vs normal",NOODLE,STRING,BUFFER3,Buffer,92,95,JOL_H,User,-,"How likely are you to correctly recall the second item in the pair?|Type your response on a scale from 0-100 and then press Enter.",Study/JOL,BUFFER,7581,,,7234,7236,,,,60,1
5de8695380e0fc7e7ac9f271,2y44mpm192,Trevor-ex1,1,8,2020-07-17T09:43:22-07:00,3.4116530418396,6,versionA_stim.csv,JOL_H_VersionB.csv,"Highlight vs normal B","Highlight vs normal",CARROT,POTATO,BUFFER3,Buffer,91,96,JOL_H,User,-,"How likely are you to correctly recall the second item in the pair?|Type your response on a scale from 0-100 and then press Enter.",Study/JOL,BUFFER,3144,,,2395,2519,,,,25,1
5de8695380e0fc7e7ac9f271,2y44mpm192,Trevor-ex1,1,9,2020-07-17T09:43:27-07:00,5.6380529403687,6,versionA_stim.csv,JOL_H_VersionB.csv,"Highlight vs normal B","Highlight vs normal",CAMP,ADVENTURE,BUFFER3,Buffer,95,92,JOL,User,-,"How likely are you to correctly recall the second item in the pair?|Type your response on a scale from 0-100 and then press Enter.",Study/JOL,BUFFER,4384,,,2096,3503,,,,65,1
5de8695380e0fc7e7ac9f271,2y44mpm192,Trevor-ex1,1,10,2020-07-17T09:43:31-07:00,4.152428150177,6,versionA_stim.csv,JOL_H_VersionB.csv,"Highlight vs normal B","Highlight vs normal",ICE,FROZEN,BUFFER3,Buffer,94,94,JOL_H,User,-,"How likely are you to correctly recall the second item in the pair?|Type your response on a scale from 0-100 and then press Enter.",Study/JOL,BUFFER,3887,,,3431,3750,,,,100,1
5de8695380e0fc7e7ac9f271,2y44mpm192,Trevor-ex1,1,11,2020-07-17T09:43:36-07:00,4.4536919593811,6,versionA_stim.csv,JOL_H_VersionB.csv,"Highlight vs normal B","Highlight vs normal",MOAT,CLEAR,Study2,U,169,113,JOL,User,-,"How likely are you to correctly recall the second item in the pair?|Type your response on a scale from 0-100 and then press Enter.",Study/JOL,"Study Phase",4198,,,2198,2198,,,,0,1
5de8695380e0fc7e7ac9f271,2y44mpm192,Trevor-ex1,1,12,2020-07-17T09:43:38-07:00,2.3682389259338,6,versionA_stim.csv,JOL_H_VersionB.csv,"Highlight vs normal B","Highlight vs normal",BOTH,OUNCE,Study2,U,172,148,JOL_H,User,-,"How likely are you to correctly recall the second item in the pair?|Type your response on a scale from 0-100 and then press Enter.",Study/JOL,"Study Phase",2108,,,1340,1340,,,,0,1
5de8695380e0fc7e7ac9f271,2y44mpm192,Trevor-ex1,1,13,2020-07-17T09:43:44-07:00,5.9120299816132,6,versionA_stim.csv,JOL_H_VersionB.csv,"Highlight vs normal B","Highlight vs normal",ELEMENT,CARBON,Study2,S,141,158,JOL_H,User,-,"How likely are you to correctly recall the second item in the pair?|Type your response on a scale from 0-100 and then press Enter.",Study/JOL,"Study Phase",5647,,,5365,5406,,,,75,1
5de8695380e0fc7e7ac9f271,2y44mpm192,Trevor-ex1,1,14,2020-07-17T09:43:49-07:00,4.7178170681,6,versionA_stim.csv,JOL_H_VersionB.csv,"Highlight vs normal B","Highlight vs normal",CAR,WINDSHIELD,Study2,B,117,120,JOL,User,-,"How likely are you to correctly recall the second item in the pair?|Type your response on a scale from 0-100 and then press Enter.",Study/JOL,"Study Phase",4441,,,3051,4259,,,,95,1
5de8695380e0fc7e7ac9f271,2y44mpm192,Trevor-ex1,1,15,2020-07-17T09:43:53-07:00,4.0017619132996,6,versionA_stim.csv,JOL_H_VersionB.csv,"Highlight vs normal B","Highlight vs normal",INCENSE,SMELL,Study2,F,110,171,JOL_H,User,-,"How likely are you to correctly recall the second item in the pair?|Type your response on a scale from 0-100 and then press Enter.",Study/JOL,"Study Phase",3746,,,3491,3586,,,,95,1
5de8695380e0fc7e7ac9f271,2y44mpm192,Trevor-ex1,1,16,2020-07-17T09:43:57-07:00,4.1291210651398,6,versionA_stim.csv,JOL_H_VersionB.csv,"Highlight vs normal B","Highlight vs normal",HONEST,TRUTHFUL,Study2,B,133,125,JOL,User,-,"How likely are you to correctly recall the second item in the pair?|Type your response on a scale from 0-100 and then press Enter.",Study/JOL,"Study Phase",3842,,,3530,3546,,,,90,1
5de8695380e0fc7e7ac9f271,2y44mpm192,Trevor-ex1,1,17,2020-07-17T09:43:59-07:00,2.4890449047089,6,versionA_stim.csv,JOL_H_VersionB.csv,"Highlight vs normal B","Highlight vs normal",EARTH,GROUND,Study2,S,144,160,JOL_H,User,-,"How likely are you to correctly recall the second item in the pair?|Type your response on a scale from 0-100 and then press Enter.",Study/JOL,"Study Phase",2233,,,1848,1936,,,,90,1
5de8695380e0fc7e7ac9f271,2y44mpm192,Trevor-ex1,1,18,2020-07-17T09:44:04-07:00,4.4112951755524,6,versionA_stim.csv,JOL_H_VersionB.csv,"Highlight vs normal B","Highlight vs normal",POP,BALLOON,Study2,B,123,111,JOL,User,-,"How likely are you to correctly recall the second item in the pair?|Type your response on a scale from 0-100 and then press Enter.",Study/JOL,"Study Phase",4149,,,3828,4118,,,,70,1
5de8695380e0fc7e7ac9f271,2y44mpm192,Trevor-ex1,1,19,2020-07-17T09:44:12-07:00,8.0273938179016,6,versionA_stim.csv,JOL_H_VersionB.csv,"Highlight vs normal B","Highlight vs normal",MAZE,ELECTION,Study2,U,159,100,JOL,User,-,"How likely are you to correctly recall the second item in the pair?|Type your response on a scale from 0-100 and then press Enter.",Study/JOL,"Study Phase",7768,,,4920,7720,,,,10,1
5de8695380e0fc7e7ac9f271,2y44mpm192,Trevor-ex1,1,20,2020-07-17T09:44:17-07:00,5.59485912323,6,versionA_stim.csv,JOL_H_VersionB.csv,"Highlight vs normal B","Highlight vs normal",RAZOR,SHAVE,Study2,S,136,132,JOL,User,-,"How likely are you to correctly recall the second item in the pair?|Type your response on a scale from 0-100 and then press Enter.",Study/JOL,"Study Phase",5332,,,4771,4955,,,,70,1
5de8695380e0fc7e7ac9f271,2y44mpm192,Trevor-ex1,1,21,2020-07-17T09:44:23-07:00,5.8884859085083,6,versionA_stim.csv,JOL_H_VersionB.csv,"Highlight vs normal B","Highlight vs normal",SHOELACE,TIE,Study2,F,99,112,JOL,User,-,"How likely are you to correctly recall the second item in the pair?|Type your response on a scale from 0-100 and then press Enter.",Study/JOL,"Study Phase",5629,,,5101,5373,,,,20,1
5de8695380e0fc7e7ac9f271,2y44mpm192,Trevor-ex1,1,22,2020-07-17T09:44:29-07:00,5.8959980010986,6,versionA_stim.csv,JOL_H_VersionB.csv,"Highlight vs normal B","Highlight vs normal",DRY,WET,Study2,S,146,108,JOL,User,-,"How likely are you to correctly recall the second item in the pair?|Type your response on a scale from 0-100 and then press Enter.",Study/JOL,"Study Phase",5633,,,5337,5417,,,,15,1
5de8695380e0fc7e7ac9f271,2y44mpm192,Trevor-ex1,1,23,2020-07-17T09:44:33-07:00,3.5625150203705,6,versionA_stim.csv,JOL_H_VersionB.csv,"Highlight vs normal B","Highlight vs normal",SAFETY,SEATBELT,Study2,S,147,107,JOL,User,-,"How likely are you to correctly recall the second item in the pair?|Type your response on a scale from 0-100 and then press Enter.",Study/JOL,"Study Phase",3234,,,2896,3064,,,,60,1
5de8695380e0fc7e7ac9f271,2y44mpm192,Trevor-ex1,1,24,2020-07-17T09:44:36-07:00,3.5270540714264,6,versionA_stim.csv,JOL_H_VersionB.csv,"Highlight vs normal B","Highlight vs normal",MAIN,SCAR,Study2,U,175,99,JOL,User,-,"How likely are you to correctly recall the second item in the pair?|Type your response on a scale from 0-100 and then press Enter.",Study/JOL,"Study Phase",3256,,,3152,3153,,,,0,1
5de8695380e0fc7e7ac9f271,2y44mpm192,Trevor-ex1,1,25,2020-07-17T09:44:44-07:00,7.7108409404755,6,versionA_stim.csv,JOL_H_VersionB.csv,"Highlight vs normal B","Highlight vs normal",GONE,AWAY,Study2,S,142,155,JOL_H,User,-,"How likely are you to correctly recall the second item in the pair?|Type your response on a scale from 0-100 and then press Enter.",Study/JOL,"Study Phase",6799,,,2967,6695,,,,55,1
5de8695380e0fc7e7ac9f271,2y44mpm192,Trevor-ex1,1,26,2020-07-17T09:44:47-07:00,3.3772649765015,6,versionA_stim.csv,JOL_H_VersionB.csv,"Highlight vs normal B","Highlight vs normal",BAD,VILLAIN,Study2,B,118,163,JOL_H,User,-,"How likely are you to correctly recall the second item in the pair?|Type your response on a scale from 0-100 and then press Enter.",Study/JOL,"Study Phase",3122,,,2899,3066,,,,80,1
5de8695380e0fc7e7ac9f271,2y44mpm192,Trevor-ex1,1,27,2020-07-17T09:44:50-07:00,2.8229279518127,6,versionA_stim.csv,JOL_H_VersionB.csv,"Highlight vs normal B","Highlight vs normal",BIRD,PENGUIN,Study2,B,119,134,JOL,User,-,"How likely are you to correctly recall the second item in the pair?|Type your response on a scale from 0-100 and then press Enter.",Study/JOL,"Study Phase",2570,,,2289,2481,,,,40,1
5de8695380e0fc7e7ac9f271,2y44mpm192,Trevor-ex1,1,28,2020-07-17T09:44:53-07:00,3.2490391731262,6,versionA_stim.csv,JOL_H_VersionB.csv,"Highlight vs normal B","Highlight vs normal",DETECTIVE,MYSTERY,Study2,F,100,173,JOL_H,User,-,"How likely are you to correctly recall the second item in the pair?|Type your response on a scale from 0-100 and then press Enter.",Study/JOL,"Study Phase",3005,,,2758,2869,,,,80,1
5de8695380e0fc7e7ac9f271,2y44mpm192,Trevor-ex1,1,29,2020-07-17T09:45:01-07:00,7.7055358886719,6,versionA_stim.csv,JOL_H_VersionB.csv,"Highlight vs normal B","Highlight vs normal",BEST,FAVORITE,Study2,B,125,129,JOL,User,-,"How likely are you to correctly recall the second item in the pair?|Type your response on a scale from 0-100 and then press Enter.",Study/JOL,"Study Phase",7355,,,5587,7266,,,,15,1
5de8695380e0fc7e7ac9f271,2y44mpm192,Trevor-ex1,1,30,2020-07-17T09:45:07-07:00,5.9575190544128,6,versionA_stim.csv,JOL_H_VersionB.csv,"Highlight vs normal B","Highlight vs normal",CLUE,GAME,Study2,F,97,119,JOL,User,-,"How likely are you to correctly recall the second item in the pair?|Type your response on a scale from 0-100 and then press Enter.",Study/JOL,"Study Phase",5707,,,5499,5611,,,,30,1
5de8695380e0fc7e7ac9f271,2y44mpm192,Trevor-ex1,1,31,2020-07-17T09:45:09-07:00,2.0167129039764,6,versionA_stim.csv,JOL_H_VersionB.csv,"Highlight vs normal B","Highlight vs normal",RIGHTS,EQUAL,Study2,S,137,168,JOL_H,User,-,"How likely are you to correctly recall the second item in the pair?|Type your response on a scale from 0-100 and then press Enter.",Study/JOL,"Study Phase",1755,,,1626,1666,,,,30,1
5de8695380e0fc7e7ac9f271,2y44mpm192,Trevor-ex1,1,32,2020-07-17T09:45:12-07:00,2.684454202652,6,versionA_stim.csv,JOL_H_VersionB.csv,"Highlight vs normal B","Highlight vs normal",MASON,JAR,Study2,S,138,138,JOL_H,User,-,"How likely are you to correctly recall the second item in the pair?|Type your response on a scale from 0-100 and then press Enter.",Study/JOL,"Study Phase",2413,,,2031,2373,,,,100,1
5de8695380e0fc7e7ac9f271,2y44mpm192,Trevor-ex1,1,33,2020-07-17T09:45:14-07:00,2.4863159656525,6,versionA_stim.csv,JOL_H_VersionB.csv,"Highlight vs normal B","Highlight vs normal",LEASE,TOIL,Study2,U,170,145,JOL_H,User,-,"How likely are you to correctly recall the second item in the pair?|Type your response on a scale from 0-100 and then press Enter.",Study/JOL,"Study Phase",2228,,,2165,2165,,,,0,1
5de8695380e0fc7e7ac9f271,2y44mpm192,Trevor-ex1,1,34,2020-07-17T09:45:17-07:00,2.2268419265747,6,versionA_stim.csv,JOL_H_VersionB.csv,"Highlight vs normal B","Highlight vs normal",LITTER,TRASH,Study2,F,103,175,JOL_H,User,-,"How likely are you to correctly recall the second item in the pair?|Type your response on a scale from 0-100 and then press Enter.",Study/JOL,"Study Phase",1901,,,1725,1804,,,,95,1
5de8695380e0fc7e7ac9f271,2y44mpm192,Trevor-ex1,1,35,2020-07-17T09:45:20-07:00,3.3249490261078,6,versionA_stim.csv,JOL_H_VersionB.csv,"Highlight vs normal B","Highlight vs normal",CANDLE,WAX,Study2,S,139,161,JOL_H,User,-,"How likely are you to correctly recall the second item in the pair?|Type your response on a scale from 0-100 and then press Enter.",Study/JOL,"Study Phase",2968,,,2457,2753,,,,100,1
5de8695380e0fc7e7ac9f271,2y44mpm192,Trevor-ex1,1,36,2020-07-17T09:45:24-07:00,4.1269869804382,6,versionA_stim.csv,JOL_H_VersionB.csv,"Highlight vs normal B","Highlight vs normal",SHELL,SHAKE,Study2,U,163,114,JOL,User,-,"How likely are you to correctly recall the second item in the pair?|Type your response on a scale from 0-100 and then press Enter.",Study/JOL,"Study Phase",3865,,,3329,3650,,,,10,1
5de8695380e0fc7e7ac9f271,2y44mpm192,Trevor-ex1,1,37,2020-07-17T09:45:28-07:00,3.9292659759521,6,versionA_stim.csv,JOL_H_VersionB.csv,"Highlight vs normal B","Highlight vs normal",AFFECTION,LOVE,Study2,F,115,131,JOL,User,-,"How likely are you to correctly recall the second item in the pair?|Type your response on a scale from 0-100 and then press Enter.",Study/JOL,"Study Phase",3675,,,3218,3338,,,,80,1
5de8695380e0fc7e7ac9f271,2y44mpm192,Trevor-ex1,1,38,2020-07-17T09:45:30-07:00,1.9828999042511,6,versionA_stim.csv,JOL_H_VersionB.csv,"Highlight vs normal B","Highlight vs normal",VEHICLE,CHARM,Study2,U,160,102,JOL,User,-,"How likely are you to correctly recall the second item in the pair?|Type your response on a scale from 0-100 and then press Enter.",Study/JOL,"Study Phase",1712,,,1608,1608,,,,0,1
5de8695380e0fc7e7ac9f271,2y44mpm192,Trevor-ex1,1,39,2020-07-17T09:45:35-07:00,4.9538822174072,6,versionA_stim.csv,JOL_H_VersionB.csv,"Highlight vs normal B","Highlight vs normal",FUZZY,BANG,Study2,U,168,136,JOL,User,-,"How likely are you to correctly recall the second item in the pair?|Type your response on a scale from 0-100 and then press Enter.",Study/JOL,"Study Phase",3696,,,3614,3614,,,,0,1
5de8695380e0fc7e7ac9f271,2y44mpm192,Trevor-ex1,1,40,2020-07-17T09:45:39-07:00,4.0316917896271,6,versionA_stim.csv,JOL_H_VersionB.csv,"Highlight vs normal B","Highlight vs normal",ALONE,LONELY,Study2,S,145,124,JOL,User,-,"How likely are you to correctly recall the second item in the pair?|Type your response on a scale from 0-100 and then press Enter.",Study/JOL,"Study Phase",3784,,,3336,3440,,,,50,1
5de8695380e0fc7e7ac9f271,2y44mpm192,Trevor-ex1,1,41,2020-07-17T09:45:44-07:00,5.0238671302795,6,versionA_stim.csv,JOL_H_VersionB.csv,"Highlight vs normal B","Highlight vs normal",SLEEP,NAP,Study2,B,134,151,JOL_H,User,-,"How likely are you to correctly recall the second item in the pair?|Type your response on a scale from 0-100 and then press Enter.",Study/JOL,"Study Phase",4768,,,4008,4375,,,,70,1
5de8695380e0fc7e7ac9f271,2y44mpm192,Trevor-ex1,1,42,2020-07-17T09:45:47-07:00,2.8635039329529,6,versionA_stim.csv,JOL_H_VersionB.csv,"Highlight vs normal B","Highlight vs normal",TRUTH,LIE,Study2,S,148,115,JOL,User,-,"How likely are you to correctly recall the second item in the pair?|Type your response on a scale from 0-100 and then press Enter.",Study/JOL,"Study Phase",2594,,,1975,2198,,,,10,1
5de8695380e0fc7e7ac9f271,2y44mpm192,Trevor-ex1,1,43,2020-07-17T09:45:49-07:00,2.3240261077881,6,versionA_stim.csv,JOL_H_VersionB.csv,"Highlight vs normal B","Highlight vs normal",GIVE,STEAK,Study2,U,158,103,JOL,User,-,"How likely are you to correctly recall the second item in the pair?|Type your response on a scale from 0-100 and then press Enter.",Study/JOL,"Study Phase",2061,,,1933,1933,,,,0,1
5de8695380e0fc7e7ac9f271,2y44mpm192,Trevor-ex1,1,44,2020-07-17T09:45:52-07:00,3.3086829185486,6,versionA_stim.csv,JOL_H_VersionB.csv,"Highlight vs normal B","Highlight vs normal",FLEA,TICK,Study2,S,151,167,JOL_H,User,-,"How likely are you to correctly recall the second item in the pair?|Type your response on a scale from 0-100 and then press Enter.",Study/JOL,"Study Phase",3044,,,2164,2588,,,,85,1
5de8695380e0fc7e7ac9f271,2y44mpm192,Trevor-ex1,1,45,2020-07-17T09:45:55-07:00,2.7276170253754,6,versionA_stim.csv,JOL_H_VersionB.csv,"Highlight vs normal B","Highlight vs normal",DRIVER,CAR,Study2,F,106,172,JOL_H,User,-,"How likely are you to correctly recall the second item in the pair?|Type your response on a scale from 0-100 and then press Enter.",Study/JOL,"Study Phase",2468,,,2101,2179,,,,90,1
5de8695380e0fc7e7ac9f271,2y44mpm192,Trevor-ex1,1,46,2020-07-17T09:45:59-07:00,3.4312870502472,6,versionA_stim.csv,JOL_H_VersionB.csv,"Highlight vs normal B","Highlight vs normal",JUSTICE,MAROON,Study2,U,156,121,JOL,User,-,"How likely are you to correctly recall the second item in the pair?|Type your response on a scale from 0-100 and then press Enter.",Study/JOL,"Study Phase",3166,,,2990,3086,,,,30,1
5de8695380e0fc7e7ac9f271,2y44mpm192,Trevor-ex1,1,47,2020-07-17T09:46:05-07:00,6.2043979167938,6,versionA_stim.csv,JOL_H_VersionB.csv,"Highlight vs normal B","Highlight vs normal",MULE,DONKEY,Study2,F,108,153,JOL_H,User,-,"How likely are you to correctly recall the second item in the pair?|Type your response on a scale from 0-100 and then press Enter.",Study/JOL,"Study Phase",5937,,,5147,5361,,,,90,1
5de8695380e0fc7e7ac9f271,2y44mpm192,Trevor-ex1,1,48,2020-07-17T09:46:08-07:00,3.3594579696655,6,versionA_stim.csv,JOL_H_VersionB.csv,"Highlight vs normal B","Highlight vs normal",PHONE,COMMUNICATION,Study2,S,149,123,JOL,User,-,"How likely are you to correctly recall the second item in the pair?|Type your response on a scale from 0-100 and then press Enter.",Study/JOL,"Study Phase",3092,,,2788,2860,,,,30,1
5de8695380e0fc7e7ac9f271,2y44mpm192,Trevor-ex1,1,49,2020-07-17T09:46:12-07:00,3.6492011547089,6,versionA_stim.csv,JOL_H_VersionB.csv,"Highlight vs normal B","Highlight vs normal",FRUIT,STRAWBERRY,Study2,B,124,116,JOL,User,-,"How likely are you to correctly recall the second item in the pair?|Type your response on a scale from 0-100 and then press Enter.",Study/JOL,"Study Phase",3376,,,2808,3015,,,,85,1
5de8695380e0fc7e7ac9f271,2y44mpm192,Trevor-ex1,1,50,2020-07-17T09:46:20-07:00,8.4620969295502,6,versionA_stim.csv,JOL_H_VersionB.csv,"Highlight vs normal B","Highlight vs normal",CHOP,CUT,Study2,F,107,126,JOL,User,-,"How likely are you to correctly recall the second item in the pair?|Type your response on a scale from 0-100 and then press Enter.",Study/JOL,"Study Phase",8197,,,7189,7349,,,,60,1
5de8695380e0fc7e7ac9f271,2y44mpm192,Trevor-ex1,1,51,2020-07-17T09:46:26-07:00,6.0785579681396,6,versionA_stim.csv,JOL_H_VersionB.csv,"Highlight vs normal B","Highlight vs normal",ADJOURN,END,Study2,F,101,105,JOL,User,-,"How likely are you to correctly recall the second item in the pair?|Type your response on a scale from 0-100 and then press Enter.",Study/JOL,"Study Phase",5813,,,5566,5789,,,,30,1
5de8695380e0fc7e7ac9f271,2y44mpm192,Trevor-ex1,1,52,2020-07-17T09:46:30-07:00,3.9785859584808,6,versionA_stim.csv,JOL_H_VersionB.csv,"Highlight vs normal B","Highlight vs normal",WATER,DRINK,Study2,S,143,133,JOL,User,-,"How likely are you to correctly recall the second item in the pair?|Type your response on a scale from 0-100 and then press Enter.",Study/JOL,"Study Phase",3715,,,3307,3491,,,,90,1
5de8695380e0fc7e7ac9f271,2y44mpm192,Trevor-ex1,1,53,2020-07-17T09:46:34-07:00,3.248172044754,6,versionA_stim.csv,JOL_H_VersionB.csv,"Highlight vs normal B","Highlight vs normal",TURN,FLIP,Study2,B,116,141,JOL_H,User,-,"How likely are you to correctly recall the second item in the pair?|Type your response on a scale from 0-100 and then press Enter.",Study/JOL,"Study Phase",2976,,,2639,2831,,,,15,1
5de8695380e0fc7e7ac9f271,2y44mpm192,Trevor-ex1,1,54,2020-07-17T09:46:38-07:00,3.976902961731,6,versionA_stim.csv,JOL_H_VersionB.csv,"Highlight vs normal B","Highlight vs normal",LISTEN,FICTION,Study2,U,164,156,JOL_H,User,-,"How likely are you to correctly recall the second item in the pair?|Type your response on a scale from 0-100 and then press Enter.",Study/JOL,"Study Phase",3697,,,2384,2385,,,,0,1
5de8695380e0fc7e7ac9f271,2y44mpm192,Trevor-ex1,1,55,2020-07-17T09:46:42-07:00,4.2876341342926,6,versionA_stim.csv,JOL_H_VersionB.csv,"Highlight vs normal B","Highlight vs normal",CHERRY,RED,Study2,F,104,117,JOL,User,-,"How likely are you to correctly recall the second item in the pair?|Type your response on a scale from 0-100 and then press Enter.",Study/JOL,"Study Phase",4030,,,3494,3757,,,,85,1
5de8695380e0fc7e7ac9f271,2y44mpm192,Trevor-ex1,1,56,2020-07-17T09:46:45-07:00,3.4357929229736,6,versionA_stim.csv,JOL_H_VersionB.csv,"Highlight vs normal B","Highlight vs normal",OWN,HAVE,Study2,S,153,118,JOL,User,-,"How likely are you to correctly recall the second item in the pair?|Type your response on a scale from 0-100 and then press Enter.",Study/JOL,"Study Phase",3167,,,2935,3079,,,,40,1
5de8695380e0fc7e7ac9f271,2y44mpm192,Trevor-ex1,1,57,2020-07-17T09:46:49-07:00,3.6267659664154,6,versionA_stim.csv,JOL_H_VersionB.csv,"Highlight vs normal B","Highlight vs normal",CAT,PANTHER,Study2,B,126,142,JOL_H,User,-,"How likely are you to correctly recall the second item in the pair?|Type your response on a scale from 0-100 and then press Enter.",Study/JOL,"Study Phase",3360,,,2729,2784,,,,12,1
5de8695380e0fc7e7ac9f271,2y44mpm192,Trevor-ex1,1,58,2020-07-17T09:46:51-07:00,2.3946080207825,6,versionA_stim.csv,JOL_H_VersionB.csv,"Highlight vs normal B","Highlight vs normal",NAME,HATE,Study2,U,167,150,JOL_H,User,-,"How likely are you to correctly recall the second item in the pair?|Type your response on a scale from 0-100 and then press Enter.",Study/JOL,"Study Phase",2059,,,1971,1971,,,,0,1
5de8695380e0fc7e7ac9f271,2y44mpm192,Trevor-ex1,1,59,2020-07-17T09:46:54-07:00,2.30925989151,6,versionA_stim.csv,JOL_H_VersionB.csv,"Highlight vs normal B","Highlight vs normal",GLASS,BREAKABLE,Study2,B,127,154,JOL_H,User,-,"How likely are you to correctly recall the second item in the pair?|Type your response on a scale from 0-100 and then press Enter.",Study/JOL,"Study Phase",2032,,,1752,1831,,,,90,1
5de8695380e0fc7e7ac9f271,2y44mpm192,Trevor-ex1,1,60,2020-07-17T09:46:58-07:00,4.6018409729004,6,versionA_stim.csv,JOL_H_VersionB.csv,"Highlight vs normal B","Highlight vs normal",STRETCH,CLOTH,Study2,U,157,176,JOL_H,User,-,"How likely are you to correctly recall the second item in the pair?|Type your response on a scale from 0-100 and then press Enter.",Study/JOL,"Study Phase",4340,,,2100,4259,,,,25,1
5de8695380e0fc7e7ac9f271,2y44mpm192,Trevor-ex1,1,61,2020-07-17T09:47:07-07:00,8.920166015625,6,versionA_stim.csv,JOL_H_VersionB.csv,"Highlight vs normal B","Highlight vs normal",DINE,EAT,Study2,F,111,127,JOL,User,-,"How likely are you to correctly recall the second item in the pair?|Type your response on a scale from 0-100 and then press Enter.",Study/JOL,"Study Phase",8649,,,8473,8553,,,,30,1
5de8695380e0fc7e7ac9f271,2y44mpm192,Trevor-ex1,1,62,2020-07-17T09:47:12-07:00,5.103718996048,6,versionA_stim.csv,JOL_H_VersionB.csv,"Highlight vs normal B","Highlight vs normal",BASEBALL,LEAGUE,Study2,B,131,152,JOL_H,User,-,"How likely are you to correctly recall the second item in the pair?|Type your response on a scale from 0-100 and then press Enter.",Study/JOL,"Study Phase",4834,,,4409,4762,,,,100,1
5de8695380e0fc7e7ac9f271,2y44mpm192,Trevor-ex1,1,63,2020-07-17T09:47:15-07:00,2.9124310016632,6,versionA_stim.csv,JOL_H_VersionB.csv,"Highlight vs normal B","Highlight vs normal",FEUD,FIGHT,Study2,F,113,106,JOL,User,-,"How likely are you to correctly recall the second item in the pair?|Type your response on a scale from 0-100 and then press Enter.",Study/JOL,"Study Phase",2649,,,2401,2576,,,,80,1
5de8695380e0fc7e7ac9f271,2y44mpm192,Trevor-ex1,1,64,2020-07-17T09:47:17-07:00,2.0920450687408,6,versionA_stim.csv,JOL_H_VersionB.csv,"Highlight vs normal B","Highlight vs normal",CAKE,CLOTHES,Study2,U,166,166,JOL_H,User,-,"How likely are you to correctly recall the second item in the pair?|Type your response on a scale from 0-100 and then press Enter.",Study/JOL,"Study Phase",1823,,,1687,1687,,,,0,1
5de8695380e0fc7e7ac9f271,2y44mpm192,Trevor-ex1,1,65,2020-07-17T09:47:20-07:00,2.7163519859314,6,versionA_stim.csv,JOL_H_VersionB.csv,"Highlight vs normal B","Highlight vs normal",EXTENSION,LONG,Study2,F,96,140,JOL_H,User,-,"How likely are you to correctly recall the second item in the pair?|Type your response on a scale from 0-100 and then press Enter.",Study/JOL,"Study Phase",2454,,,2312,2389,,,,50,1
5de8695380e0fc7e7ac9f271,2y44mpm192,Trevor-ex1,1,66,2020-07-17T09:47:23-07:00,2.5774660110474,6,versionA_stim.csv,JOL_H_VersionB.csv,"Highlight vs normal B","Highlight vs normal",FIGHT,BRAWL,Study2,B,135,137,JOL_H,User,-,"How likely are you to correctly recall the second item in the pair?|Type your response on a scale from 0-100 and then press Enter.",Study/JOL,"Study Phase",2317,,,2157,2157,,,,6,1
5de8695380e0fc7e7ac9f271,2y44mpm192,Trevor-ex1,1,67,2020-07-17T09:47:28-07:00,5.3170530796051,6,versionA_stim.csv,JOL_H_VersionB.csv,"Highlight vs normal B","Highlight vs normal",EVEN,REVENGE,Study2,B,122,149,JOL_H,User,-,"How likely are you to correctly recall the second item in the pair?|Type your response on a scale from 0-100 and then press Enter.",Study/JOL,"Study Phase",5053,,,4797,5006,,,,30,1
5de8695380e0fc7e7ac9f271,2y44mpm192,Trevor-ex1,1,68,2020-07-17T09:47:31-07:00,3.065299987793,6,versionA_stim.csv,JOL_H_VersionB.csv,"Highlight vs normal B","Highlight vs normal",TANTRUM,TEMPER,Study2,S,154,162,JOL_H,User,-,"How likely are you to correctly recall the second item in the pair?|Type your response on a scale from 0-100 and then press Enter.",Study/JOL,"Study Phase",2796,,,2405,2690,,,,70,1
5de8695380e0fc7e7ac9f271,2y44mpm192,Trevor-ex1,1,69,2020-07-17T09:47:34-07:00,3.5376269817352,6,versionA_stim.csv,JOL_H_VersionB.csv,"Highlight vs normal B","Highlight vs normal",CRACKLE,ABLE,Study2,U,162,128,JOL,User,-,"How likely are you to correctly recall the second item in the pair?|Type your response on a scale from 0-100 and then press Enter.",Study/JOL,"Study Phase",3267,,,1618,3178,,,,95,1
5de8695380e0fc7e7ac9f271,2y44mpm192,Trevor-ex1,1,70,2020-07-17T09:48:03-07:00,28.807692050934,6,versionA_stim.csv,JOL_H_VersionB.csv,"Highlight vs normal B","Highlight vs normal",KEYS,JOKE,Study2,U,165,164,JOL_H,User,-,"How likely are you to correctly recall the second item in the pair?|Type your response on a scale from 0-100 and then press Enter.",Study/JOL,"Study Phase",6930,,,6825,6825,,,,0,1
5de8695380e0fc7e7ac9f271,2y44mpm192,Trevor-ex1,1,71,2020-07-17T09:48:14-07:00,10.373146057129,6,versionA_stim.csv,JOL_H_VersionB.csv,"Highlight vs normal B","Highlight vs normal",SCALP,HEAD,Study2,F,105,109,JOL,User,-,"How likely are you to correctly recall the second item in the pair?|Type your response on a scale from 0-100 and then press Enter.",Study/JOL,"Study Phase",9998,,,9814,9901,,,,30,0.741
5de8695380e0fc7e7ac9f271,2y44mpm192,Trevor-ex1,1,72,2020-07-17T09:48:20-07:00,6.781653881073,6,versionA_stim.csv,JOL_H_VersionB.csv,"Highlight vs normal B","Highlight vs normal",MONEY,BANKER,Study2,B,132,110,JOL,User,-,"How likely are you to correctly recall the second item in the pair?|Type your response on a scale from 0-100 and then press Enter.",Study/JOL,"Study Phase",6515,,,6379,6443,,,,20,0.967
5de8695380e0fc7e7ac9f271,2y44mpm192,Trevor-ex1,1,73,2020-07-17T09:48:23-07:00,2.2253389358521,6,versionA_stim.csv,JOL_H_VersionB.csv,"Highlight vs normal B","Highlight vs normal",SUN,TAN,Study2,S,155,104,JOL,User,-,"How likely are you to correctly recall the second item in the pair?|Type your response on a scale from 0-100 and then press Enter.",Study/JOL,"Study Phase",1886,,,1646,1742,,,,90,1
5de8695380e0fc7e7ac9f271,2y44mpm192,Trevor-ex1,1,74,2020-07-17T09:48:27-07:00,3.9008569717407,6,versionA_stim.csv,JOL_H_VersionB.csv,"Highlight vs normal B","Highlight vs normal",PLANE,AIRCRAFT,Study2,B,129,146,JOL_H,User,-,"How likely are you to correctly recall the second item in the pair?|Type your response on a scale from 0-100 and then press Enter.",Study/JOL,"Study Phase",3526,,,2173,2293,,,,80,1
5de8695380e0fc7e7ac9f271,2y44mpm192,Trevor-ex1,1,75,2020-07-17T09:48:34-07:00,7.5636970996857,6,versionA_stim.csv,JOL_H_VersionB.csv,"Highlight vs normal B","Highlight vs normal",FISH,SARDINE,Study2,B,130,143,JOL_H,User,-,"How likely are you to correctly recall the second item in the pair?|Type your response on a scale from 0-100 and then press Enter.",Study/JOL,"Study Phase",7299,,,2186,5227,,,,50,1
5de8695380e0fc7e7ac9f271,2y44mpm192,Trevor-ex1,1,76,2020-07-17T09:48:38-07:00,4.2821609973907,6,versionA_stim.csv,JOL_H_VersionB.csv,"Highlight vs normal B","Highlight vs normal",DOCUMENT,PAPER,Study2,F,109,165,JOL_H,User,-,"How likely are you to correctly recall the second item in the pair?|Type your response on a scale from 0-100 and then press Enter.",Study/JOL,"Study Phase",2966,,,2662,2701,,,,10,1
5de8695380e0fc7e7ac9f271,2y44mpm192,Trevor-ex1,1,77,2020-07-17T09:49:08-07:00,29.946846008301,6,versionA_stim.csv,JOL_H_VersionB.csv,"Highlight vs normal B","Highlight vs normal",SHEARS,SCISSORS,Study2,F,112,174,JOL_H,User,-,"How likely are you to correctly recall the second item in the pair?|Type your response on a scale from 0-100 and then press Enter.",Study/JOL,"Study Phase",29687,,,26607,29168,,,,60,0.609
5de8695380e0fc7e7ac9f271,2y44mpm192,Trevor-ex1,1,78,2020-07-17T09:49:12-07:00,3.4929690361023,6,versionA_stim.csv,JOL_H_VersionB.csv,"Highlight vs normal B","Highlight vs normal",ROD,REEL,Study2,S,150,170,JOL_H,User,-,"How likely are you to correctly recall the second item in the pair?|Type your response on a scale from 0-100 and then press Enter.",Study/JOL,"Study Phase",3221,,,3197,3197,,,,0,1
5de8695380e0fc7e7ac9f271,2y44mpm192,Trevor-ex1,1,79,2020-07-17T09:49:15-07:00,3.1788129806519,6,versionA_stim.csv,JOL_H_VersionB.csv,"Highlight vs normal B","Highlight vs normal",LOUD,NOISE,Study2,S,152,98,JOL,User,-,"How likely are you to correctly recall the second item in the pair?|Type your response on a scale from 0-100 and then press Enter.",Study/JOL,"Study Phase",2916,,,2721,2723,,,,30,1
5de8695380e0fc7e7ac9f271,2y44mpm192,Trevor-ex1,1,80,2020-07-17T09:49:19-07:00,3.9915430545807,6,versionA_stim.csv,JOL_H_VersionB.csv,"Highlight vs normal B","Highlight vs normal",FURRY,DOG,Study2,F,102,147,JOL_H,User,-,"How likely are you to correctly recall the second item in the pair?|Type your response on a scale from 0-100 and then press Enter.",Study/JOL,"Study Phase",3724,,,3528,3588,,,,70,1
5de8695380e0fc7e7ac9f271,2y44mpm192,Trevor-ex1,1,81,2020-07-17T09:49:21-07:00,2.3340909481049,6,versionA_stim.csv,JOL_H_VersionB.csv,"Highlight vs normal B","Highlight vs normal",CACTUS,PLANT,Study2,F,98,159,JOL_H,User,-,"How likely are you to correctly recall the second item in the pair?|Type your response on a scale from 0-100 and then press Enter.",Study/JOL,"Study Phase",2068,,,1853,1915,,,,60,1
5de8695380e0fc7e7ac9f271,2y44mpm192,Trevor-ex1,1,82,2020-07-17T09:49:25-07:00,3.3200318813324,6,versionA_stim.csv,JOL_H_VersionB.csv,"Highlight vs normal B","Highlight vs normal",THREAD,THIMBLE,Study2,B,121,144,JOL_H,User,-,"How likely are you to correctly recall the second item in the pair?|Type your response on a scale from 0-100 and then press Enter.",Study/JOL,"Study Phase",3060,,,2843,2947,,,,20,1
5de8695380e0fc7e7ac9f271,2y44mpm192,Trevor-ex1,1,83,2020-07-17T09:49:32-07:00,7.6498341560364,6,versionA_stim.csv,JOL_H_VersionB.csv,"Highlight vs normal B","Highlight vs normal",MEAT,OBTAIN,Study2,U,161,101,JOL,User,-,"How likely are you to correctly recall the second item in the pair?|Type your response on a scale from 0-100 and then press Enter.",Study/JOL,"Study Phase",7384,,,7296,7296,,,,0,1
5de8695380e0fc7e7ac9f271,2y44mpm192,Trevor-ex1,1,84,2020-07-17T09:49:35-07:00,2.5042409896851,6,versionA_stim.csv,JOL_H_VersionB.csv,"Highlight vs normal B","Highlight vs normal",STAR,ACTRESS,Study2,B,120,130,JOL,User,-,"How likely are you to correctly recall the second item in the pair?|Type your response on a scale from 0-100 and then press Enter.",Study/JOL,"Study Phase",2170,,,1707,1931,,,,60,1
5de8695380e0fc7e7ac9f271,2y44mpm192,Trevor-ex1,1,85,2020-07-17T09:49:38-07:00,3.5896439552307,6,versionA_stim.csv,JOL_H_VersionB.csv,"Highlight vs normal B","Highlight vs normal",TEMPERATURE,MORNING,Study2,U,173,135,JOL,User,-,"How likely are you to correctly recall the second item in the pair?|Type your response on a scale from 0-100 and then press Enter.",Study/JOL,"Study Phase",3104,,,2993,2993,,,,5,1
5de8695380e0fc7e7ac9f271,2y44mpm192,Trevor-ex1,1,86,2020-07-17T09:49:41-07:00,3.0414819717407,6,versionA_stim.csv,JOL_H_VersionB.csv,"Highlight vs normal B","Highlight vs normal",LOAN,SIGN,Study2,U,171,169,JOL_H,User,-,"How likely are you to correctly recall the second item in the pair?|Type your response on a scale from 0-100 and then press Enter.",Study/JOL,"Study Phase",2781,,,2613,2613,,,,0,1
5de8695380e0fc7e7ac9f271,2y44mpm192,Trevor-ex1,1,87,2020-07-17T09:49:47-07:00,5.660434961319,6,versionA_stim.csv,JOL_H_VersionB.csv,"Highlight vs normal B","Highlight vs normal",CHILL,COLD,Study2,F,114,97,JOL,User,-,"How likely are you to correctly recall the second item in the pair?|Type your response on a scale from 0-100 and then press Enter.",Study/JOL,"Study Phase",5388,,,4476,5097,,,,60,1
5de8695380e0fc7e7ac9f271,2y44mpm192,Trevor-ex1,1,88,2020-07-17T09:49:51-07:00,4.2982730865479,6,versionA_stim.csv,JOL_H_VersionB.csv,"Highlight vs normal B","Highlight vs normal",MIRROR,CHILDREN,Study2,U,174,157,JOL_H,User,-,"How likely are you to correctly recall the second item in the pair?|Type your response on a scale from 0-100 and then press Enter.",Study/JOL,"Study Phase",4028,,,3877,3877,,,,0,1
5de8695380e0fc7e7ac9f271,2y44mpm192,Trevor-ex1,1,89,2020-07-17T09:49:53-07:00,1.8248479366302,6,versionA_stim.csv,JOL_H_VersionB.csv,"Highlight vs normal B","Highlight vs normal",DEAD,COFFIN,Study2,B,128,122,JOL,User,-,"How likely are you to correctly recall the second item in the pair?|Type your response on a scale from 0-100 and then press Enter.",Study/JOL,"Study Phase",1566,,,1329,1422,,,,90,1
5de8695380e0fc7e7ac9f271,2y44mpm192,Trevor-ex1,1,90,2020-07-17T09:49:56-07:00,2.3128180503845,6,versionA_stim.csv,JOL_H_VersionB.csv,"Highlight vs normal B","Highlight vs normal",WRIST,BRACELET,Study2,S,140,139,JOL_H,User,-,"How likely are you to correctly recall the second item in the pair?|Type your response on a scale from 0-100 and then press Enter.",Study/JOL,"Study Phase",2038,,,1525,1829,,,,100,1
5de8695380e0fc7e7ac9f271,2y44mpm192,Trevor-ex1,1,91,2020-07-17T09:49:58-07:00,2.8803629875183,6,versionA_stim.csv,JOL_H_VersionB.csv,"Highlight vs normal B","Highlight vs normal",MONTH,YEAR,BUFFER4,Buffer,177,180,JOL,User,-,"How likely are you to correctly recall the second item in the pair?|Type your response on a scale from 0-100 and then press Enter.",Study/JOL,BUFFER2,2560,,,1946,2384,,,,70,1
5de8695380e0fc7e7ac9f271,2y44mpm192,Trevor-ex1,1,92,2020-07-17T09:50:01-07:00,2.3944709300995,6,versionA_stim.csv,JOL_H_VersionB.csv,"Highlight vs normal B","Highlight vs normal",OCTOBER,SPOOKY,BUFFER4,Buffer,180,179,JOL,User,-,"How likely are you to correctly recall the second item in the pair?|Type your response on a scale from 0-100 and then press Enter.",Study/JOL,BUFFER2,2128,,,1497,1864,,,,100,1
5de8695380e0fc7e7ac9f271,2y44mpm192,Trevor-ex1,1,93,2020-07-17T09:50:03-07:00,2.4131870269775,6,versionA_stim.csv,JOL_H_VersionB.csv,"Highlight vs normal B","Highlight vs normal",DAYS,WEEKS,BUFFER4,Buffer,176,181,JOL,User,-,"How likely are you to correctly recall the second item in the pair?|Type your response on a scale from 0-100 and then press Enter.",Study/JOL,BUFFER2,2146,,,1754,1890,,,,70,1
5de8695380e0fc7e7ac9f271,2y44mpm192,Trevor-ex1,1,94,2020-07-17T09:50:06-07:00,3.048840045929,6,versionA_stim.csv,JOL_H_VersionB.csv,"Highlight vs normal B","Highlight vs normal",SPRING,MARCH,BUFFER4,Buffer,179,177,JOL_H,User,-,"How likely are you to correctly recall the second item in the pair?|Type your response on a scale from 0-100 and then press Enter.",Study/JOL,BUFFER2,2782,,,2582,2678,,,,75,1
5de8695380e0fc7e7ac9f271,2y44mpm192,Trevor-ex1,1,95,2020-07-17T09:50:09-07:00,2.6079878807068,6,versionA_stim.csv,JOL_H_VersionB.csv,"Highlight vs normal B","Highlight vs normal",TOOL,SHED,BUFFER4,Buffer,178,178,JOL_H,User,-,"How likely are you to correctly recall the second item in the pair?|Type your response on a scale from 0-100 and then press Enter.",Study/JOL,BUFFER2,2337,,,2066,2266,,,,85,1
5de8695380e0fc7e7ac9f271,2y44mpm192,Trevor-ex1,1,96,2020-07-17T09:50:10-07:00,1.3589360713959,6,versionA_stim.csv,JOL_H_VersionB.csv,"Highlight vs normal B","Highlight vs normal",,,,,,0,Instruct,User,-,"You have completed this section. Please press Enter.",Filler_Instruction,Instruct2,1098,,,-1,-1,,,,,1
5de8695380e0fc7e7ac9f271,2y44mpm192,Trevor-ex1,1,97,2020-07-17T09:52:11-07:00,120.37887692451,6,versionA_stim.csv,JOL_H_VersionB.csv,"Highlight vs normal B","Highlight vs normal",,,,,,0,FreeRecall,120,120,"Please list the 50 US states in alphabetical order. The task will automatically advance to the next screen after two minutes.",,Filler1,120001,"Alabama Alaska Arkansas California Colorado Florida Georgia Hawaii Idaho Illinois Iowa Loui Maine Maryland Michigan Nevada New Jersey New York North Carolina North Dakota Ohio Oklahoma Oregon South Carolina South Dakota Texas Washington Wyoming ",0,4454,119973,0,0,,,1
5de8695380e0fc7e7ac9f271,2y44mpm192,Trevor-ex1,1,98,2020-07-17T09:53:13-07:00,62.556849002838,6,versionA_stim.csv,JOL_H_VersionB.csv,"Highlight vs normal B","Highlight vs normal",,,,,,0,Instruct,-,10,"You will now be presented with the first word from each of the previously studied item pairs. Please type the missing word. If you do not know the word, you may guess or press Enter to skip forward to the next pair.",,Instruct3,62173,,,-1,-1,,,,,0.09
5de8695380e0fc7e7ac9f271,2y44mpm192,Trevor-ex1,1,99,2020-07-17T09:53:17-07:00,4.2323009967804,6,versionA_stim.csv,JOL_H_VersionB.csv,"Highlight vs normal B","Highlight vs normal",THREAD,THIMBLE,Study2,B,121,144,Test,User,-,,Recall,Recall1,3965,,0,-1,-1,0,0,,,1
5de8695380e0fc7e7ac9f271,2y44mpm192,Trevor-ex1,1,100,2020-07-17T09:53:22-07:00,4.4099152088165,6,versionA_stim.csv,JOL_H_VersionB.csv,"Highlight vs normal B","Highlight vs normal",FLEA,TICK,Study2,S,151,167,Test,User,-,,Recall,Recall1,4139,TICK,100,2465,3818,1,1,,,1
5de8695380e0fc7e7ac9f271,2y44mpm192,Trevor-ex1,1,101,2020-07-17T09:53:30-07:00,8.4012908935547,6,versionA_stim.csv,JOL_H_VersionB.csv,"Highlight vs normal B","Highlight vs normal",BAD,VILLAIN,Study2,B,118,163,Test,User,-,,Recall,Recall1,8138,,0,-1,-1,0,0,,,1
5de8695380e0fc7e7ac9f271,2y44mpm192,Trevor-ex1,1,102,2020-07-17T09:53:36-07:00,5.5934860706329,6,versionA_stim.csv,JOL_H_VersionB.csv,"Highlight vs normal B","Highlight vs normal",FEUD,FIGHT,Study2,F,113,106,Test,User,-,,Recall,Recall1,5321,FIGHT,100,4851,5319,1,1,,,1
5de8695380e0fc7e7ac9f271,2y44mpm192,Trevor-ex1,1,103,2020-07-17T09:53:38-07:00,2.656898021698,6,versionA_stim.csv,JOL_H_VersionB.csv,"Highlight vs normal B","Highlight vs normal",EXTENSION,LONG,Study2,F,96,140,Test,User,-,,Recall,Recall1,2394,LONG,100,1922,2217,1,1,,,1
5de8695380e0fc7e7ac9f271,2y44mpm192,Trevor-ex1,1,104,2020-07-17T09:53:42-07:00,3.3422768115997,6,versionA_stim.csv,JOL_H_VersionB.csv,"Highlight vs normal B","Highlight vs normal",SHOELACE,TIE,Study2,F,99,112,Test,User,-,,Recall,Recall1,3067,TIE,100,1379,1539,1,1,,,1
5de8695380e0fc7e7ac9f271,2y44mpm192,Trevor-ex1,1,105,2020-07-17T09:53:45-07:00,3.1449151039124,6,versionA_stim.csv,JOL_H_VersionB.csv,"Highlight vs normal B","Highlight vs normal",ROD,REEL,Study2,S,150,170,Test,User,-,,Recall,Recall1,2873,,0,-1,-1,0,0,,,1
5de8695380e0fc7e7ac9f271,2y44mpm192,Trevor-ex1,1,106,2020-07-17T09:53:49-07:00,4.1066229343414,6,versionA_stim.csv,JOL_H_VersionB.csv,"Highlight vs normal B","Highlight vs normal",CACTUS,PLANT,Study2,F,98,159,Test,User,-,,Recall,Recall1,3841,PLANT,100,2633,3105,1,1,,,1
5de8695380e0fc7e7ac9f271,2y44mpm192,Trevor-ex1,1,107,2020-07-17T09:53:52-07:00,2.7513990402222,6,versionA_stim.csv,JOL_H_VersionB.csv,"Highlight vs normal B","Highlight vs normal",MIRROR,CHILDREN,Study2,U,174,157,Test,User,-,,Recall,Recall1,2486,,0,-1,-1,0,0,,,1
5de8695380e0fc7e7ac9f271,2y44mpm192,Trevor-ex1,1,108,2020-07-17T09:53:54-07:00,2.3777260780334,6,versionA_stim.csv,JOL_H_VersionB.csv,"Highlight vs normal B","Highlight vs normal",SHEARS,SCISSORS,Study2,F,112,174,Test,User,-,,Recall,Recall1,2111,SCISSORS,100,951,1822,1,1,,,1
5de8695380e0fc7e7ac9f271,2y44mpm192,Trevor-ex1,1,109,2020-07-17T09:53:56-07:00,1.9038610458374,6,versionA_stim.csv,JOL_H_VersionB.csv,"Highlight vs normal B","Highlight vs normal",MOAT,CLEAR,Study2,U,169,113,Test,User,-,,Recall,Recall1,1622,CLEAR,100,1337,1525,1,1,,,1
5de8695380e0fc7e7ac9f271,2y44mpm192,Trevor-ex1,1,110,2020-07-17T09:53:58-07:00,2.3390338420868,6,versionA_stim.csv,JOL_H_VersionB.csv,"Highlight vs normal B","Highlight vs normal",STAR,ACTRESS,Study2,B,120,130,Test,User,-,,Recall,Recall1,2065,,0,-1,-1,0,0,,,1
5de8695380e0fc7e7ac9f271,2y44mpm192,Trevor-ex1,1,111,2020-07-17T09:54:04-07:00,5.8016231060028,6,versionA_stim.csv,JOL_H_VersionB.csv,"Highlight vs normal B","Highlight vs normal",GLASS,BREAKABLE,Study2,B,127,154,Test,User,-,,Recall,Recall1,4489,BREAK,71.428571428571,3312,3544,0,0,,,1
5de8695380e0fc7e7ac9f271,2y44mpm192,Trevor-ex1,1,112,2020-07-17T09:54:06-07:00,2.0515818595886,6,versionA_stim.csv,JOL_H_VersionB.csv,"Highlight vs normal B","Highlight vs normal",DRY,WET,Study2,S,146,108,Test,User,-,,Recall,Recall1,1786,WET,100,1370,1649,1,1,,,1
5de8695380e0fc7e7ac9f271,2y44mpm192,Trevor-ex1,1,113,2020-07-17T09:54:13-07:00,6.6111850738525,6,versionA_stim.csv,JOL_H_VersionB.csv,"Highlight vs normal B","Highlight vs normal",SAFETY,SEATBELT,Study2,S,147,107,Test,User,-,,Recall,Recall1,6339,,0,-1,-1,0,0,,,1
5de8695380e0fc7e7ac9f271,2y44mpm192,Trevor-ex1,1,114,2020-07-17T09:54:18-07:00,4.9220609664917,6,versionA_stim.csv,JOL_H_VersionB.csv,"Highlight vs normal B","Highlight vs normal",CHILL,COLD,Study2,F,114,97,Test,User,-,,Recall,Recall1,4651,,0,-1,-1,0,0,,,1
5de8695380e0fc7e7ac9f271,2y44mpm192,Trevor-ex1,1,115,2020-07-17T09:54:21-07:00,3.2912361621857,6,versionA_stim.csv,JOL_H_VersionB.csv,"Highlight vs normal B","Highlight vs normal",CAR,WINDSHIELD,Study2,B,117,120,Test,User,-,,Recall,Recall1,3027,WINDSHIELD,100,1730,2850,1,1,,,1
5de8695380e0fc7e7ac9f271,2y44mpm192,Trevor-ex1,1,116,2020-07-17T09:54:24-07:00,2.4548649787903,6,versionA_stim.csv,JOL_H_VersionB.csv,"Highlight vs normal B","Highlight vs normal",FIGHT,BRAWL,Study2,B,135,137,Test,User,-,,Recall,Recall1,2180,FEUD,0,1596,1827,0,0,,,1
5de8695380e0fc7e7ac9f271,2y44mpm192,Trevor-ex1,1,117,2020-07-17T09:54:27-07:00,3.9423549175262,6,versionA_stim.csv,JOL_H_VersionB.csv,"Highlight vs normal B","Highlight vs normal",FRUIT,STRAWBERRY,Study2,B,124,116,Test,User,-,,Recall,Recall1,2526,STRAWBERRY,100,1334,2253,1,1,,,1
5de8695380e0fc7e7ac9f271,2y44mpm192,Trevor-ex1,1,118,2020-07-17T09:54:32-07:00,4.3016149997711,6,versionA_stim.csv,JOL_H_VersionB.csv,"Highlight vs normal B","Highlight vs normal",FISH,SARDINE,Study2,B,130,143,Test,User,-,,Recall,Recall1,4017,SHRIMP,46.153846153846,2139,2531,0,0,,,1
5de8695380e0fc7e7ac9f271,2y44mpm192,Trevor-ex1,1,119,2020-07-17T09:54:36-07:00,4.126571893692,6,versionA_stim.csv,JOL_H_VersionB.csv,"Highlight vs normal B","Highlight vs normal",LISTEN,FICTION,Study2,U,164,156,Test,User,-,,Recall,Recall1,3853,,0,-1,-1,0,0,,,1
5de8695380e0fc7e7ac9f271,2y44mpm192,Trevor-ex1,1,120,2020-07-17T09:54:38-07:00,2.4000120162964,6,versionA_stim.csv,JOL_H_VersionB.csv,"Highlight vs normal B","Highlight vs normal",FURRY,DOG,Study2,F,102,147,Test,User,-,,Recall,Recall1,2060,DOG,100,1763,1907,1,1,,,1
5de8695380e0fc7e7ac9f271,2y44mpm192,Trevor-ex1,1,121,2020-07-17T09:54:41-07:00,2.2889530658722,6,versionA_stim.csv,JOL_H_VersionB.csv,"Highlight vs normal B","Highlight vs normal",LOAN,SIGN,Study2,U,171,169,Test,User,-,,Recall,Recall1,2013,SHARK,22.222222222222,1510,1828,0,0,,,1
5de8695380e0fc7e7ac9f271,2y44mpm192,Trevor-ex1,1,122,2020-07-17T09:54:42-07:00,1.6221790313721,6,versionA_stim.csv,JOL_H_VersionB.csv,"Highlight vs normal B","Highlight vs normal",CLUE,GAME,Study2,F,97,119,Test,User,-,,Recall,Recall1,1356,GAME,100,1100,1307,1,1,,,1
5de8695380e0fc7e7ac9f271,2y44mpm192,Trevor-ex1,1,123,2020-07-17T09:54:52-07:00,9.5732378959656,6,versionA_stim.csv,JOL_H_VersionB.csv,"Highlight vs normal B","Highlight vs normal",CAKE,CLOTHES,Study2,U,166,166,Test,User,-,,Recall,Recall1,9299,,0,-1,-1,0,0,,,1
5de8695380e0fc7e7ac9f271,2y44mpm192,Trevor-ex1,1,124,2020-07-17T09:55:09-07:00,17.000895023346,6,versionA_stim.csv,JOL_H_VersionB.csv,"Highlight vs normal B","Highlight vs normal",MONEY,BANKER,Study2,B,132,110,Test,User,-,,Recall,Recall1,16712,,0,-1,-1,0,0,,,0.81
5de8695380e0fc7e7ac9f271,2y44mpm192,Trevor-ex1,1,125,2020-07-17T09:55:12-07:00,3.0046820640564,6,versionA_stim.csv,JOL_H_VersionB.csv,"Highlight vs normal B","Highlight vs normal",SCALP,HEAD,Study2,F,105,109,Test,User,-,,Recall,Recall1,2731,HEAD,100,1275,1514,1,1,,,1
5de8695380e0fc7e7ac9f271,2y44mpm192,Trevor-ex1,1,126,2020-07-17T09:55:13-07:00,1.4636969566345,6,versionA_stim.csv,JOL_H_VersionB.csv,"Highlight vs normal B","Highlight vs normal",MASON,JAR,Study2,S,138,138,Test,User,-,,Recall,Recall1,1199,JAR,100,935,1038,1,1,,,1
5de8695380e0fc7e7ac9f271,2y44mpm192,Trevor-ex1,1,127,2020-07-17T09:55:16-07:00,2.5185639858246,6,versionA_stim.csv,JOL_H_VersionB.csv,"Highlight vs normal B","Highlight vs normal",MEAT,OBTAIN,Study2,U,161,101,Test,User,-,,Recall,Recall1,2249,,0,-1,-1,0,0,,,1
5de8695380e0fc7e7ac9f271,2y44mpm192,Trevor-ex1,1,128,2020-07-17T09:55:18-07:00,2.5052120685577,6,versionA_stim.csv,JOL_H_VersionB.csv,"Highlight vs normal B","Highlight vs normal",GIVE,STEAK,Study2,U,158,103,Test,User,-,,Recall,Recall1,2227,TAKE,66.666666666667,1171,1467,0,0,,,1
5de8695380e0fc7e7ac9f271,2y44mpm192,Trevor-ex1,1,129,2020-07-17T09:55:22-07:00,3.850291967392,6,versionA_stim.csv,JOL_H_VersionB.csv,"Highlight vs normal B","Highlight vs normal",JUSTICE,MAROON,Study2,U,156,121,Test,User,-,,Recall,Recall1,3236,EQUAL,18.181818181818,1394,1745,0,0,,,1
5de8695380e0fc7e7ac9f271,2y44mpm192,Trevor-ex1,1,130,2020-07-17T09:55:24-07:00,1.785089969635,6,versionA_stim.csv,JOL_H_VersionB.csv,"Highlight vs normal B","Highlight vs normal",INCENSE,SMELL,Study2,F,110,171,Test,User,-,,Recall,Recall1,1518,SMELL,100,943,1383,1,1,,,1
5de8695380e0fc7e7ac9f271,2y44mpm192,Trevor-ex1,1,131,2020-07-17T09:55:26-07:00,2.062420129776,6,versionA_stim.csv,JOL_H_VersionB.csv,"Highlight vs normal B","Highlight vs normal",TANTRUM,TEMPER,Study2,S,154,162,Test,User,-,,Recall,Recall1,1794,TEMPER,100,1234,1595,1,1,,,1
5de8695380e0fc7e7ac9f271,2y44mpm192,Trevor-ex1,1,132,2020-07-17T09:55:29-07:00,3.3916878700256,6,versionA_stim.csv,JOL_H_VersionB.csv,"Highlight vs normal B","Highlight vs normal",HONEST,TRUTHFUL,Study2,B,133,125,Test,User,-,,Recall,Recall1,3130,TRUTHFUL,100,2186,2849,1,1,,,1
5de8695380e0fc7e7ac9f271,2y44mpm192,Trevor-ex1,1,133,2020-07-17T09:55:53-07:00,23.429412126541,6,versionA_stim.csv,JOL_H_VersionB.csv,"Highlight vs normal B","Highlight vs normal",VEHICLE,CHARM,Study2,U,160,102,Test,User,-,,Recall,Recall1,23137,,0,-1,-1,0,0,,,0.794
5de8695380e0fc7e7ac9f271,2y44mpm192,Trevor-ex1,1,134,2020-07-17T09:55:57-07:00,4.2368659973145,6,versionA_stim.csv,JOL_H_VersionB.csv,"Highlight vs normal B","Highlight vs normal",EVEN,REVENGE,Study2,B,122,149,Test,User,-,,Recall,Recall1,3964,REVENGE,100,2707,3156,1,1,,,1
5de8695380e0fc7e7ac9f271,2y44mpm192,Trevor-ex1,1,135,2020-07-17T09:56:32-07:00,35.014479875565,6,versionA_stim.csv,JOL_H_VersionB.csv,"Highlight vs normal B","Highlight vs normal",CHERRY,RED,Study2,F,104,117,Test,User,-,,Recall,Recall1,34755,,0,-1,-1,0,0,,,0.525
5de8695380e0fc7e7ac9f271,2y44mpm192,Trevor-ex1,1,136,2020-07-17T09:56:38-07:00,6.3099689483643,6,versionA_stim.csv,JOL_H_VersionB.csv,"Highlight vs normal B","Highlight vs normal",KEYS,JOKE,Study2,U,165,164,Test,User,-,,Recall,Recall1,6025,,0,-1,-1,0,0,,,1
5de8695380e0fc7e7ac9f271,2y44mpm192,Trevor-ex1,1,137,2020-07-17T09:56:44-07:00,5.4724721908569,6,versionA_stim.csv,JOL_H_VersionB.csv,"Highlight vs normal B","Highlight vs normal",CRACKLE,ABLE,Study2,U,162,128,Test,User,-,,Recall,Recall1,5196,,0,-1,-1,0,0,,,1
5de8695380e0fc7e7ac9f271,2y44mpm192,Trevor-ex1,1,138,2020-07-17T09:56:53-07:00,9.4647629261017,6,versionA_stim.csv,JOL_H_VersionB.csv,"Highlight vs normal B","Highlight vs normal",BIRD,PENGUIN,Study2,B,119,134,Test,User,-,,Recall,Recall1,9192,,0,-1,-1,0,0,,,1
5de8695380e0fc7e7ac9f271,2y44mpm192,Trevor-ex1,1,139,2020-07-17T09:56:57-07:00,4.1414530277252,6,versionA_stim.csv,JOL_H_VersionB.csv,"Highlight vs normal B","Highlight vs normal",DETECTIVE,MYSTERY,Study2,F,100,173,Test,User,-,,Recall,Recall1,3872,MYSTERY,100,2210,3423,1,1,,,1
5de8695380e0fc7e7ac9f271,2y44mpm192,Trevor-ex1,1,140,2020-07-17T09:56:59-07:00,1.9600510597229,6,versionA_stim.csv,JOL_H_VersionB.csv,"Highlight vs normal B","Highlight vs normal",DOCUMENT,PAPER,Study2,F,109,165,Test,User,-,,Recall,Recall1,1695,PAPER,100,1271,1598,1,1,,,1
5de8695380e0fc7e7ac9f271,2y44mpm192,Trevor-ex1,1,141,2020-07-17T09:57:03-07:00,3.4904599189758,6,versionA_stim.csv,JOL_H_VersionB.csv,"Highlight vs normal B","Highlight vs normal",LEASE,TOIL,Study2,U,170,145,Test,User,-,,Recall,Recall1,3229,,0,-1,-1,0,0,,,1
5de8695380e0fc7e7ac9f271,2y44mpm192,Trevor-ex1,1,142,2020-07-17T09:57:23-07:00,20.202759027481,6,versionA_stim.csv,JOL_H_VersionB.csv,"Highlight vs normal B","Highlight vs normal",SUN,TAN,Study2,S,155,104,Test,User,-,,Recall,Recall1,19928,,0,-1,-1,0,0,,,1
5de8695380e0fc7e7ac9f271,2y44mpm192,Trevor-ex1,1,143,2020-07-17T09:57:32-07:00,8.7676360607147,6,versionA_stim.csv,JOL_H_VersionB.csv,"Highlight vs normal B","Highlight vs normal",BEST,FAVORITE,Study2,B,125,129,Test,User,-,,Recall,Recall1,8503,,0,-1,-1,0,0,,,1
5de8695380e0fc7e7ac9f271,2y44mpm192,Trevor-ex1,1,144,2020-07-17T09:57:36-07:00,3.9636960029602,6,versionA_stim.csv,JOL_H_VersionB.csv,"Highlight vs normal B","Highlight vs normal",PLANE,AIRCRAFT,Study2,B,129,146,Test,User,-,,Recall,Recall1,3682,FLY,18.181818181818,2754,2930,0,0,,,1
5de8695380e0fc7e7ac9f271,2y44mpm192,Trevor-ex1,1,145,2020-07-17T09:57:38-07:00,2.3628618717194,6,versionA_stim.csv,JOL_H_VersionB.csv,"Highlight vs normal B","Highlight vs normal",MULE,DONKEY,Study2,F,108,153,Test,User,-,,Recall,Recall1,2093,DONKEY,100,1204,1861,1,1,,,1
5de8695380e0fc7e7ac9f271,2y44mpm192,Trevor-ex1,1,146,2020-07-17T09:57:56-07:00,17.987746953964,6,versionA_stim.csv,JOL_H_VersionB.csv,"Highlight vs normal B","Highlight vs normal",TRUTH,LIE,Study2,S,148,115,Test,User,-,,Recall,Recall1,17694,HONEST,22.222222222222,1475,3530,0,0,,,0.371
5de8695380e0fc7e7ac9f271,2y44mpm192,Trevor-ex1,1,147,2020-07-17T09:58:46-07:00,49.617959976196,6,versionA_stim.csv,JOL_H_VersionB.csv,"Highlight vs normal B","Highlight vs normal",STRETCH,CLOTH,Study2,U,157,176,Test,User,-,,Recall,Recall1,49182,,0,-1,-1,0,0,,,0.488
5de8695380e0fc7e7ac9f271,2y44mpm192,Trevor-ex1,1,148,2020-07-17T09:58:52-07:00,6.5712370872498,6,versionA_stim.csv,JOL_H_VersionB.csv,"Highlight vs normal B","Highlight vs normal",TEMPERATURE,MORNING,Study2,U,173,135,Test,User,-,,Recall,Recall1,6291,,0,-1,-1,0,0,,,1
5de8695380e0fc7e7ac9f271,2y44mpm192,Trevor-ex1,1,149,2020-07-17T09:58:57-07:00,4.5724821090698,6,versionA_stim.csv,JOL_H_VersionB.csv,"Highlight vs normal B","Highlight vs normal",BASEBALL,LEAGUE,Study2,B,131,152,Test,User,-,,Recall,Recall1,4311,LEAGUE,100,1759,3910,1,1,,,1
5de8695380e0fc7e7ac9f271,2y44mpm192,Trevor-ex1,1,150,2020-07-17T09:59:49-07:00,51.661284923553,6,versionA_stim.csv,JOL_H_VersionB.csv,"Highlight vs normal B","Highlight vs normal",SHELL,SHAKE,Study2,U,163,114,Test,User,-,,Recall,Recall1,51285,,0,-1,-1,0,0,,,0.078
5de8695380e0fc7e7ac9f271,2y44mpm192,Trevor-ex1,1,151,2020-07-17T10:00:07-07:00,18.510524988174,6,versionA_stim.csv,JOL_H_VersionB.csv,"Highlight vs normal B","Highlight vs normal",POP,BALLOON,Study2,B,123,111,Test,User,-,,Recall,Recall1,18167,,0,-1,-1,0,0,,,0.67
5de8695380e0fc7e7ac9f271,2y44mpm192,Trevor-ex1,1,152,2020-07-17T10:00:10-07:00,2.7443370819092,6,versionA_stim.csv,JOL_H_VersionB.csv,"Highlight vs normal B","Highlight vs normal",ADJOURN,END,Study2,F,101,105,Test,User,-,,Recall,Recall1,2461,END,100,1645,1852,1,1,,,1
5de8695380e0fc7e7ac9f271,2y44mpm192,Trevor-ex1,1,153,2020-07-17T10:00:12-07:00,1.9217510223389,6,versionA_stim.csv,JOL_H_VersionB.csv,"Highlight vs normal B","Highlight vs normal",GONE,AWAY,Study2,S,142,155,Test,User,-,,Recall,Recall1,1649,AWAY,100,894,1485,1,1,,,1
5de8695380e0fc7e7ac9f271,2y44mpm192,Trevor-ex1,1,154,2020-07-17T10:00:15-07:00,2.7988147735596,6,versionA_stim.csv,JOL_H_VersionB.csv,"Highlight vs normal B","Highlight vs normal",CHOP,CUT,Study2,F,107,126,Test,User,-,,Recall,Recall1,2535,,0,-1,-1,0,0,,,1
5de8695380e0fc7e7ac9f271,2y44mpm192,Trevor-ex1,1,155,2020-07-17T10:00:18-07:00,3.2009301185608,6,versionA_stim.csv,JOL_H_VersionB.csv,"Highlight vs normal B","Highlight vs normal",OWN,HAVE,Study2,S,153,118,Test,User,-,,Recall,Recall1,2920,HAVE,100,1459,1691,1,1,,,1
5de8695380e0fc7e7ac9f271,2y44mpm192,Trevor-ex1,1,156,2020-07-17T10:00:20-07:00,2.5315690040588,6,versionA_stim.csv,JOL_H_VersionB.csv,"Highlight vs normal B","Highlight vs normal",CANDLE,WAX,Study2,S,139,161,Test,User,-,,Recall,Recall1,2254,WAX,100,1731,1830,1,1,,,1
5de8695380e0fc7e7ac9f271,2y44mpm192,Trevor-ex1,1,157,2020-07-17T10:00:21-07:00,0.4954559803009,6,versionA_stim.csv,JOL_H_VersionB.csv,"Highlight vs normal B","Highlight vs normal",MAIN,SCAR,Study2,U,175,99,Test,User,-,,Recall,Recall1,228,,0,-1,-1,0,0,,,1
5de8695380e0fc7e7ac9f271,2y44mpm192,Trevor-ex1,1,158,2020-07-17T10:00:26-07:00,4.7211599349976,6,versionA_stim.csv,JOL_H_VersionB.csv,"Highlight vs normal B","Highlight vs normal",PHONE,COMMUNICATION,Study2,S,149,123,Test,User,-,,Recall,Recall1,4451,,0,-1,-1,0,0,,,1
5de8695380e0fc7e7ac9f271,2y44mpm192,Trevor-ex1,1,159,2020-07-17T10:00:28-07:00,2.7058041095734,6,versionA_stim.csv,JOL_H_VersionB.csv,"Highlight vs normal B","Highlight vs normal",DINE,EAT,Study2,F,111,127,Test,User,-,,Recall,Recall1,2431,EAT,100,1990,2153,1,1,,,1
5de8695380e0fc7e7ac9f271,2y44mpm192,Trevor-ex1,1,160,2020-07-17T10:00:31-07:00,2.8917479515076,6,versionA_stim.csv,JOL_H_VersionB.csv,"Highlight vs normal B","Highlight vs normal",WRIST,BRACELET,Study2,S,140,139,Test,User,-,,Recall,Recall1,2620,BRACELET,100,1279,2371,1,1,,,1
5de8695380e0fc7e7ac9f271,2y44mpm192,Trevor-ex1,1,161,2020-07-17T10:00:37-07:00,5.6665749549866,6,versionA_stim.csv,JOL_H_VersionB.csv,"Highlight vs normal B","Highlight vs normal",WATER,DRINK,Study2,S,143,133,Test,User,-,,Recall,Recall1,5395,DRINK,100,4771,5098,1,1,,,1
5de8695380e0fc7e7ac9f271,2y44mpm192,Trevor-ex1,1,162,2020-07-17T10:00:41-07:00,4.0295369625092,6,versionA_stim.csv,JOL_H_VersionB.csv,"Highlight vs normal B","Highlight vs normal",MAZE,ELECTION,Study2,U,159,100,Test,User,-,,Recall,Recall1,3749,,0,-1,-1,0,0,,,1
5de8695380e0fc7e7ac9f271,2y44mpm192,Trevor-ex1,1,163,2020-07-17T10:00:44-07:00,3.420273065567,6,versionA_stim.csv,JOL_H_VersionB.csv,"Highlight vs normal B","Highlight vs normal",SLEEP,NAP,Study2,B,134,151,Test,User,-,,Recall,Recall1,3148,,0,-1,-1,0,0,,,1
5de8695380e0fc7e7ac9f271,2y44mpm192,Trevor-ex1,1,164,2020-07-17T10:00:48-07:00,3.8171179294586,6,versionA_stim.csv,JOL_H_VersionB.csv,"Highlight vs normal B","Highlight vs normal",AFFECTION,LOVE,Study2,F,115,131,Test,User,-,,Recall,Recall1,3548,LOVE,100,1755,2266,1,1,,,1
5de8695380e0fc7e7ac9f271,2y44mpm192,Trevor-ex1,1,165,2020-07-17T10:00:51-07:00,2.5391759872437,6,versionA_stim.csv,JOL_H_VersionB.csv,"Highlight vs normal B","Highlight vs normal",DEAD,COFFIN,Study2,B,128,122,Test,User,-,,Recall,Recall1,2278,COFFIN,100,1459,2070,1,1,,,1
5de8695380e0fc7e7ac9f271,2y44mpm192,Trevor-ex1,1,166,2020-07-17T10:00:53-07:00,2.3605110645294,6,versionA_stim.csv,JOL_H_VersionB.csv,"Highlight vs normal B","Highlight vs normal",ELEMENT,CARBON,Study2,S,141,158,Test,User,-,,Recall,Recall1,2061,CARBON,100,1250,1880,1,1,,,1
5de8695380e0fc7e7ac9f271,2y44mpm192,Trevor-ex1,1,167,2020-07-17T10:00:57-07:00,3.6051139831543,6,versionA_stim.csv,JOL_H_VersionB.csv,"Highlight vs normal B","Highlight vs normal",RIGHTS,EQUAL,Study2,S,137,168,Test,User,-,,Recall,Recall1,3337,JUSTICE,16.666666666667,2081,3113,0,0,,,1
5de8695380e0fc7e7ac9f271,2y44mpm192,Trevor-ex1,1,168,2020-07-17T10:01:01-07:00,4.7770969867706,6,versionA_stim.csv,JOL_H_VersionB.csv,"Highlight vs normal B","Highlight vs normal",LITTER,TRASH,Study2,F,103,175,Test,User,-,,Recall,Recall1,4501,TRASH,100,3700,4204,1,1,,,1
5de8695380e0fc7e7ac9f271,2y44mpm192,Trevor-ex1,1,169,2020-07-17T10:01:06-07:00,4.9010441303253,6,versionA_stim.csv,JOL_H_VersionB.csv,"Highlight vs normal B","Highlight vs normal",NAME,HATE,Study2,U,167,150,Test,User,-,,Recall,Recall1,4634,,0,-1,-1,0,0,,,1
5de8695380e0fc7e7ac9f271,2y44mpm192,Trevor-ex1,1,170,2020-07-17T10:01:21-07:00,14.398360013962,6,versionA_stim.csv,JOL_H_VersionB.csv,"Highlight vs normal B","Highlight vs normal",ALONE,LONELY,Study2,S,145,124,Test,User,-,,Recall,Recall1,13904,,0,-1,-1,0,0,,,1
5de8695380e0fc7e7ac9f271,2y44mpm192,Trevor-ex1,1,171,2020-07-17T10:01:26-07:00,5.3223869800568,6,versionA_stim.csv,JOL_H_VersionB.csv,"Highlight vs normal B","Highlight vs normal",EARTH,GROUND,Study2,S,144,160,Test,User,-,,Recall,Recall1,5045,,0,-1,-1,0,0,,,1
5de8695380e0fc7e7ac9f271,2y44mpm192,Trevor-ex1,1,172,2020-07-17T10:01:38-07:00,12.14151597023,6,versionA_stim.csv,JOL_H_VersionB.csv,"Highlight vs normal B","Highlight vs normal",FUZZY,BANG,Study2,U,168,136,Test,User,-,,Recall,Recall1,11865,,0,-1,-1,0,0,,,1
5de8695380e0fc7e7ac9f271,2y44mpm192,Trevor-ex1,1,173,2020-07-17T10:01:43-07:00,4.6761150360107,6,versionA_stim.csv,JOL_H_VersionB.csv,"Highlight vs normal B","Highlight vs normal",DRIVER,CAR,Study2,F,106,172,Test,User,-,,Recall,Recall1,4399,CAR,100,3169,3402,1,1,,,1
5de8695380e0fc7e7ac9f271,2y44mpm192,Trevor-ex1,1,174,2020-07-17T10:01:47-07:00,4.6237268447876,6,versionA_stim.csv,JOL_H_VersionB.csv,"Highlight vs normal B","Highlight vs normal",LOUD,NOISE,Study2,S,152,98,Test,User,-,,Recall,Recall1,4334,,0,-1,-1,0,0,,,1
5de8695380e0fc7e7ac9f271,2y44mpm192,Trevor-ex1,1,175,2020-07-17T10:01:51-07:00,3.4050631523132,6,versionA_stim.csv,JOL_H_VersionB.csv,"Highlight vs normal B","Highlight vs normal",TURN,FLIP,Study2,B,116,141,Test,User,-,,Recall,Recall1,3125,,0,-1,-1,0,0,,,1
5de8695380e0fc7e7ac9f271,2y44mpm192,Trevor-ex1,1,176,2020-07-17T10:01:55-07:00,3.8164229393005,6,versionA_stim.csv,JOL_H_VersionB.csv,"Highlight vs normal B","Highlight vs normal",RAZOR,SHAVE,Study2,S,136,132,Test,User,-,,Recall,Recall1,2553,SHAVE,100,1929,2240,1,1,,,1
5de8695380e0fc7e7ac9f271,2y44mpm192,Trevor-ex1,1,177,2020-07-17T10:02:03-07:00,8.7931230068207,6,versionA_stim.csv,JOL_H_VersionB.csv,"Highlight vs normal B","Highlight vs normal",BOTH,OUNCE,Study2,U,172,148,Test,User,-,,Recall,Recall1,8525,,0,-1,-1,0,0,,,0.871
5de8695380e0fc7e7ac9f271,2y44mpm192,Trevor-ex1,1,178,2020-07-17T10:02:09-07:00,6.0843439102173,6,versionA_stim.csv,JOL_H_VersionB.csv,"Highlight vs normal B","Highlight vs normal",CAT,PANTHER,Study2,B,126,142,Test,User,-,,Recall,Recall1,5807,LITTER,46.153846153846,4099,4503,0,0,,,0.917
5de8695380e0fc7e7ac9f271,2y44mpm192,Trevor-ex1,1,179,2020-07-17T10:02:21-07:00,11.160655975342,6,versionA_stim.csv,JOL_H_VersionB.csv,"Highlight vs normal B","Highlight vs normal",,,,,,0,Instruct,-,10,"You will now be presented with a new set of word pairs. Please study each pair. Remember that your memory will be tested! When finished, press Enter to move to the next pair.",Initial_Instruct,Instruct4,10895,,,-1,-1,,,,,0.961
5de8695380e0fc7e7ac9f271,2y44mpm192,Trevor-ex1,1,180,2020-07-17T10:02:36-07:00,15.583669185638,6,versionA_stim.csv,JOL_H_VersionB.csv,"Highlight vs normal B","Highlight vs normal",,,,,,0,Instruct,,10,"You will again be asked to rate your ability to remember these items using a 0 to 100 scale. Remember to use the full range of the scale!",,Instruct10,15327,,,-1,-1,,,,,0.541
5de8695380e0fc7e7ac9f271,2y44mpm192,Trevor-ex1,1,181,2020-07-17T10:02:38-07:00,2.2311539649963,6,versionA_stim.csv,JOL_H_VersionB.csv,"Highlight vs normal B","Highlight vs normal",,,,,,0,Instruct,User,-,"Press Enter when you are readty to begin",,Instruct11,1957,,,-1,-1,,,,,1
5de8695380e0fc7e7ac9f271,2y44mpm192,Trevor-ex1,1,182,2020-07-17T10:02:43-07:00,4.716502904892,6,versionA_stim.csv,JOL_H_VersionB.csv,"Highlight vs normal B","Highlight vs normal",SCARE,HIDE,BUFFER1,Buffer,4,2,JOL,User,-,"How likely are you to correctly recall the second item in the pair?|Type your response on a scale from 0-100 and then press Enter.",Study/JOL,BUFFER3,4442,,,4139,4330,,,,10,1
5de8695380e0fc7e7ac9f271,2y44mpm192,Trevor-ex1,1,183,2020-07-17T10:02:46-07:00,3.1915919780731,6,versionA_stim.csv,JOL_H_VersionB.csv,"Highlight vs normal B","Highlight vs normal",TREES,GREEN,BUFFER1,Buffer,1,6,JOL_H,User,-,"How likely are you to correctly recall the second item in the pair?|Type your response on a scale from 0-100 and then press Enter.",Study/JOL,BUFFER3,2925,,,2757,2836,,,,60,1
5de8695380e0fc7e7ac9f271,2y44mpm192,Trevor-ex1,1,184,2020-07-17T10:02:49-07:00,2.9524750709534,6,versionA_stim.csv,JOL_H_VersionB.csv,"Highlight vs normal B","Highlight vs normal",PEANUT,BUTTER,BUFFER1,Buffer,3,5,JOL_H,User,-,"How likely are you to correctly recall the second item in the pair?|Type your response on a scale from 0-100 and then press Enter.",Study/JOL,BUFFER3,2681,,,2122,2473,,,,100,1
5de8695380e0fc7e7ac9f271,2y44mpm192,Trevor-ex1,1,185,2020-07-17T10:02:54-07:00,4.8851239681244,6,versionA_stim.csv,JOL_H_VersionB.csv,"Highlight vs normal B","Highlight vs normal",BASEBALL,CATCHER,BUFFER1,Buffer,2,4,JOL_H,User,-,"How likely are you to correctly recall the second item in the pair?|Type your response on a scale from 0-100 and then press Enter.",Study/JOL,BUFFER3,3509,,,3171,3213,,,,50,1
5de8695380e0fc7e7ac9f271,2y44mpm192,Trevor-ex1,1,186,2020-07-17T10:02:56-07:00,1.9720931053162,6,versionA_stim.csv,JOL_H_VersionB.csv,"Highlight vs normal B","Highlight vs normal",SPACE,JAM,BUFFER1,Buffer,5,3,JOL,User,-,"How likely are you to correctly recall the second item in the pair?|Type your response on a scale from 0-100 and then press Enter.",Study/JOL,BUFFER3,1705,,,1560,1560,,,,0,1
5de8695380e0fc7e7ac9f271,2y44mpm192,Trevor-ex1,1,187,2020-07-17T10:03:08-07:00,11.715800046921,6,versionA_stim.csv,JOL_H_VersionB.csv,"Highlight vs normal B","Highlight vs normal",LOCATION,SITE,Study1,S,48,46,JOL,User,-,"How likely are you to correctly recall the second item in the pair?|Type your response on a scale from 0-100 and then press Enter.",Study/JOL,"Study Phase2",11437,,,11335,11335,,,,0,1
5de8695380e0fc7e7ac9f271,2y44mpm192,Trevor-ex1,1,188,2020-07-17T10:03:11-07:00,3.1501898765564,6,versionA_stim.csv,JOL_H_VersionB.csv,"Highlight vs normal B","Highlight vs normal",BALL,RACKET,Study1,B,38,69,JOL_H,User,-,"How likely are you to correctly recall the second item in the pair?|Type your response on a scale from 0-100 and then press Enter.",Study/JOL,"Study Phase2",2875,,,2652,2731,,,,15,1
5de8695380e0fc7e7ac9f271,2y44mpm192,Trevor-ex1,1,189,2020-07-17T10:03:15-07:00,3.7487869262695,6,versionA_stim.csv,JOL_H_VersionB.csv,"Highlight vs normal B","Highlight vs normal",MATH,DIVISION,Study1,B,33,27,JOL,User,-,"How likely are you to correctly recall the second item in the pair?|Type your response on a scale from 0-100 and then press Enter.",Study/JOL,"Study Phase2",3474,,,3043,3441,,,,85,1
5de8695380e0fc7e7ac9f271,2y44mpm192,Trevor-ex1,1,190,2020-07-17T10:03:19-07:00,3.7208700180054,6,versionA_stim.csv,JOL_H_VersionB.csv,"Highlight vs normal B","Highlight vs normal",BITTER,COLD,Study1,F,12,85,JOL_H,User,-,"How likely are you to correctly recall the second item in the pair?|Type your response on a scale from 0-100 and then press Enter.",Study/JOL,"Study Phase2",3461,,,3301,3364,,,,20,1
5de8695380e0fc7e7ac9f271,2y44mpm192,Trevor-ex1,1,191,2020-07-17T10:03:21-07:00,2.2469480037689,6,versionA_stim.csv,JOL_H_VersionB.csv,"Highlight vs normal B","Highlight vs normal",WORK,CHORE,Study1,B,39,74,JOL_H,User,-,"How likely are you to correctly recall the second item in the pair?|Type your response on a scale from 0-100 and then press Enter.",Study/JOL,"Study Phase2",1966,,,1670,1741,,,,30,1
5de8695380e0fc7e7ac9f271,2y44mpm192,Trevor-ex1,1,192,2020-07-17T10:03:25-07:00,4.3861320018768,6,versionA_stim.csv,JOL_H_VersionB.csv,"Highlight vs normal B","Highlight vs normal",SHOE,FOOT,Study1,S,60,65,JOL_H,User,-,"How likely are you to correctly recall the second item in the pair?|Type your response on a scale from 0-100 and then press Enter.",Study/JOL,"Study Phase2",4118,,,3406,3982,,,,70,1
5de8695380e0fc7e7ac9f271,2y44mpm192,Trevor-ex1,1,193,2020-07-17T10:03:29-07:00,3.3603880405426,6,versionA_stim.csv,JOL_H_VersionB.csv,"Highlight vs normal B","Highlight vs normal",LETTUCE,SALAD,Study1,S,59,64,JOL_H,User,-,"How likely are you to correctly recall the second item in the pair?|Type your response on a scale from 0-100 and then press Enter.",Study/JOL,"Study Phase2",3098,,,1842,3002,,,,65,1
5de8695380e0fc7e7ac9f271,2y44mpm192,Trevor-ex1,1,194,2020-07-17T10:03:33-07:00,4.0574181079865,6,versionA_stim.csv,JOL_H_VersionB.csv,"Highlight vs normal B","Highlight vs normal",REVOLUTION,WAR,Study1,F,20,71,JOL_H,User,-,"How likely are you to correctly recall the second item in the pair?|Type your response on a scale from 0-100 and then press Enter.",Study/JOL,"Study Phase2",3788,,,3292,3531,,,,75,1
5de8695380e0fc7e7ac9f271,2y44mpm192,Trevor-ex1,1,195,2020-07-17T10:03:36-07:00,3.3911328315735,6,versionA_stim.csv,JOL_H_VersionB.csv,"Highlight vs normal B","Highlight vs normal",BABY,CHILD,Study1,S,64,28,JOL,User,-,"How likely are you to correctly recall the second item in the pair?|Type your response on a scale from 0-100 and then press Enter.",Study/JOL,"Study Phase2",3074,,,2474,2878,,,,40,1
5de8695380e0fc7e7ac9f271,2y44mpm192,Trevor-ex1,1,196,2020-07-17T10:03:39-07:00,3.3706321716309,6,versionA_stim.csv,JOL_H_VersionB.csv,"Highlight vs normal B","Highlight vs normal",DELINQUENT,BAD,Study1,F,6,12,JOL,User,-,"How likely are you to correctly recall the second item in the pair?|Type your response on a scale from 0-100 and then press Enter.",Study/JOL,"Study Phase2",3103,,,2375,2766,,,,50,1
5de8695380e0fc7e7ac9f271,2y44mpm192,Trevor-ex1,1,197,2020-07-17T10:03:42-07:00,2.8499429225922,6,versionA_stim.csv,JOL_H_VersionB.csv,"Highlight vs normal B","Highlight vs normal",TRIAL,JURY,Study1,S,50,36,JOL,User,-,"How likely are you to correctly recall the second item in the pair?|Type your response on a scale from 0-100 and then press Enter.",Study/JOL,"Study Phase2",2550,,,2159,2422,,,,100,1
5de8695380e0fc7e7ac9f271,2y44mpm192,Trevor-ex1,1,198,2020-07-17T10:03:46-07:00,3.9304420948029,6,versionA_stim.csv,JOL_H_VersionB.csv,"Highlight vs normal B","Highlight vs normal",WAGE,MONEY,Study1,F,8,83,JOL_H,User,-,"How likely are you to correctly recall the second item in the pair?|Type your response on a scale from 0-100 and then press Enter.",Study/JOL,"Study Phase2",3661,,,3462,3557,,,,60,1
5de8695380e0fc7e7ac9f271,2y44mpm192,Trevor-ex1,1,199,2020-07-17T10:03:50-07:00,3.9343028068542,6,versionA_stim.csv,JOL_H_VersionB.csv,"Highlight vs normal B","Highlight vs normal",HEIGHT,GROWTH,Study1,B,30,8,JOL,User,-,"How likely are you to correctly recall the second item in the pair?|Type your response on a scale from 0-100 and then press Enter.",Study/JOL,"Study Phase2",3551,,,3363,3382,,,,10,1
5de8695380e0fc7e7ac9f271,2y44mpm192,Trevor-ex1,1,200,2020-07-17T10:03:52-07:00,2.4137511253357,6,versionA_stim.csv,JOL_H_VersionB.csv,"Highlight vs normal B","Highlight vs normal",SENTENCE,WORD,Study1,B,31,57,JOL_H,User,-,"How likely are you to correctly recall the second item in the pair?|Type your response on a scale from 0-100 and then press Enter.",Study/JOL,"Study Phase2",2131,,,2011,2011,,,,5,1
5de8695380e0fc7e7ac9f271,2y44mpm192,Trevor-ex1,1,201,2020-07-17T10:03:57-07:00,4.494843006134,6,versionA_stim.csv,JOL_H_VersionB.csv,"Highlight vs normal B","Highlight vs normal",EDITOR,NEWS,Study1,F,10,37,JOL,User,-,"How likely are you to correctly recall the second item in the pair?|Type your response on a scale from 0-100 and then press Enter.",Study/JOL,"Study Phase2",4219,,,3204,3603,,,,45,1
5de8695380e0fc7e7ac9f271,2y44mpm192,Trevor-ex1,1,202,2020-07-17T10:04:00-07:00,2.9355020523071,6,versionA_stim.csv,JOL_H_VersionB.csv,"Highlight vs normal B","Highlight vs normal",TAKE,SEIZE,Study1,B,29,49,JOL_H,User,-,"How likely are you to correctly recall the second item in the pair?|Type your response on a scale from 0-100 and then press Enter.",Study/JOL,"Study Phase2",2677,,,2164,2546,,,,35,1
5de8695380e0fc7e7ac9f271,2y44mpm192,Trevor-ex1,1,203,2020-07-17T10:04:08-07:00,7.6010088920593,6,versionA_stim.csv,JOL_H_VersionB.csv,"Highlight vs normal B","Highlight vs normal",DIGESTION,STOMACH,Study1,F,7,43,JOL,User,-,"How likely are you to correctly recall the second item in the pair?|Type your response on a scale from 0-100 and then press Enter.",Study/JOL,"Study Phase2",7330,,,6826,6993,,,,60,1
5de8695380e0fc7e7ac9f271,2y44mpm192,Trevor-ex1,1,204,2020-07-17T10:04:22-07:00,14.425002098083,6,versionA_stim.csv,JOL_H_VersionB.csv,"Highlight vs normal B","Highlight vs normal",SWAN,BIRD,Study1,F,14,61,JOL_H,User,-,"How likely are you to correctly recall the second item in the pair?|Type your response on a scale from 0-100 and then press Enter.",Study/JOL,"Study Phase2",14154,,,12403,13489,,,,25,1
5de8695380e0fc7e7ac9f271,2y44mpm192,Trevor-ex1,1,205,2020-07-17T10:04:25-07:00,2.6517989635468,6,versionA_stim.csv,JOL_H_VersionB.csv,"Highlight vs normal B","Highlight vs normal",PARK,HUNGRY,Study1,U,68,50,JOL_H,User,-,"How likely are you to correctly recall the second item in the pair?|Type your response on a scale from 0-100 and then press Enter.",Study/JOL,"Study Phase2",2370,,,1586,1586,,,,0,1
5de8695380e0fc7e7ac9f271,2y44mpm192,Trevor-ex1,1,206,2020-07-17T10:04:28-07:00,3.0695240497589,6,versionA_stim.csv,JOL_H_VersionB.csv,"Highlight vs normal B","Highlight vs normal",HONEY,BEE,Study1,S,63,59,JOL_H,User,-,"How likely are you to correctly recall the second item in the pair?|Type your response on a scale from 0-100 and then press Enter.",Study/JOL,"Study Phase2",2752,,,2424,2624,,,,85,1
5de8695380e0fc7e7ac9f271,2y44mpm192,Trevor-ex1,1,207,2020-07-17T10:04:32-07:00,4.1314859390259,6,versionA_stim.csv,JOL_H_VersionB.csv,"Highlight vs normal B","Highlight vs normal",STRONG,ACCIDENT,Study1,U,80,7,JOL,User,-,"How likely are you to correctly recall the second item in the pair?|Type your response on a scale from 0-100 and then press Enter.",Study/JOL,"Study Phase2",3851,,,3599,3599,,,,0,1
5de8695380e0fc7e7ac9f271,2y44mpm192,Trevor-ex1,1,208,2020-07-17T10:04:36-07:00,4.092423915863,6,versionA_stim.csv,JOL_H_VersionB.csv,"Highlight vs normal B","Highlight vs normal",DISCUSSION,TALK,Study1,F,21,52,JOL_H,User,-,"How likely are you to correctly recall the second item in the pair?|Type your response on a scale from 0-100 and then press Enter.",Study/JOL,"Study Phase2",3815,,,3723,3723,,,,5,1
5de8695380e0fc7e7ac9f271,2y44mpm192,Trevor-ex1,1,209,2020-07-17T10:04:39-07:00,2.655179977417,6,versionA_stim.csv,JOL_H_VersionB.csv,"Highlight vs normal B","Highlight vs normal",WINE,CHEESE,Study1,S,57,33,JOL,User,-,"How likely are you to correctly recall the second item in the pair?|Type your response on a scale from 0-100 and then press Enter.",Study/JOL,"Study Phase2",2370,,,1993,2201,,,,65,1
5de8695380e0fc7e7ac9f271,2y44mpm192,Trevor-ex1,1,210,2020-07-17T10:04:42-07:00,3.9732739925385,6,versionA_stim.csv,JOL_H_VersionB.csv,"Highlight vs normal B","Highlight vs normal",ARTERY,BRONZE,Study1,U,74,51,JOL_H,User,-,"How likely are you to correctly recall the second item in the pair?|Type your response on a scale from 0-100 and then press Enter.",Study/JOL,"Study Phase2",3675,,,3315,3315,,,,0,1
5de8695380e0fc7e7ac9f271,2y44mpm192,Trevor-ex1,1,211,2020-07-17T10:04:46-07:00,3.1040799617767,6,versionA_stim.csv,JOL_H_VersionB.csv,"Highlight vs normal B","Highlight vs normal",DEBATE,SIGHT,Study1,U,73,13,JOL,User,-,"How likely are you to correctly recall the second item in the pair?|Type your response on a scale from 0-100 and then press Enter.",Study/JOL,"Study Phase2",2781,,,2518,2518,,,,0,1
5de8695380e0fc7e7ac9f271,2y44mpm192,Trevor-ex1,1,212,2020-07-17T10:04:55-07:00,9.6526260375977,6,versionA_stim.csv,JOL_H_VersionB.csv,"Highlight vs normal B","Highlight vs normal",HOT,CHILI,Study1,B,37,70,JOL_H,User,-,"How likely are you to correctly recall the second item in the pair?|Type your response on a scale from 0-100 and then press Enter.",Study/JOL,"Study Phase2",9389,,,4341,9156,,,,65,1
5de8695380e0fc7e7ac9f271,2y44mpm192,Trevor-ex1,1,213,2020-07-17T10:04:58-07:00,2.7507390975952,6,versionA_stim.csv,JOL_H_VersionB.csv,"Highlight vs normal B","Highlight vs normal",HUNGER,FAMINE,Study1,B,40,77,JOL_H,User,-,"How likely are you to correctly recall the second item in the pair?|Type your response on a scale from 0-100 and then press Enter.",Study/JOL,"Study Phase2",2396,,,2177,2243,,,,70,1
5de8695380e0fc7e7ac9f271,2y44mpm192,Trevor-ex1,1,214,2020-07-17T10:05:02-07:00,3.5032699108124,6,versionA_stim.csv,JOL_H_VersionB.csv,"Highlight vs normal B","Highlight vs normal",SMELL,STENCH,Study1,B,42,42,JOL,User,-,"How likely are you to correctly recall the second item in the pair?|Type your response on a scale from 0-100 and then press Enter.",Study/JOL,"Study Phase2",3232,,,2064,2215,,,,70,1
5de8695380e0fc7e7ac9f271,2y44mpm192,Trevor-ex1,1,215,2020-07-17T10:05:06-07:00,4.0337040424347,6,versionA_stim.csv,JOL_H_VersionB.csv,"Highlight vs normal B","Highlight vs normal",CHISEL,HAMMER,Study1,F,9,18,JOL,User,-,"How likely are you to correctly recall the second item in the pair?|Type your response on a scale from 0-100 and then press Enter.",Study/JOL,"Study Phase2",3758,,,1995,2142,,,,32,1
5de8695380e0fc7e7ac9f271,2y44mpm192,Trevor-ex1,1,216,2020-07-17T10:05:09-07:00,3.238331079483,6,versionA_stim.csv,JOL_H_VersionB.csv,"Highlight vs normal B","Highlight vs normal",HERD,COW,Study1,F,22,48,JOL_H,User,-,"How likely are you to correctly recall the second item in the pair?|Type your response on a scale from 0-100 and then press Enter.",Study/JOL,"Study Phase2",2771,,,2449,2505,,,,12,1
5de8695380e0fc7e7ac9f271,2y44mpm192,Trevor-ex1,1,217,2020-07-17T10:05:10-07:00,1.6976828575134,6,versionA_stim.csv,JOL_H_VersionB.csv,"Highlight vs normal B","Highlight vs normal",LIFT,WOMAN,Study1,U,69,62,JOL_H,User,-,"How likely are you to correctly recall the second item in the pair?|Type your response on a scale from 0-100 and then press Enter.",Study/JOL,"Study Phase2",1408,,,1304,1305,,,,0,1
5de8695380e0fc7e7ac9f271,2y44mpm192,Trevor-ex1,1,218,2020-07-17T10:05:17-07:00,6.5560450553894,6,versionA_stim.csv,JOL_H_VersionB.csv,"Highlight vs normal B","Highlight vs normal",ROOT,PLANT,Study1,F,13,86,JOL_H,User,-,"How likely are you to correctly recall the second item in the pair?|Type your response on a scale from 0-100 and then press Enter.",Study/JOL,"Study Phase2",6287,,,3582,4031,,,,40,1
5de8695380e0fc7e7ac9f271,2y44mpm192,Trevor-ex1,1,219,2020-07-17T10:05:23-07:00,5.8929059505463,6,versionA_stim.csv,JOL_H_VersionB.csv,"Highlight vs normal B","Highlight vs normal",FIRE,BLAZE,Study1,B,45,19,JOL,User,-,"How likely are you to correctly recall the second item in the pair?|Type your response on a scale from 0-100 and then press Enter.",Study/JOL,"Study Phase2",5594,,,5123,5266,,,,50,1
5de8695380e0fc7e7ac9f271,2y44mpm192,Trevor-ex1,1,220,2020-07-17T10:05:27-07:00,4.0894160270691,6,versionA_stim.csv,JOL_H_VersionB.csv,"Highlight vs normal B","Highlight vs normal",DRINK,SIP,Study1,B,27,60,JOL_H,User,-,"How likely are you to correctly recall the second item in the pair?|Type your response on a scale from 0-100 and then press Enter.",Study/JOL,"Study Phase2",3809,,,3201,3361,,,,35,1
5de8695380e0fc7e7ac9f271,2y44mpm192,Trevor-ex1,1,221,2020-07-17T10:05:32-07:00,5.0402700901031,6,versionA_stim.csv,JOL_H_VersionB.csv,"Highlight vs normal B","Highlight vs normal",WAY,OUT,Study1,F,16,20,JOL,User,-,"How likely are you to correctly recall the second item in the pair?|Type your response on a scale from 0-100 and then press Enter.",Study/JOL,"Study Phase2",4764,,,4480,4587,,,,25,1
5de8695380e0fc7e7ac9f271,2y44mpm192,Trevor-ex1,1,222,2020-07-17T10:05:38-07:00,5.8782958984375,6,versionA_stim.csv,JOL_H_VersionB.csv,"Highlight vs normal B","Highlight vs normal",HORNET,STING,Study1,F,11,44,JOL,User,-,"How likely are you to correctly recall the second item in the pair?|Type your response on a scale from 0-100 and then press Enter.",Study/JOL,"Study Phase2",5597,,,5278,5453,,,,35,1
5de8695380e0fc7e7ac9f271,2y44mpm192,Trevor-ex1,1,223,2020-07-17T10:05:40-07:00,2.4664571285248,6,versionA_stim.csv,JOL_H_VersionB.csv,"Highlight vs normal B","Highlight vs normal",SUGAR,RIDDLE,Study1,U,81,45,JOL,User,-,"How likely are you to correctly recall the second item in the pair?|Type your response on a scale from 0-100 and then press Enter.",Study/JOL,"Study Phase2",2186,,,1906,1906,,,,0,1
5de8695380e0fc7e7ac9f271,2y44mpm192,Trevor-ex1,1,224,2020-07-17T10:05:43-07:00,2.5246598720551,6,versionA_stim.csv,JOL_H_VersionB.csv,"Highlight vs normal B","Highlight vs normal",CREDIT,CARD,Study1,F,23,23,JOL,User,-,"How likely are you to correctly recall the second item in the pair?|Type your response on a scale from 0-100 and then press Enter.",Study/JOL,"Study Phase2",2224,,,1504,1824,,,,100,1
5de8695380e0fc7e7ac9f271,2y44mpm192,Trevor-ex1,1,225,2020-07-17T10:05:47-07:00,3.8525221347809,6,versionA_stim.csv,JOL_H_VersionB.csv,"Highlight vs normal B","Highlight vs normal",PUSHER,CLUTTER,Study1,U,66,16,JOL,User,-,"How likely are you to correctly recall the second item in the pair?|Type your response on a scale from 0-100 and then press Enter.",Study/JOL,"Study Phase2",3579,,,3205,3205,,,,5,1
5de8695380e0fc7e7ac9f271,2y44mpm192,Trevor-ex1,1,226,2020-07-17T10:06:11-07:00,24.212056875229,6,versionA_stim.csv,JOL_H_VersionB.csv,"Highlight vs normal B","Highlight vs normal",NUMBER,AMOUNT,Study1,S,47,55,JOL_H,User,-,"How likely are you to correctly recall the second item in the pair?|Type your response on a scale from 0-100 and then press Enter.",Study/JOL,"Study Phase2",3934,,,3667,3765,,,,15,1
5de8695380e0fc7e7ac9f271,2y44mpm192,Trevor-ex1,1,227,2020-07-17T10:06:28-07:00,16.901075124741,6,versionA_stim.csv,JOL_H_VersionB.csv,"Highlight vs normal B","Highlight vs normal",DIETARY,SACKING,Study1,U,67,26,JOL,User,-,"How likely are you to correctly recall the second item in the pair?|Type your response on a scale from 0-100 and then press Enter.",Study/JOL,"Study Phase2",16429,,,15578,15578,,,,0,0.516
5de8695380e0fc7e7ac9f271,2y44mpm192,Trevor-ex1,1,228,2020-07-17T10:06:32-07:00,4.0566918849945,6,versionA_stim.csv,JOL_H_VersionB.csv,"Highlight vs normal B","Highlight vs normal",SOON,BELT,Study1,U,70,35,JOL,User,-,"How likely are you to correctly recall the second item in the pair?|Type your response on a scale from 0-100 and then press Enter.",Study/JOL,"Study Phase2",3776,,,2728,2728,,,,0,1
5de8695380e0fc7e7ac9f271,2y44mpm192,Trevor-ex1,1,229,2020-07-17T10:06:46-07:00,13.825217008591,6,versionA_stim.csv,JOL_H_VersionB.csv,"Highlight vs normal B","Highlight vs normal",CIRCLE,ROUND,Study1,S,65,9,JOL,User,-,"How likely are you to correctly recall the second item in the pair?|Type your response on a scale from 0-100 and then press Enter.",Study/JOL,"Study Phase2",13555,,,13213,13386,,,,85,1
5de8695380e0fc7e7ac9f271,2y44mpm192,Trevor-ex1,1,230,2020-07-17T10:06:48-07:00,2.4548089504242,6,versionA_stim.csv,JOL_H_VersionB.csv,"Highlight vs normal B","Highlight vs normal",PLANE,PILOT,Study1,B,44,73,JOL_H,User,-,"How likely are you to correctly recall the second item in the pair?|Type your response on a scale from 0-100 and then press Enter.",Study/JOL,"Study Phase2",2182,,,1729,1886,,,,75,1
5de8695380e0fc7e7ac9f271,2y44mpm192,Trevor-ex1,1,231,2020-07-17T10:06:52-07:00,3.8247520923615,6,versionA_stim.csv,JOL_H_VersionB.csv,"Highlight vs normal B","Highlight vs normal",DUE,ASSIGNMENT,Study1,S,46,75,JOL_H,User,-,"How likely are you to correctly recall the second item in the pair?|Type your response on a scale from 0-100 and then press Enter.",Study/JOL,"Study Phase2",3553,,,2512,2929,,,,95,1
5de8695380e0fc7e7ac9f271,2y44mpm192,Trevor-ex1,1,232,2020-07-17T10:06:55-07:00,3.3533120155334,6,versionA_stim.csv,JOL_H_VersionB.csv,"Highlight vs normal B","Highlight vs normal",ART,LION,Study1,U,79,25,JOL,User,-,"How likely are you to correctly recall the second item in the pair?|Type your response on a scale from 0-100 and then press Enter.",Study/JOL,"Study Phase2",3070,,,2742,2742,,,,0,1
5de8695380e0fc7e7ac9f271,2y44mpm192,Trevor-ex1,1,233,2020-07-17T10:07:01-07:00,5.3709449768066,6,versionA_stim.csv,JOL_H_VersionB.csv,"Highlight vs normal B","Highlight vs normal",HIDE,SICK,Study1,U,84,11,JOL,User,-,"How likely are you to correctly recall the second item in the pair?|Type your response on a scale from 0-100 and then press Enter.",Study/JOL,"Study Phase2",5099,,,4760,4760,,,,0,1
5de8695380e0fc7e7ac9f271,2y44mpm192,Trevor-ex1,1,234,2020-07-17T10:07:04-07:00,3.0357460975647,6,versionA_stim.csv,JOL_H_VersionB.csv,"Highlight vs normal B","Highlight vs normal",GREAT,FANTASTIC,Study1,B,35,63,JOL_H,User,-,"How likely are you to correctly recall the second item in the pair?|Type your response on a scale from 0-100 and then press Enter.",Study/JOL,"Study Phase2",2730,,,2194,2441,,,,45,1
5de8695380e0fc7e7ac9f271,2y44mpm192,Trevor-ex1,1,235,2020-07-17T10:07:07-07:00,3.6649827957153,6,versionA_stim.csv,JOL_H_VersionB.csv,"Highlight vs normal B","Highlight vs normal",BLOW,WIND,Study1,S,55,78,JOL_H,User,-,"How likely are you to correctly recall the second item in the pair?|Type your response on a scale from 0-100 and then press Enter.",Study/JOL,"Study Phase2",3392,,,2256,3007,,,,68,1
5de8695380e0fc7e7ac9f271,2y44mpm192,Trevor-ex1,1,236,2020-07-17T10:07:12-07:00,4.0238311290741,6,versionA_stim.csv,JOL_H_VersionB.csv,"Highlight vs normal B","Highlight vs normal",KIDNEY,LIVER,Study1,S,53,72,JOL_H,User,-,"How likely are you to correctly recall the second item in the pair?|Type your response on a scale from 0-100 and then press Enter.",Study/JOL,"Study Phase2",2748,,,2205,2443,,,,25,1
5de8695380e0fc7e7ac9f271,2y44mpm192,Trevor-ex1,1,237,2020-07-17T10:07:15-07:00,3.2747368812561,6,versionA_stim.csv,JOL_H_VersionB.csv,"Highlight vs normal B","Highlight vs normal",CLOTHES,ATTIRE,Study1,B,43,47,JOL_H,User,-,"How likely are you to correctly recall the second item in the pair?|Type your response on a scale from 0-100 and then press Enter.",Study/JOL,"Study Phase2",2906,,,2262,2558,,,,40,1
5de8695380e0fc7e7ac9f271,2y44mpm192,Trevor-ex1,1,238,2020-07-17T10:07:17-07:00,2.2920091152191,6,versionA_stim.csv,JOL_H_VersionB.csv,"Highlight vs normal B","Highlight vs normal",ARCHITECTURE,DESIGN,Study1,S,51,84,JOL_H,User,-,"How likely are you to correctly recall the second item in the pair?|Type your response on a scale from 0-100 and then press Enter.",Study/JOL,"Study Phase2",2019,,,1740,1811,,,,45,1
5de8695380e0fc7e7ac9f271,2y44mpm192,Trevor-ex1,1,239,2020-07-17T10:07:20-07:00,2.7476630210876,6,versionA_stim.csv,JOL_H_VersionB.csv,"Highlight vs normal B","Highlight vs normal",CASH,WOULD,Study1,U,83,14,JOL,User,-,"How likely are you to correctly recall the second item in the pair?|Type your response on a scale from 0-100 and then press Enter.",Study/JOL,"Study Phase2",2473,,,2248,2248,,,,0,1
5de8695380e0fc7e7ac9f271,2y44mpm192,Trevor-ex1,1,240,2020-07-17T10:07:24-07:00,4.1832849979401,6,versionA_stim.csv,JOL_H_VersionB.csv,"Highlight vs normal B","Highlight vs normal",ORCHID,FLOWER,Study1,F,24,56,JOL_H,User,-,"How likely are you to correctly recall the second item in the pair?|Type your response on a scale from 0-100 and then press Enter.",Study/JOL,"Study Phase2",3909,,,3501,3708,,,,60,1
5de8695380e0fc7e7ac9f271,2y44mpm192,Trevor-ex1,1,241,2020-07-17T10:07:27-07:00,3.1502149105072,6,versionA_stim.csv,JOL_H_VersionB.csv,"Highlight vs normal B","Highlight vs normal",TUNA,FISH,Study1,F,25,76,JOL_H,User,-,"How likely are you to correctly recall the second item in the pair?|Type your response on a scale from 0-100 and then press Enter.",Study/JOL,"Study Phase2",2881,,,2633,2728,,,,65,1
5de8695380e0fc7e7ac9f271,2y44mpm192,Trevor-ex1,1,242,2020-07-17T10:07:29-07:00,2.3208169937134,6,versionA_stim.csv,JOL_H_VersionB.csv,"Highlight vs normal B","Highlight vs normal",KING,VASE,Study1,U,85,38,JOL,User,-,"How likely are you to correctly recall the second item in the pair?|Type your response on a scale from 0-100 and then press Enter.",Study/JOL,"Study Phase2",2052,,,1797,1843,,,,12,1
5de8695380e0fc7e7ac9f271,2y44mpm192,Trevor-ex1,1,243,2020-07-17T10:07:35-07:00,5.298357963562,6,versionA_stim.csv,JOL_H_VersionB.csv,"Highlight vs normal B","Highlight vs normal",KEY,LATCH,Study1,B,36,34,JOL,User,-,"How likely are you to correctly recall the second item in the pair?|Type your response on a scale from 0-100 and then press Enter.",Study/JOL,"Study Phase2",4017,,,3306,3641,,,,35,1
5de8695380e0fc7e7ac9f271,2y44mpm192,Trevor-ex1,1,244,2020-07-17T10:07:41-07:00,6.0111711025238,6,versionA_stim.csv,JOL_H_VersionB.csv,"Highlight vs normal B","Highlight vs normal",GRILL,BAR,Study1,S,52,29,JOL,User,-,"How likely are you to correctly recall the second item in the pair?|Type your response on a scale from 0-100 and then press Enter.",Study/JOL,"Study Phase2",5735,,,5483,5571,,,,40,1
5de8695380e0fc7e7ac9f271,2y44mpm192,Trevor-ex1,1,245,2020-07-17T10:07:43-07:00,2.4072120189667,6,versionA_stim.csv,JOL_H_VersionB.csv,"Highlight vs normal B","Highlight vs normal",HYGIENE,CLEAN,Study1,F,17,24,JOL,User,-,"How likely are you to correctly recall the second item in the pair?|Type your response on a scale from 0-100 and then press Enter.",Study/JOL,"Study Phase2",2129,,,1953,2064,,,,60,1
5de8695380e0fc7e7ac9f271,2y44mpm192,Trevor-ex1,1,246,2020-07-17T10:07:48-07:00,5.1100089550018,6,versionA_stim.csv,JOL_H_VersionB.csv,"Highlight vs normal B","Highlight vs normal",BUG,WASP,Study1,B,32,80,JOL_H,User,-,"How likely are you to correctly recall the second item in the pair?|Type your response on a scale from 0-100 and then press Enter.",Study/JOL,"Study Phase2",4838,,,4313,4453,,,,40,1
5de8695380e0fc7e7ac9f271,2y44mpm192,Trevor-ex1,1,247,2020-07-17T10:07:53-07:00,4.5112500190735,6,versionA_stim.csv,JOL_H_VersionB.csv,"Highlight vs normal B","Highlight vs normal",PAST,FUTURE,Study1,S,61,21,JOL,User,-,"How likely are you to correctly recall the second item in the pair?|Type your response on a scale from 0-100 and then press Enter.",Study/JOL,"Study Phase2",4226,,,3850,4191,,,,15,1
5de8695380e0fc7e7ac9f271,2y44mpm192,Trevor-ex1,1,248,2020-07-17T10:07:57-07:00,4.375834941864,6,versionA_stim.csv,JOL_H_VersionB.csv,"Highlight vs normal B","Highlight vs normal",MEANING,DEFINITION,Study1,S,62,10,JOL,User,-,"How likely are you to correctly recall the second item in the pair?|Type your response on a scale from 0-100 and then press Enter.",Study/JOL,"Study Phase2",4104,,,3280,3359,,,,35,1
5de8695380e0fc7e7ac9f271,2y44mpm192,Trevor-ex1,1,249,2020-07-17T10:07:59-07:00,1.7040901184082,6,versionA_stim.csv,JOL_H_VersionB.csv,"Highlight vs normal B","Highlight vs normal",HAPPY,CAR,Study1,U,77,68,JOL_H,User,-,"How likely are you to correctly recall the second item in the pair?|Type your response on a scale from 0-100 and then press Enter.",Study/JOL,"Study Phase2",1435,,,1317,1317,,,,0,1
5de8695380e0fc7e7ac9f271,2y44mpm192,Trevor-ex1,1,250,2020-07-17T10:08:04-07:00,5.4953649044037,6,versionA_stim.csv,JOL_H_VersionB.csv,"Highlight vs normal B","Highlight vs normal",DEATH,BUSINESS,Study1,U,72,40,JOL,User,-,"How likely are you to correctly recall the second item in the pair?|Type your response on a scale from 0-100 and then press Enter.",Study/JOL,"Study Phase2",5232,,,2176,3704,,,,5,1
5de8695380e0fc7e7ac9f271,2y44mpm192,Trevor-ex1,1,251,2020-07-17T10:08:07-07:00,2.6165361404419,6,versionA_stim.csv,JOL_H_VersionB.csv,"Highlight vs normal B","Highlight vs normal",DISCOVER,FLOOR,Study1,U,71,67,JOL_H,User,-,"How likely are you to correctly recall the second item in the pair?|Type your response on a scale from 0-100 and then press Enter.",Study/JOL,"Study Phase2",2337,,,1273,1273,,,,0,1
5de8695380e0fc7e7ac9f271,2y44mpm192,Trevor-ex1,1,252,2020-07-17T10:08:10-07:00,2.7780578136444,6,versionA_stim.csv,JOL_H_VersionB.csv,"Highlight vs normal B","Highlight vs normal",VALLEY,ADD,Study1,U,82,66,JOL_H,User,-,"How likely are you to correctly recall the second item in the pair?|Type your response on a scale from 0-100 and then press Enter.",Study/JOL,"Study Phase2",2490,,,2284,2284,,,,3,1
5de8695380e0fc7e7ac9f271,2y44mpm192,Trevor-ex1,1,253,2020-07-17T10:08:13-07:00,3.0020921230316,6,versionA_stim.csv,JOL_H_VersionB.csv,"Highlight vs normal B","Highlight vs normal",DUMP,WASTE,Study1,S,49,81,JOL_H,User,-,"How likely are you to correctly recall the second item in the pair?|Type your response on a scale from 0-100 and then press Enter.",Study/JOL,"Study Phase2",2726,,,1980,2172,,,,70,1
5de8695380e0fc7e7ac9f271,2y44mpm192,Trevor-ex1,1,254,2020-07-17T10:08:16-07:00,3.4603319168091,6,versionA_stim.csv,JOL_H_VersionB.csv,"Highlight vs normal B","Highlight vs normal",LAW,ATTORNEY,Study1,B,34,39,JOL,User,-,"How likely are you to correctly recall the second item in the pair?|Type your response on a scale from 0-100 and then press Enter.",Study/JOL,"Study Phase2",3189,,,1725,2468,,,,70,1
5de8695380e0fc7e7ac9f271,2y44mpm192,Trevor-ex1,1,255,2020-07-17T10:08:19-07:00,3.1125681400299,6,versionA_stim.csv,JOL_H_VersionB.csv,"Highlight vs normal B","Highlight vs normal",FIX,HAND,Study1,U,75,22,JOL,User,-,"How likely are you to correctly recall the second item in the pair?|Type your response on a scale from 0-100 and then press Enter.",Study/JOL,"Study Phase2",2843,,,2675,2730,,,,20,1
5de8695380e0fc7e7ac9f271,2y44mpm192,Trevor-ex1,1,256,2020-07-17T10:08:23-07:00,3.2383489608765,6,versionA_stim.csv,JOL_H_VersionB.csv,"Highlight vs normal B","Highlight vs normal",FULL,ENOUGH,Study1,B,26,58,JOL_H,User,-,"How likely are you to correctly recall the second item in the pair?|Type your response on a scale from 0-100 and then press Enter.",Study/JOL,"Study Phase2",2962,,,2490,2754,,,,10,1
5de8695380e0fc7e7ac9f271,2y44mpm192,Trevor-ex1,1,257,2020-07-17T10:08:26-07:00,3.342533826828,6,versionA_stim.csv,JOL_H_VersionB.csv,"Highlight vs normal B","Highlight vs normal",MACHINE,POSITION,Study1,U,76,53,JOL_H,User,-,"How likely are you to correctly recall the second item in the pair?|Type your response on a scale from 0-100 and then press Enter.",Study/JOL,"Study Phase2",3066,,,2912,2912,,,,0,1
5de8695380e0fc7e7ac9f271,2y44mpm192,Trevor-ex1,1,258,2020-07-17T10:08:31-07:00,4.8834700584412,6,versionA_stim.csv,JOL_H_VersionB.csv,"Highlight vs normal B","Highlight vs normal",BEGIN,END,Study1,S,54,41,JOL,User,-,"How likely are you to correctly recall the second item in the pair?|Type your response on a scale from 0-100 and then press Enter.",Study/JOL,"Study Phase2",4605,,,2181,4561,,,,65,1
5de8695380e0fc7e7ac9f271,2y44mpm192,Trevor-ex1,1,259,2020-07-17T10:08:34-07:00,2.9594180583954,6,versionA_stim.csv,JOL_H_VersionB.csv,"Highlight vs normal B","Highlight vs normal",BRIDGE,WATER,Study1,F,18,79,JOL_H,User,-,"How likely are you to correctly recall the second item in the pair?|Type your response on a scale from 0-100 and then press Enter.",Study/JOL,"Study Phase2",2691,,,2128,2264,,,,60,1
5de8695380e0fc7e7ac9f271,2y44mpm192,Trevor-ex1,1,260,2020-07-17T10:08:42-07:00,8.106057882309,6,versionA_stim.csv,JOL_H_VersionB.csv,"Highlight vs normal B","Highlight vs normal",GEOLOGY,ROCK,Study1,F,19,17,JOL,User,-,"How likely are you to correctly recall the second item in the pair?|Type your response on a scale from 0-100 and then press Enter.",Study/JOL,"Study Phase2",7837,,,7142,7228,,,,50,1
5de8695380e0fc7e7ac9f271,2y44mpm192,Trevor-ex1,1,261,2020-07-17T10:08:45-07:00,3.2346820831299,6,versionA_stim.csv,JOL_H_VersionB.csv,"Highlight vs normal B","Highlight vs normal",POP,SODA,Study1,S,56,32,JOL,User,-,"How likely are you to correctly recall the second item in the pair?|Type your response on a scale from 0-100 and then press Enter.",Study/JOL,"Study Phase2",2958,,,2619,2702,,,,95,1
5de8695380e0fc7e7ac9f271,2y44mpm192,Trevor-ex1,1,262,2020-07-17T10:08:51-07:00,5.6521151065826,6,versionA_stim.csv,JOL_H_VersionB.csv,"Highlight vs normal B","Highlight vs normal",BATHROOM,TOILET,Study1,S,58,54,JOL_H,User,-,"How likely are you to correctly recall the second item in the pair?|Type your response on a scale from 0-100 and then press Enter.",Study/JOL,"Study Phase2",5384,,,4947,5163,,,,74,1
5de8695380e0fc7e7ac9f271,2y44mpm192,Trevor-ex1,1,263,2020-07-17T10:08:53-07:00,2.2838459014893,6,versionA_stim.csv,JOL_H_VersionB.csv,"Highlight vs normal B","Highlight vs normal",ALLOW,TUCK,Study1,U,78,82,JOL_H,User,-,"How likely are you to correctly recall the second item in the pair?|Type your response on a scale from 0-100 and then press Enter.",Study/JOL,"Study Phase2",1996,,,1820,1820,,,,5,1
5de8695380e0fc7e7ac9f271,2y44mpm192,Trevor-ex1,1,264,2020-07-17T10:08:57-07:00,3.7197289466858,6,versionA_stim.csv,JOL_H_VersionB.csv,"Highlight vs normal B","Highlight vs normal",SLEEP,DROWSY,Study1,B,41,31,JOL,User,-,"How likely are you to correctly recall the second item in the pair?|Type your response on a scale from 0-100 and then press Enter.",Study/JOL,"Study Phase2",3447,,,2896,3112,,,,10,1
5de8695380e0fc7e7ac9f271,2y44mpm192,Trevor-ex1,1,265,2020-07-17T10:09:00-07:00,3.6706621646881,6,versionA_stim.csv,JOL_H_VersionB.csv,"Highlight vs normal B","Highlight vs normal",PAW,DOG,Study1,F,15,15,JOL,User,-,"How likely are you to correctly recall the second item in the pair?|Type your response on a scale from 0-100 and then press Enter.",Study/JOL,"Study Phase2",3368,,,3184,3312,,,,50,1
5de8695380e0fc7e7ac9f271,2y44mpm192,Trevor-ex1,1,266,2020-07-17T10:09:05-07:00,4.8830049037933,6,versionA_stim.csv,JOL_H_VersionB.csv,"Highlight vs normal B","Highlight vs normal",DARK,CAVE,Study1,B,28,30,JOL,User,-,"How likely are you to correctly recall the second item in the pair?|Type your response on a scale from 0-100 and then press Enter.",Study/JOL,"Study Phase2",4602,,,3210,4539,,,,20,1
5de8695380e0fc7e7ac9f271,2y44mpm192,Trevor-ex1,1,267,2020-07-17T10:09:09-07:00,3.9809861183167,6,versionA_stim.csv,JOL_H_VersionB.csv,"Highlight vs normal B","Highlight vs normal",SHERRIF,POLICE,BUFFER2,Buffer,87,87,JOL_H,User,-,"How likely are you to correctly recall the second item in the pair?|Type your response on a scale from 0-100 and then press Enter.",Study/JOL,BUFFER4,3689,,,2169,3626,,,,76,1
5de8695380e0fc7e7ac9f271,2y44mpm192,Trevor-ex1,1,268,2020-07-17T10:09:14-07:00,4.8068709373474,6,versionA_stim.csv,JOL_H_VersionB.csv,"Highlight vs normal B","Highlight vs normal",THING,STUFF,BUFFER2,Buffer,90,90,JOL,User,-,"How likely are you to correctly recall the second item in the pair?|Type your response on a scale from 0-100 and then press Enter.",Study/JOL,BUFFER4,4521,,,4180,4257,,,,50,1
5de8695380e0fc7e7ac9f271,2y44mpm192,Trevor-ex1,1,269,2020-07-17T10:09:17-07:00,2.6541979312897,6,versionA_stim.csv,JOL_H_VersionB.csv,"Highlight vs normal B","Highlight vs normal",GEESE,GOOSE,BUFFER2,Buffer,86,89,JOL,User,-,"How likely are you to correctly recall the second item in the pair?|Type your response on a scale from 0-100 and then press Enter.",Study/JOL,BUFFER4,2383,,,1835,2171,,,,100,1
5de8695380e0fc7e7ac9f271,2y44mpm192,Trevor-ex1,1,270,2020-07-17T10:09:22-07:00,4.8040819168091,6,versionA_stim.csv,JOL_H_VersionB.csv,"Highlight vs normal B","Highlight vs normal",MOON,SPACE,BUFFER2,Buffer,89,91,JOL,User,-,"How likely are you to correctly recall the second item in the pair?|Type your response on a scale from 0-100 and then press Enter.",Study/JOL,BUFFER4,4543,,,1745,4407,,,,90,1
5de8695380e0fc7e7ac9f271,2y44mpm192,Trevor-ex1,1,271,2020-07-17T10:09:24-07:00,2.8079760074615,6,versionA_stim.csv,JOL_H_VersionB.csv,"Highlight vs normal B","Highlight vs normal",MALT,CHOCOLATE,BUFFER2,Buffer,88,88,JOL_H,User,-,"How likely are you to correctly recall the second item in the pair?|Type your response on a scale from 0-100 and then press Enter.",Study/JOL,BUFFER4,2533,,,2317,2412,,,,60,1
5de8695380e0fc7e7ac9f271,2y44mpm192,Trevor-ex1,1,272,2020-07-17T10:09:28-07:00,3.3927500247955,6,versionA_stim.csv,JOL_H_VersionB.csv,"Highlight vs normal B","Highlight vs normal",,,,,,0,Instruct,User,-,"You have completed this section. Please press Enter.",Filler_Instruction,Instruct5,3118,,,-1,-1,,,,,1
5de8695380e0fc7e7ac9f271,2y44mpm192,Trevor-ex1,1,273,2020-07-17T10:11:28-07:00,120.49139499664,6,versionA_stim.csv,JOL_H_VersionB.csv,"Highlight vs normal B","Highlight vs normal",,,,,,0,FreeRecall,120,120,"Please list the 50 US states in reverse alphabetical order (z - a). The task will automatically advance to the next screen after two minutes.",,Filler2,120001,"Wyoming West Virginia Virginia Texas Tennessee South Dakota South Carolina North Dakota North Carolina New York New Jersey New Hampshire Nevada Michigan Maryland Maine Oregon Illinois Idaho Georgia Florida Colorado California Alabama ",0,21931,118977,0,0,,,1
