"Username","Condition.Number","Condition.Description","Stimuli.Cue","Stimuli.Answer","Stimuli.Shuffle","Stimuli.Stimuli.Notes","Procedure.Trial.Type","JOL.RT","Response.JOL","Response.RT.1","Response.Response","Response.Accuracy","Recall_Score"
"5aa8ebf089de8200013f8c48",1,"Size U A","BAT","SHAKY","Study1","U","JOL_Small",9084,"15",4156,"shaky",100,100
"5b2c0de67297750001c794ab",1,"Size U A","BAT","SHAKY","Study1","U","JOL_Large",871,"7",2949,"WING",0,0
"5caa2f919f9fb8000185329b",1,"Size U A","BAT","SHAKY","Study1","U","JOL_Small",5707,"5",4856,"Tree",0,0
"5cbb39cb98560b0016678e5b",1,"Size U A","BAT","SHAKY","Study1","U","JOL_Small",6196,"35",3326,"Shaky",100,100
"5d77eb3007e8770001acdef8",1,"Size U A","BAT","SHAKY","Study1","U","JOL_Large",1913,"0",2824,"",0,0
"5e6a6066d2723d016a56e77f",1,"Size U A","BAT","SHAKY","Study1","U","JOL_Large",4871,"15",9244,"SHAKING",66.666666666667,0
"5e86516e2c33ae2829df3983",1,"Size U A","BAT","SHAKY","Study1","U","JOL_Large",4129,"28",39942,"Wobbly",18.181818181818,0
"5e891584cdbaa65a740e076d",1,"Size U A","BAT","SHAKY","Study1","U","JOL_Large",3301,"5",5029,"shake",80,100
"5e928bc7b4f9c10eeee9217b",1,"Size U A","BAT","SHAKY","Study1","U","JOL_Small",3859,"48",5046,"Catcher",16.666666666667,0
"5ea04bf0549a55078a07eb5d",1,"Size U A","BAT","SHAKY","Study1","U","JOL_Large",2028,"10",5977,"rattle",18.181818181818,0
"5ea964a32f7b3304bb975a05",1,"Size U A","BAT","SHAKY","Study1","U","JOL_Large",3987,"30",5930,"ball",22.222222222222,0
"5eb201f369cc97175a5a6490",1,"Size U A","BAT","SHAKY","Study1","U","JOL_Small",1882,"10",3155,"SKIP",44.444444444444,0
"5ebfccc3903b333adb41bbd0",1,"Size U A","BAT","SHAKY","Study1","U","JOL_Large",12580,"25",8367,"",0,0
"5ec4363c0e821a30218c9a67",1,"Size U A","BAT","SHAKY","Study1","U","JOL_Small",4130,"10",13703,"Crazy",40,0
"5efb789be4c8450e986ce093",1,"Size U A","BAT","SHAKY","Study1","U","JOL_Small",3215,"20",1517,"",0,0
"5f140ed5565000448d082e16",1,"Size U A","BAT","SHAKY","Study1","U","JOL_Large",13091,"10",4296,"Shaky",100,100
"5f150c8fd0d9fa5978ccd1e6",1,"Size U A","BAT","SHAKY","Study1","U","JOL_Large",7265,"0",5439,"",0,0
"5f151a1c200b7911969aba6c",1,"Size U A","BAT","SHAKY","Study1","U","JOL_Large",7222,"25",3452,"CAVE",22.222222222222,0
"5f16c30d59ac784a401cb353",1,"Size U A","BAT","SHAKY","Study1","U","JOL_Large",3605,"70",3945,"",0,0
"5f189519b4fb2a0845d3633d",1,"Size U A","BAT","SHAKY","Study1","U","JOL_Small",7274,"15",1386,"",0,0
"5aa8ebf089de8200013f8c48",1,"Size U A","BOTH","OUNCE","Study1","U","JOL_Small",5185,"5",2903,"",0,0
"5b2c0de67297750001c794ab",1,"Size U A","BOTH","OUNCE","Study1","U","JOL_Small",1066,"6",4078,"YOUNG",60,0
"5caa2f919f9fb8000185329b",1,"Size U A","BOTH","OUNCE","Study1","U","JOL_Large",4034,"0",4785,"Other",40,0
"5cbb39cb98560b0016678e5b",1,"Size U A","BOTH","OUNCE","Study1","U","JOL_Small",3885,"15",7557,"Things",18.181818181818,0
"5d77eb3007e8770001acdef8",1,"Size U A","BOTH","OUNCE","Study1","U","JOL_Large",2418,"20",939,"",0,0
"5d77eb3007e8770001acdef8",1,"Size U A","BOTH","OUNCE","Study1","U","JOL_Small",953,"20",3431,"",0,0
"5e6a6066d2723d016a56e77f",1,"Size U A","BOTH","OUNCE","Study1","U","JOL_Large",3315,"2",3290,"",0,0
"5e86516e2c33ae2829df3983",1,"Size U A","BOTH","OUNCE","Study1","U","JOL_Large",3231,"34",16457,"",0,0
"5e891584cdbaa65a740e076d",1,"Size U A","BOTH","OUNCE","Study1","U","JOL_Small",2480,"0",2501,"ounce",100,100
"5e928bc7b4f9c10eeee9217b",1,"Size U A","BOTH","OUNCE","Study1","U","JOL_Large",2779,"54",1111,"",0,0
"5ea04bf0549a55078a07eb5d",1,"Size U A","BOTH","OUNCE","Study1","U","JOL_Large",1980,"20",7776,"other",40,0
"5ea964a32f7b3304bb975a05",1,"Size U A","BOTH","OUNCE","Study1","U","JOL_Large",5527,"30",5618,"pair",0,0
"5eb201f369cc97175a5a6490",1,"Size U A","BOTH","OUNCE","Study1","U","JOL_Large",2515,"30",3581,"SAME",22.222222222222,0
"5ebfccc3903b333adb41bbd0",1,"Size U A","BOTH","OUNCE","Study1","U","JOL_Large",6577,"0",3511,"",0,0
"5ec4363c0e821a30218c9a67",1,"Size U A","BOTH","OUNCE","Study1","U","JOL_Large",3404,"5",2108,"",0,0
"5efb789be4c8450e986ce093",1,"Size U A","BOTH","OUNCE","Study1","U","JOL_Small",2359,"20",19646,"",0,0
"5f140ed5565000448d082e16",1,"Size U A","BOTH","OUNCE","Study1","U","JOL_Small",5869,"40",6736,"Ounce",100,100
"5f150c8fd0d9fa5978ccd1e6",1,"Size U A","BOTH","OUNCE","Study1","U","JOL_Small",3466,"0",5694,"",0,0
"5f151a1c200b7911969aba6c",1,"Size U A","BOTH","OUNCE","Study1","U","JOL_Small",5906,"55",3034,"",0,0
"5f16c30d59ac784a401cb353",1,"Size U A","BOTH","OUNCE","Study1","U","JOL_Large",10941,"60",1391,"",0,0
"5f189519b4fb2a0845d3633d",1,"Size U A","BOTH","OUNCE","Study1","U","JOL_Small",5169,"30",4656,"",0,0
"5aa8ebf089de8200013f8c48",1,"Size U A","BROAD","INFECT","Study1","U","JOL_Small",5475,"15",2237,"",0,0
"5b2c0de67297750001c794ab",1,"Size U A","BROAD","INFECT","Study1","U","JOL_Small",752,"7",3110,"BAND",20,0
"5caa2f919f9fb8000185329b",1,"Size U A","BROAD","INFECT","Study1","U","JOL_Small",9330,"3",9620,"Steam ",18.181818181818,0
"5cbb39cb98560b0016678e5b",1,"Size U A","BROAD","INFECT","Study1","U","JOL_Large",7919,"65",5231,"Infection",80,0
"5d77eb3007e8770001acdef8",1,"Size U A","BROAD","INFECT","Study1","U","JOL_Small",2478,"70",1486,"",0,0
"5e6a6066d2723d016a56e77f",1,"Size U A","BROAD","INFECT","Study1","U","JOL_Large",6946,"5",7477,"",0,0
"5e86516e2c33ae2829df3983",1,"Size U A","BROAD","INFECT","Study1","U","JOL_Large",4985,"23",2552,"",0,0
"5e891584cdbaa65a740e076d",1,"Size U A","BROAD","INFECT","Study1","U","JOL_Small",2073,"0",1929,"",0,0
"5e928bc7b4f9c10eeee9217b",1,"Size U A","BROAD","INFECT","Study1","U","JOL_Large",1805,"63",1730,"",0,0
"5ea04bf0549a55078a07eb5d",1,"Size U A","BROAD","INFECT","Study1","U","JOL_Small",3513,"30",3459,"",0,0
"5ea964a32f7b3304bb975a05",1,"Size U A","BROAD","INFECT","Study1","U","JOL_Small",7240,"20",4709,"wide",40,0
"5eb201f369cc97175a5a6490",1,"Size U A","BROAD","INFECT","Study1","U","JOL_Large",3199,"45",3255,"SKIP",20,0
"5ebfccc3903b333adb41bbd0",1,"Size U A","BROAD","INFECT","Study1","U","JOL_Large",5129,"1",9138,"",0,0
"5ec4363c0e821a30218c9a67",1,"Size U A","BROAD","INFECT","Study1","U","JOL_Small",3278,"65",2045,"",0,0
"5efb789be4c8450e986ce093",1,"Size U A","BROAD","INFECT","Study1","U","JOL_Large",4997,"10",2976,"bean",20,0
"5f140ed5565000448d082e16",1,"Size U A","BROAD","INFECT","Study1","U","JOL_Large",8058,"30",16458,"Place",18.181818181818,0
"5f150c8fd0d9fa5978ccd1e6",1,"Size U A","BROAD","INFECT","Study1","U","JOL_Large",6680,"30",6342,"Infect",100,100
"5f151a1c200b7911969aba6c",1,"Size U A","BROAD","INFECT","Study1","U","JOL_Small",6575,"10",5865,"",0,0
"5f16c30d59ac784a401cb353",1,"Size U A","BROAD","INFECT","Study1","U","JOL_Small",7410,"30",7351,"wound",18.181818181818,0
"5f189519b4fb2a0845d3633d",1,"Size U A","BROAD","INFECT","Study1","U","JOL_Small",5844,"10",4709,"",0,0
"5aa8ebf089de8200013f8c48",1,"Size U A","CAKE","CLOTHES","Study1","U","JOL_Small",6000,"10",6382,"shirt",16.666666666667,0
"5b2c0de67297750001c794ab",1,"Size U A","CAKE","CLOTHES","Study1","U","JOL_Large",3130,"2",6386,"CONFETTI",40,0
"5caa2f919f9fb8000185329b",1,"Size U A","CAKE","CLOTHES","Study1","U","JOL_Small",6581,"20",7645,"Bake",18.181818181818,0
"5cbb39cb98560b0016678e5b",1,"Size U A","CAKE","CLOTHES","Study1","U","JOL_Small",4494,"60",5152,"Clothes",100,100
"5d77eb3007e8770001acdef8",1,"Size U A","CAKE","CLOTHES","Study1","U","JOL_Small",1876,"1",1192,"",0,0
"5e6a6066d2723d016a56e77f",1,"Size U A","CAKE","CLOTHES","Study1","U","JOL_Small",5462,"10",7468,"CLOTHES",100,100
"5e86516e2c33ae2829df3983",1,"Size U A","CAKE","CLOTHES","Study1","U","JOL_Large",8505,"35",13355,"C",25,0
"5e891584cdbaa65a740e076d",1,"Size U A","CAKE","CLOTHES","Study1","U","JOL_Large",3022,"0",5173,"",0,0
"5e928bc7b4f9c10eeee9217b",1,"Size U A","CAKE","CLOTHES","Study1","U","JOL_Large",4410,"62",1039,"",0,0
"5ea04bf0549a55078a07eb5d",1,"Size U A","CAKE","CLOTHES","Study1","U","JOL_Small",1767,"22",4927,"sugar",16.666666666667,0
"5ea964a32f7b3304bb975a05",1,"Size U A","CAKE","CLOTHES","Study1","U","JOL_Large",8836,"30",7152,"birthday",26.666666666667,0
"5eb201f369cc97175a5a6490",1,"Size U A","CAKE","CLOTHES","Study1","U","JOL_Small",3172,"50",3274,"BUTTER",30.769230769231,0
"5ebfccc3903b333adb41bbd0",1,"Size U A","CAKE","CLOTHES","Study1","U","JOL_Small",4969,"2",3263,"",0,0
"5ec4363c0e821a30218c9a67",1,"Size U A","CAKE","CLOTHES","Study1","U","JOL_Small",6698,"45",3922,"Clothes",100,100
"5efb789be4c8450e986ce093",1,"Size U A","CAKE","CLOTHES","Study1","U","JOL_Large",3613,"30",4996,"c",25,0
"5f140ed5565000448d082e16",1,"Size U A","CAKE","CLOTHES","Study1","U","JOL_Large",10572,"30",3876,"Clothes",100,100
"5f150c8fd0d9fa5978ccd1e6",1,"Size U A","CAKE","CLOTHES","Study1","U","JOL_Small",8668,"20",3595,"Clothing",66.666666666667,0
"5f151a1c200b7911969aba6c",1,"Size U A","CAKE","CLOTHES","Study1","U","JOL_Large",6687,"50",7186,"BUTTER",30.769230769231,0
"5f16c30d59ac784a401cb353",1,"Size U A","CAKE","CLOTHES","Study1","U","JOL_Large",4637,"40",11983,"",0,0
"5f189519b4fb2a0845d3633d",1,"Size U A","CAKE","CLOTHES","Study1","U","JOL_Small",8081,"15",1607,"",0,0
"5aa8ebf089de8200013f8c48",1,"Size U A","CRACKLE","ABLE","Study1","U","JOL_Large",8037,"5",1586,"",0,0
"5b2c0de67297750001c794ab",1,"Size U A","CRACKLE","ABLE","Study1","U","JOL_Large",867,"5",8242,"FIZZ",0,0
"5caa2f919f9fb8000185329b",1,"Size U A","CRACKLE","ABLE","Study1","U","JOL_Small",5554,"5",4440,"Cereal",20,0
"5cbb39cb98560b0016678e5b",1,"Size U A","CRACKLE","ABLE","Study1","U","JOL_Large",3708,"5",4164,"Pop",0,0
"5d77eb3007e8770001acdef8",1,"Size U A","CRACKLE","ABLE","Study1","U","JOL_Large",2005,"60",1023,"",0,0
"5e6a6066d2723d016a56e77f",1,"Size U A","CRACKLE","ABLE","Study1","U","JOL_Small",3736,"2",3886,"",0,0
"5e86516e2c33ae2829df3983",1,"Size U A","CRACKLE","ABLE","Study1","U","JOL_Small",11710,"16",1431,"",0,0
"5e891584cdbaa65a740e076d",1,"Size U A","CRACKLE","ABLE","Study1","U","JOL_Small",3155,"0",1875,"abl",85.714285714286,100
"5e928bc7b4f9c10eeee9217b",1,"Size U A","CRACKLE","ABLE","Study1","U","JOL_Large",4368,"31",2872,"Fire",25,0
"5ea04bf0549a55078a07eb5d",1,"Size U A","CRACKLE","ABLE","Study1","U","JOL_Large",3959,"15",1917,"pop",0,0
"5ea964a32f7b3304bb975a05",1,"Size U A","CRACKLE","ABLE","Study1","U","JOL_Small",4811,"20",3842,"pop",0,0
"5eb201f369cc97175a5a6490",1,"Size U A","CRACKLE","ABLE","Study1","U","JOL_Small",5091,"90",2637,"SKIP",0,0
"5ebfccc3903b333adb41bbd0",1,"Size U A","CRACKLE","ABLE","Study1","U","JOL_Large",6342,"3",12152,"Pop",0,0
"5ec4363c0e821a30218c9a67",1,"Size U A","CRACKLE","ABLE","Study1","U","JOL_Small",4598,"5",15787,"Scratching",14.285714285714,0
"5efb789be4c8450e986ce093",1,"Size U A","CRACKLE","ABLE","Study1","U","JOL_Large",3939,"20",5926,"able",100,100
"5f140ed5565000448d082e16",1,"Size U A","CRACKLE","ABLE","Study1","U","JOL_Small",7873,"80",5640,"Able",100,100
"5f150c8fd0d9fa5978ccd1e6",1,"Size U A","CRACKLE","ABLE","Study1","U","JOL_Large",8982,"0",2267,"",0,0
"5f151a1c200b7911969aba6c",1,"Size U A","CRACKLE","ABLE","Study1","U","JOL_Small",5799,"10",4973,"",0,0
"5f16c30d59ac784a401cb353",1,"Size U A","CRACKLE","ABLE","Study1","U","JOL_Large",7598,"35",8039,"",0,0
"5f189519b4fb2a0845d3633d",1,"Size U A","CRACKLE","ABLE","Study1","U","JOL_Large",3869,"60",2032,"",0,0
"5aa8ebf089de8200013f8c48",1,"Size U A","CRAYON","RATE","Study1","U","JOL_Small",6132,"5",3376,"rate",100,100
"5b2c0de67297750001c794ab",1,"Size U A","CRAYON","RATE","Study1","U","JOL_Large",1831,"3",7642,"RULE",50,0
"5caa2f919f9fb8000185329b",1,"Size U A","CRAYON","RATE","Study1","U","JOL_Small",7216,"10",5515,"Hold ",0,0
"5cbb39cb98560b0016678e5b",1,"Size U A","CRAYON","RATE","Study1","U","JOL_Small",4483,"20",13040,"Rise",50,0
"5d77eb3007e8770001acdef8",1,"Size U A","CRAYON","RATE","Study1","U","JOL_Large",2491,"0",2850,"",0,0
"5e6a6066d2723d016a56e77f",1,"Size U A","CRAYON","RATE","Study1","U","JOL_Large",4171,"10",6787,"RANK",50,0
"5e86516e2c33ae2829df3983",1,"Size U A","CRAYON","RATE","Study1","U","JOL_Small",5837,"11",30300,"EI",33.333333333333,0
"5e891584cdbaa65a740e076d",1,"Size U A","CRAYON","RATE","Study1","U","JOL_Small",2471,"0",2642,"",0,0
"5e928bc7b4f9c10eeee9217b",1,"Size U A","CRAYON","RATE","Study1","U","JOL_Small",2380,"40",757,"",0,0
"5ea04bf0549a55078a07eb5d",1,"Size U A","CRAYON","RATE","Study1","U","JOL_Large",6083,"40",3807,"colour",20,0
"5ea04bf0549a55078a07eb5d",1,"Size U A","CRAYON","RATE","Study1","U","JOL_Small",13247,"50",5171,"",0,0
"5ea964a32f7b3304bb975a05",1,"Size U A","CRAYON","RATE","Study1","U","JOL_Small",8503,"20",6098,"paper",44.444444444444,0
"5eb201f369cc97175a5a6490",1,"Size U A","CRAYON","RATE","Study1","U","JOL_Large",2650,"80",2454,"SKIP",0,0
"5ebfccc3903b333adb41bbd0",1,"Size U A","CRAYON","RATE","Study1","U","JOL_Large",9989,"1",3512,"",0,0
"5ec4363c0e821a30218c9a67",1,"Size U A","CRAYON","RATE","Study1","U","JOL_Large",2707,"0",2728,"Red",57.142857142857,0
"5efb789be4c8450e986ce093",1,"Size U A","CRAYON","RATE","Study1","U","JOL_Small",3228,"20",3972,"rate",100,100
"5f140ed5565000448d082e16",1,"Size U A","CRAYON","RATE","Study1","U","JOL_Large",4152,"0",6416,"Fuzzy",0,0
"5f150c8fd0d9fa5978ccd1e6",1,"Size U A","CRAYON","RATE","Study1","U","JOL_Large",10648,"0",5104,"Rate",100,100
"5f151a1c200b7911969aba6c",1,"Size U A","CRAYON","RATE","Study1","U","JOL_Large",4772,"50",3509,"RATE",100,100
"5f16c30d59ac784a401cb353",1,"Size U A","CRAYON","RATE","Study1","U","JOL_Small",9510,"60",15580,"break",44.444444444444,0
"5f189519b4fb2a0845d3633d",1,"Size U A","CRAYON","RATE","Study1","U","JOL_Small",2874,"5",1721,"",0,0
"5aa8ebf089de8200013f8c48",1,"Size U A","DEGREE","CHAIR","Study1","U","JOL_Large",10410,"5",2454,"",0,0
"5b2c0de67297750001c794ab",1,"Size U A","DEGREE","CHAIR","Study1","U","JOL_Large",5644,"10",3123,"RISE",22.222222222222,0
"5caa2f919f9fb8000185329b",1,"Size U A","DEGREE","CHAIR","Study1","U","JOL_Large",3997,"0",3536,"Earn",44.444444444444,0
"5cbb39cb98560b0016678e5b",1,"Size U A","DEGREE","CHAIR","Study1","U","JOL_Large",5728,"35",4845,"Chair",100,100
"5d77eb3007e8770001acdef8",1,"Size U A","DEGREE","CHAIR","Study1","U","JOL_Small",2293,"20",753,"",0,0
"5e6a6066d2723d016a56e77f",1,"Size U A","DEGREE","CHAIR","Study1","U","JOL_Small",3473,"5",3232,"CHAIR",100,100
"5e86516e2c33ae2829df3983",1,"Size U A","DEGREE","CHAIR","Study1","U","JOL_Small",5050,"12",1956,"",0,0
"5e891584cdbaa65a740e076d",1,"Size U A","DEGREE","CHAIR","Study1","U","JOL_Small",2744,"5",2369,"chair",100,100
"5e928bc7b4f9c10eeee9217b",1,"Size U A","DEGREE","CHAIR","Study1","U","JOL_Small",3355,"18",623,"",0,0
"5ea04bf0549a55078a07eb5d",1,"Size U A","DEGREE","CHAIR","Study1","U","JOL_Small",2584,"10",2001,"chair",100,100
"5ea964a32f7b3304bb975a05",1,"Size U A","DEGREE","CHAIR","Study1","U","JOL_Small",7700,"50",9806,"",0,0
"5eb201f369cc97175a5a6490",1,"Size U A","DEGREE","CHAIR","Study1","U","JOL_Large",5873,"59",4968,"TEMPERATURE",12.5,0
"5ebfccc3903b333adb41bbd0",1,"Size U A","DEGREE","CHAIR","Study1","U","JOL_Small",16831,"25",7523,"Chair",100,100
"5ec4363c0e821a30218c9a67",1,"Size U A","DEGREE","CHAIR","Study1","U","JOL_Large",2220,"5",5280,"",0,0
"5efb789be4c8450e986ce093",1,"Size U A","DEGREE","CHAIR","Study1","U","JOL_Small",2490,"10",3898,"chair",100,100
"5f140ed5565000448d082e16",1,"Size U A","DEGREE","CHAIR","Study1","U","JOL_Small",6079,"70",8278,"Line",22.222222222222,0
"5f150c8fd0d9fa5978ccd1e6",1,"Size U A","DEGREE","CHAIR","Study1","U","JOL_Large",6100,"20",12819,"chair",100,100
"5f151a1c200b7911969aba6c",1,"Size U A","DEGREE","CHAIR","Study1","U","JOL_Small",4943,"35",6091,"SCHOOL",36.363636363636,0
"5f16c30d59ac784a401cb353",1,"Size U A","DEGREE","CHAIR","Study1","U","JOL_Small",8084,"40",6168,"Chair",100,100
"5f189519b4fb2a0845d3633d",1,"Size U A","DEGREE","CHAIR","Study1","U","JOL_Small",2986,"5",4240,"Take",22.222222222222,0
"5aa8ebf089de8200013f8c48",1,"Size U A","DIFFICULT","POOR","Study1","U","JOL_Large",10846,"60",3003,"",0,0
"5aa8ebf089de8200013f8c48",1,"Size U A","DIFFICULT","POOR","Study1","U","JOL_Small",13108,"65",10168,"",0,0
"5b2c0de67297750001c794ab",1,"Size U A","DIFFICULT","POOR","Study1","U","JOL_Large",3296,"33",3962,"TASK",0,0
"5caa2f919f9fb8000185329b",1,"Size U A","DIFFICULT","POOR","Study1","U","JOL_Small",6724,"5",8312,"Passing ",18.181818181818,0
"5cbb39cb98560b0016678e5b",1,"Size U A","DIFFICULT","POOR","Study1","U","JOL_Small",4044,"80",3643,"Poor",100,100
"5d77eb3007e8770001acdef8",1,"Size U A","DIFFICULT","POOR","Study1","U","JOL_Small",1792,"50",1599,"",0,0
"5e6a6066d2723d016a56e77f",1,"Size U A","DIFFICULT","POOR","Study1","U","JOL_Small",5225,"6",2077,"",0,0
"5e86516e2c33ae2829df3983",1,"Size U A","DIFFICULT","POOR","Study1","U","JOL_Large",4999,"68",7047,"HARD",25,0
"5e891584cdbaa65a740e076d",1,"Size U A","DIFFICULT","POOR","Study1","U","JOL_Small",3133,"35",2280,"",0,0
"5e928bc7b4f9c10eeee9217b",1,"Size U A","DIFFICULT","POOR","Study1","U","JOL_Large",2048,"40",1802,"",0,0
"5ea04bf0549a55078a07eb5d",1,"Size U A","DIFFICULT","POOR","Study1","U","JOL_Large",3648,"20",2406,"hard",25,0
"5ea964a32f7b3304bb975a05",1,"Size U A","DIFFICULT","POOR","Study1","U","JOL_Small",4583,"20",5250,"easy",0,0
"5eb201f369cc97175a5a6490",1,"Size U A","DIFFICULT","POOR","Study1","U","JOL_Large",2924,"80",6436,"SKIP",25,0
"5ebfccc3903b333adb41bbd0",1,"Size U A","DIFFICULT","POOR","Study1","U","JOL_Small",13058,"70",6002,"Poor",100,100
"5ec4363c0e821a30218c9a67",1,"Size U A","DIFFICULT","POOR","Study1","U","JOL_Small",4346,"85",3235,"",0,0
"5efb789be4c8450e986ce093",1,"Size U A","DIFFICULT","POOR","Study1","U","JOL_Large",3163,"40",2994,"hard",25,0
"5f140ed5565000448d082e16",1,"Size U A","DIFFICULT","POOR","Study1","U","JOL_Small",9905,"90",4059,"Poor",100,100
"5f150c8fd0d9fa5978ccd1e6",1,"Size U A","DIFFICULT","POOR","Study1","U","JOL_Small",6553,"25",7157,"",0,0
"5f151a1c200b7911969aba6c",1,"Size U A","DIFFICULT","POOR","Study1","U","JOL_Large",4053,"80",4337,"",0,0
"5f16c30d59ac784a401cb353",1,"Size U A","DIFFICULT","POOR","Study1","U","JOL_Large",5332,"80",11911,"poor",100,100
"5f189519b4fb2a0845d3633d",1,"Size U A","DIFFICULT","POOR","Study1","U","JOL_Small",5511,"35",1133,"",0,0
"5aa8ebf089de8200013f8c48",1,"Size U A","DIZZY","SWEATER","Study1","U","JOL_Large",5724,"10",22966,"",0,0
"5b2c0de67297750001c794ab",1,"Size U A","DIZZY","SWEATER","Study1","U","JOL_Small",824,"8",7611,"SWEATER",100,100
"5caa2f919f9fb8000185329b",1,"Size U A","DIZZY","SWEATER","Study1","U","JOL_Small",8707,"5",4839,"Spell",33.333333333333,0
"5cbb39cb98560b0016678e5b",1,"Size U A","DIZZY","SWEATER","Study1","U","JOL_Small",7624,"20",8201,"Spell",33.333333333333,0
"5d77eb3007e8770001acdef8",1,"Size U A","DIZZY","SWEATER","Study1","U","JOL_Large",1354,"20",1960,"FUZZY",0,0
"5e6a6066d2723d016a56e77f",1,"Size U A","DIZZY","SWEATER","Study1","U","JOL_Small",5407,"10",5981,"SWEATER",100,100
"5e86516e2c33ae2829df3983",1,"Size U A","DIZZY","SWEATER","Study1","U","JOL_Large",5625,"13",1644,"",0,0
"5e891584cdbaa65a740e076d",1,"Size U A","DIZZY","SWEATER","Study1","U","JOL_Large",1654,"0",2895,"jumper",30.769230769231,0
"5e928bc7b4f9c10eeee9217b",1,"Size U A","DIZZY","SWEATER","Study1","U","JOL_Small",2801,"32",649,"",0,0
"5ea04bf0549a55078a07eb5d",1,"Size U A","DIZZY","SWEATER","Study1","U","JOL_Large",2728,"60",5723,"puzzle",15.384615384615,0
"5ea964a32f7b3304bb975a05",1,"Size U A","DIZZY","SWEATER","Study1","U","JOL_Large",5284,"30",2569,"",0,0
"5eb201f369cc97175a5a6490",1,"Size U A","DIZZY","SWEATER","Study1","U","JOL_Large",2916,"40",8069,"SKIP",18.181818181818,0
"5ebfccc3903b333adb41bbd0",1,"Size U A","DIZZY","SWEATER","Study1","U","JOL_Small",10176,"3",6030,"Space",50,0
"5ec4363c0e821a30218c9a67",1,"Size U A","DIZZY","SWEATER","Study1","U","JOL_Small",3861,"5",3035,"Felt",36.363636363636,0
"5efb789be4c8450e986ce093",1,"Size U A","DIZZY","SWEATER","Study1","U","JOL_Small",3076,"30",4305,"sweater",100,100
"5f140ed5565000448d082e16",1,"Size U A","DIZZY","SWEATER","Study1","U","JOL_Small",6148,"20",7475,"Fuzzy",0,0
"5f150c8fd0d9fa5978ccd1e6",1,"Size U A","DIZZY","SWEATER","Study1","U","JOL_Large",8296,"5",2438,"",0,0
"5f151a1c200b7911969aba6c",1,"Size U A","DIZZY","SWEATER","Study1","U","JOL_Large",6128,"25",7664,"",0,0
"5f16c30d59ac784a401cb353",1,"Size U A","DIZZY","SWEATER","Study1","U","JOL_Large",5543,"50",4931,"jumper",30.769230769231,0
"5f16c30d59ac784a401cb353",1,"Size U A","DIZZY","SWEATER","Study1","U","JOL_Small",4063,"90",7187,"sweater",100,100
"5f189519b4fb2a0845d3633d",1,"Size U A","DIZZY","SWEATER","Study1","U","JOL_Large",2741,"10",11369,"Sign",18.181818181818,0
"5aa8ebf089de8200013f8c48",1,"Size U A","DONKEY","LUSH","Study1","U","JOL_Large",7278,"5",5280,"",0,0
"5b2c0de67297750001c794ab",1,"Size U A","DONKEY","LUSH","Study1","U","JOL_Small",1923,"4",9738,"VEX",0,0
"5caa2f919f9fb8000185329b",1,"Size U A","DONKEY","LUSH","Study1","U","JOL_Large",4219,"0",8325,"Let ",28.571428571429,0
"5cbb39cb98560b0016678e5b",1,"Size U A","DONKEY","LUSH","Study1","U","JOL_Large",3794,"5",3320,"Lush",100,100
"5d77eb3007e8770001acdef8",1,"Size U A","DONKEY","LUSH","Study1","U","JOL_Large",1890,"60",557,"",0,0
"5e6a6066d2723d016a56e77f",1,"Size U A","DONKEY","LUSH","Study1","U","JOL_Large",9507,"40",3875,"LUSH",100,100
"5e86516e2c33ae2829df3983",1,"Size U A","DONKEY","LUSH","Study1","U","JOL_Large",5571,"67",14376,"",0,0
"5e891584cdbaa65a740e076d",1,"Size U A","DONKEY","LUSH","Study1","U","JOL_Large",2442,"10",3461,"lush",100,100
"5e928bc7b4f9c10eeee9217b",1,"Size U A","DONKEY","LUSH","Study1","U","JOL_Small",2858,"20",5000,"Animal",20,0
"5ea04bf0549a55078a07eb5d",1,"Size U A","DONKEY","LUSH","Study1","U","JOL_Large",1794,"40",2387,"horse",22.222222222222,0
"5ea964a32f7b3304bb975a05",1,"Size U A","DONKEY","LUSH","Study1","U","JOL_Small",8567,"20",8757,"ass",28.571428571429,0
"5eb201f369cc97175a5a6490",1,"Size U A","DONKEY","LUSH","Study1","U","JOL_Small",2132,"70",4915,"SKIP",25,0
"5ebfccc3903b333adb41bbd0",1,"Size U A","DONKEY","LUSH","Study1","U","JOL_Small",14283,"75",7027,"Lush",100,100
"5ec4363c0e821a30218c9a67",1,"Size U A","DONKEY","LUSH","Study1","U","JOL_Small",2663,"5",3082,"Pull",25,0
"5efb789be4c8450e986ce093",1,"Size U A","DONKEY","LUSH","Study1","U","JOL_Small",2885,"20",3372,"jazz",0,0
"5f140ed5565000448d082e16",1,"Size U A","DONKEY","LUSH","Study1","U","JOL_Large",5017,"10",6483,"Tired",0,0
"5f150c8fd0d9fa5978ccd1e6",1,"Size U A","DONKEY","LUSH","Study1","U","JOL_Small",5141,"10",5214,"",0,0
"5f151a1c200b7911969aba6c",1,"Size U A","DONKEY","LUSH","Study1","U","JOL_Small",4795,"80",5510,"LUSH",100,100
"5f16c30d59ac784a401cb353",1,"Size U A","DONKEY","LUSH","Study1","U","JOL_Small",11263,"70",9404,"",0,0
"5f189519b4fb2a0845d3633d",1,"Size U A","DONKEY","LUSH","Study1","U","JOL_Small",3029,"30",1533,"",0,0
"5aa8ebf089de8200013f8c48",1,"Size U A","FUTURE","SINCERE","Study1","U","JOL_Small",6656,"10",13897,"empathy",14.285714285714,0
"5b2c0de67297750001c794ab",1,"Size U A","FUTURE","SINCERE","Study1","U","JOL_Small",809,"7",2660,"SONG",36.363636363636,0
"5caa2f919f9fb8000185329b",1,"Size U A","FUTURE","SINCERE","Study1","U","JOL_Small",7916,"5",7675,"Self",36.363636363636,0
"5cbb39cb98560b0016678e5b",1,"Size U A","FUTURE","SINCERE","Study1","U","JOL_Small",4474,"45",6856,"Hopeful",14.285714285714,0
"5d77eb3007e8770001acdef8",1,"Size U A","FUTURE","SINCERE","Study1","U","JOL_Small",3829,"0",3582,"Wisdom",15.384615384615,0
"5e6a6066d2723d016a56e77f",1,"Size U A","FUTURE","SINCERE","Study1","U","JOL_Large",3413,"2",1164,"",0,0
"5e6a6066d2723d016a56e77f",1,"Size U A","FUTURE","SINCERE","Study1","U","JOL_Small",9238,"5",1442,"",0,0
"5e86516e2c33ae2829df3983",1,"Size U A","FUTURE","SINCERE","Study1","U","JOL_Small",9262,"16",2874,"PAST",18.181818181818,0
"5e891584cdbaa65a740e076d",1,"Size U A","FUTURE","SINCERE","Study1","U","JOL_Large",2945,"5",2601,"",0,0
"5e891584cdbaa65a740e076d",1,"Size U A","FUTURE","SINCERE","Study1","U","JOL_Small",4163,"5",2050,"sincere",100,100
"5e928bc7b4f9c10eeee9217b",1,"Size U A","FUTURE","SINCERE","Study1","U","JOL_Small",3030,"79",2190,"",0,0
"5ea04bf0549a55078a07eb5d",1,"Size U A","FUTURE","SINCERE","Study1","U","JOL_Small",1580,"30",3332,"moon",18.181818181818,0
"5ea964a32f7b3304bb975a05",1,"Size U A","FUTURE","SINCERE","Study1","U","JOL_Small",3947,"20",6350,"bright",15.384615384615,0
"5eb201f369cc97175a5a6490",1,"Size U A","FUTURE","SINCERE","Study1","U","JOL_Large",2569,"10",4805,"PAST",18.181818181818,0
"5ebfccc3903b333adb41bbd0",1,"Size U A","FUTURE","SINCERE","Study1","U","JOL_Large",8805,"75",10003,"",0,0
"5ec4363c0e821a30218c9a67",1,"Size U A","FUTURE","SINCERE","Study1","U","JOL_Large",3164,"10",9908,"Remorse",28.571428571429,0
"5efb789be4c8450e986ce093",1,"Size U A","FUTURE","SINCERE","Study1","U","JOL_Large",4827,"30",5313,"past",18.181818181818,0
"5f140ed5565000448d082e16",1,"Size U A","FUTURE","SINCERE","Study1","U","JOL_Small",6513,"40",8856,"Loan",18.181818181818,0
"5f150c8fd0d9fa5978ccd1e6",1,"Size U A","FUTURE","SINCERE","Study1","U","JOL_Small",7188,"0",7848,"",0,0
"5f151a1c200b7911969aba6c",1,"Size U A","FUTURE","SINCERE","Study1","U","JOL_Small",5377,"45",4226,"",0,0
"5f16c30d59ac784a401cb353",1,"Size U A","FUTURE","SINCERE","Study1","U","JOL_Large",6706,"80",23047,"inevitable",47.058823529412,0
"5f189519b4fb2a0845d3633d",1,"Size U A","FUTURE","SINCERE","Study1","U","JOL_Large",3467,"15",3585,"Past",18.181818181818,0
"5aa8ebf089de8200013f8c48",1,"Size U A","FUZZY","BANG","Study1","U","JOL_Large",8141,"10",19550,"button",40,0
"5b2c0de67297750001c794ab",1,"Size U A","FUZZY","BANG","Study1","U","JOL_Large",598,"5",5806,"CLAM",25,0
"5caa2f919f9fb8000185329b",1,"Size U A","FUZZY","BANG","Study1","U","JOL_Small",4493,"10",4659,"Peach",22.222222222222,0
"5cbb39cb98560b0016678e5b",1,"Size U A","FUZZY","BANG","Study1","U","JOL_Large",4747,"50",4265,"Bang",100,100
"5d77eb3007e8770001acdef8",1,"Size U A","FUZZY","BANG","Study1","U","JOL_Large",1727,"50",1798,"Dizzy",0,0
"5e6a6066d2723d016a56e77f",1,"Size U A","FUZZY","BANG","Study1","U","JOL_Small",3872,"6",2962,"SWEATER",18.181818181818,0
"5e86516e2c33ae2829df3983",1,"Size U A","FUZZY","BANG","Study1","U","JOL_Large",3380,"33",33917,"Love",0,0
"5e891584cdbaa65a740e076d",1,"Size U A","FUZZY","BANG","Study1","U","JOL_Small",4475,"0",4665,"throat",20,0
"5e928bc7b4f9c10eeee9217b",1,"Size U A","FUZZY","BANG","Study1","U","JOL_Large",2187,"42",2546,"Ball",50,0
"5ea04bf0549a55078a07eb5d",1,"Size U A","FUZZY","BANG","Study1","U","JOL_Small",2259,"1",2550,"duck",0,0
"5ea964a32f7b3304bb975a05",1,"Size U A","FUZZY","BANG","Study1","U","JOL_Small",8524,"50",8153,"fluffy",0,0
"5eb201f369cc97175a5a6490",1,"Size U A","FUZZY","BANG","Study1","U","JOL_Small",2456,"60",4543,"SKIP",0,0
"5ebfccc3903b333adb41bbd0",1,"Size U A","FUZZY","BANG","Study1","U","JOL_Small",15300,"40",11769,"Space",22.222222222222,0
"5ec4363c0e821a30218c9a67",1,"Size U A","FUZZY","BANG","Study1","U","JOL_Large",3541,"80",1646,"",0,0
"5efb789be4c8450e986ce093",1,"Size U A","FUZZY","BANG","Study1","U","JOL_Large",4739,"20",7880,"",0,0
"5f140ed5565000448d082e16",1,"Size U A","FUZZY","BANG","Study1","U","JOL_Small",19831,"20",5349,"Crayon",40,0
"5f150c8fd0d9fa5978ccd1e6",1,"Size U A","FUZZY","BANG","Study1","U","JOL_Large",8381,"0",6489,"Bang",100,100
"5f151a1c200b7911969aba6c",1,"Size U A","FUZZY","BANG","Study1","U","JOL_Large",5373,"95",6997,"SHOES",0,0
"5f16c30d59ac784a401cb353",1,"Size U A","FUZZY","BANG","Study1","U","JOL_Large",4022,"70",8496,"turtle",0,0
"5f189519b4fb2a0845d3633d",1,"Size U A","FUZZY","BANG","Study1","U","JOL_Small",3617,"25",17624,"fruit",0,0
"5aa8ebf089de8200013f8c48",1,"Size U A","GIVE","STEAK","Study1","U","JOL_Small",7834,"15",2357,"",0,0
"5b2c0de67297750001c794ab",1,"Size U A","GIVE","STEAK","Study1","U","JOL_Large",613,"8",3075,"TAKE",66.666666666667,100
"5caa2f919f9fb8000185329b",1,"Size U A","GIVE","STEAK","Study1","U","JOL_Large",6671,"20",3664,"More",22.222222222222,0
"5cbb39cb98560b0016678e5b",1,"Size U A","GIVE","STEAK","Study1","U","JOL_Small",5117,"65",6570,"Steak",100,100
"5d77eb3007e8770001acdef8",1,"Size U A","GIVE","STEAK","Study1","U","JOL_Small",2123,"10",3017,"OBTAIN",36.363636363636,0
"5e6a6066d2723d016a56e77f",1,"Size U A","GIVE","STEAK","Study1","U","JOL_Small",10543,"25",2009,"",0,0
"5e86516e2c33ae2829df3983",1,"Size U A","GIVE","STEAK","Study1","U","JOL_Large",6147,"88",8597,"",0,0
"5e891584cdbaa65a740e076d",1,"Size U A","GIVE","STEAK","Study1","U","JOL_Large",3052,"10",1724,"",0,0
"5e928bc7b4f9c10eeee9217b",1,"Size U A","GIVE","STEAK","Study1","U","JOL_Small",1566,"67",1917,"",0,0
"5ea04bf0549a55078a07eb5d",1,"Size U A","GIVE","STEAK","Study1","U","JOL_Small",2042,"20",1627,"take",66.666666666667,100
"5ea964a32f7b3304bb975a05",1,"Size U A","GIVE","STEAK","Study1","U","JOL_Large",4224,"30",7167,"",0,0
"5eb201f369cc97175a5a6490",1,"Size U A","GIVE","STEAK","Study1","U","JOL_Small",3256,"70",9002,"CHOCOLATE",28.571428571429,0
"5ebfccc3903b333adb41bbd0",1,"Size U A","GIVE","STEAK","Study1","U","JOL_Small",9284,"65",2956,"",0,0
"5ec4363c0e821a30218c9a67",1,"Size U A","GIVE","STEAK","Study1","U","JOL_Large",3895,"35",2282,"",0,0
"5efb789be4c8450e986ce093",1,"Size U A","GIVE","STEAK","Study1","U","JOL_Large",3245,"20",3991,"take",66.666666666667,100
"5f140ed5565000448d082e16",1,"Size U A","GIVE","STEAK","Study1","U","JOL_Large",5658,"50",7047,"Take",66.666666666667,100
"5f150c8fd0d9fa5978ccd1e6",1,"Size U A","GIVE","STEAK","Study1","U","JOL_Large",6220,"10",4833,"",0,0
"5f151a1c200b7911969aba6c",1,"Size U A","GIVE","STEAK","Study1","U","JOL_Large",5758,"95",4940,"",0,0
"5f16c30d59ac784a401cb353",1,"Size U A","GIVE","STEAK","Study1","U","JOL_Small",4765,"50",1531,"",0,0
"5f189519b4fb2a0845d3633d",1,"Size U A","GIVE","STEAK","Study1","U","JOL_Large",3647,"45",1656,"take",66.666666666667,100
"5aa8ebf089de8200013f8c48",1,"Size U A","GRIND","STAND","Study1","U","JOL_Large",10356,"15",3863,"",0,0
"5b2c0de67297750001c794ab",1,"Size U A","GRIND","STAND","Study1","U","JOL_Small",12500,"1",4076,"COFFEE",0,0
"5caa2f919f9fb8000185329b",1,"Size U A","GRIND","STAND","Study1","U","JOL_Small",7832,"10",5173,"Shake",40,0
"5cbb39cb98560b0016678e5b",1,"Size U A","GRIND","STAND","Study1","U","JOL_Small",4520,"5",5738,"Control",16.666666666667,0
"5d77eb3007e8770001acdef8",1,"Size U A","GRIND","STAND","Study1","U","JOL_Small",2347,"80",1695,"STAND",100,100
"5e6a6066d2723d016a56e77f",1,"Size U A","GRIND","STAND","Study1","U","JOL_Large",7487,"7",5006,"STAND",100,100
"5e86516e2c33ae2829df3983",1,"Size U A","GRIND","STAND","Study1","U","JOL_Small",6793,"23",2985,"STAND",100,100
"5e891584cdbaa65a740e076d",1,"Size U A","GRIND","STAND","Study1","U","JOL_Small",2776,"10",2576,"stand",100,100
"5e928bc7b4f9c10eeee9217b",1,"Size U A","GRIND","STAND","Study1","U","JOL_Large",4453,"78",856,"",0,0
"5ea04bf0549a55078a07eb5d",1,"Size U A","GRIND","STAND","Study1","U","JOL_Small",2341,"30",3551,"work",0,0
"5ea964a32f7b3304bb975a05",1,"Size U A","GRIND","STAND","Study1","U","JOL_Large",3564,"30",1866,"",0,0
"5eb201f369cc97175a5a6490",1,"Size U A","GRIND","STAND","Study1","U","JOL_Small",3914,"50",2523,"SKIP",22.222222222222,0
"5ebfccc3903b333adb41bbd0",1,"Size U A","GRIND","STAND","Study1","U","JOL_Large",9493,"65",33244,"Stone",60,0
"5ec4363c0e821a30218c9a67",1,"Size U A","GRIND","STAND","Study1","U","JOL_Small",4550,"25",7762,"Grease",18.181818181818,0
"5efb789be4c8450e986ce093",1,"Size U A","GRIND","STAND","Study1","U","JOL_Small",3021,"30",2170,"",0,0
"5f140ed5565000448d082e16",1,"Size U A","GRIND","STAND","Study1","U","JOL_Large",7905,"30",8946,"Name",22.222222222222,0
"5f150c8fd0d9fa5978ccd1e6",1,"Size U A","GRIND","STAND","Study1","U","JOL_Large",6996,"5",2378,"Stand",100,100
"5f151a1c200b7911969aba6c",1,"Size U A","GRIND","STAND","Study1","U","JOL_Large",7277,"20",5870,"",0,0
"5f16c30d59ac784a401cb353",1,"Size U A","GRIND","STAND","Study1","U","JOL_Large",10160,"60",5479,"standing",76.923076923077,0
"5f189519b4fb2a0845d3633d",1,"Size U A","GRIND","STAND","Study1","U","JOL_Small",5543,"10",2822,"",0,0
"5aa8ebf089de8200013f8c48",1,"Size U A","INFLATE","DISGUST","Study1","U","JOL_Small",5613,"5",2998,"disgust",100,100
"5b2c0de67297750001c794ab",1,"Size U A","INFLATE","DISGUST","Study1","U","JOL_Small",658,"7",3881,"YETI",18.181818181818,0
"5caa2f919f9fb8000185329b",1,"Size U A","INFLATE","DISGUST","Study1","U","JOL_Large",5287,"10",3414,"Tyre",18.181818181818,0
"5cbb39cb98560b0016678e5b",1,"Size U A","INFLATE","DISGUST","Study1","U","JOL_Small",5150,"30",4873,"Disgust",100,100
"5d77eb3007e8770001acdef8",1,"Size U A","INFLATE","DISGUST","Study1","U","JOL_Small",1823,"40",2117,"",0,0
"5e6a6066d2723d016a56e77f",1,"Size U A","INFLATE","DISGUST","Study1","U","JOL_Small",4605,"3",6200,"",0,0
"5e86516e2c33ae2829df3983",1,"Size U A","INFLATE","DISGUST","Study1","U","JOL_Small",3500,"57",45486,"Awful",16.666666666667,0
"5e891584cdbaa65a740e076d",1,"Size U A","INFLATE","DISGUST","Study1","U","JOL_Large",2112,"0",5096,"disgust",100,100
"5e928bc7b4f9c10eeee9217b",1,"Size U A","INFLATE","DISGUST","Study1","U","JOL_Small",2344,"56",593,"",0,0
"5ea04bf0549a55078a07eb5d",1,"Size U A","INFLATE","DISGUST","Study1","U","JOL_Large",6147,"0",3528,"balloon",0,0
"5ea964a32f7b3304bb975a05",1,"Size U A","INFLATE","DISGUST","Study1","U","JOL_Large",5724,"30",5966,"ball",0,0
"5eb201f369cc97175a5a6490",1,"Size U A","INFLATE","DISGUST","Study1","U","JOL_Large",2710,"50",2216,"SKIP",18.181818181818,0
"5eb201f369cc97175a5a6490",1,"Size U A","INFLATE","DISGUST","Study1","U","JOL_Small",5167,"60",2778,"SKIP",18.181818181818,0
"5ebfccc3903b333adb41bbd0",1,"Size U A","INFLATE","DISGUST","Study1","U","JOL_Large",15164,"2",6003,"",0,0
"5ec4363c0e821a30218c9a67",1,"Size U A","INFLATE","DISGUST","Study1","U","JOL_Small",2981,"10",6554,"Pop",0,0
"5efb789be4c8450e986ce093",1,"Size U A","INFLATE","DISGUST","Study1","U","JOL_Small",2629,"10",4911,"deflate",28.571428571429,0
"5f140ed5565000448d082e16",1,"Size U A","INFLATE","DISGUST","Study1","U","JOL_Small",6689,"20",10118,"Search",15.384615384615,0
"5f150c8fd0d9fa5978ccd1e6",1,"Size U A","INFLATE","DISGUST","Study1","U","JOL_Small",9369,"0",3470,"",0,0
"5f151a1c200b7911969aba6c",1,"Size U A","INFLATE","DISGUST","Study1","U","JOL_Large",4927,"55",1559,"",0,0
"5f16c30d59ac784a401cb353",1,"Size U A","INFLATE","DISGUST","Study1","U","JOL_Large",5137,"68",3391,"",0,0
"5f189519b4fb2a0845d3633d",1,"Size U A","INFLATE","DISGUST","Study1","U","JOL_Small",4427,"15",2344,"",0,0
"5aa8ebf089de8200013f8c48",1,"Size U A","JUSTICE","MAROON","Study1","U","JOL_Large",8549,"0",4161,"sheriff",15.384615384615,0
"5b2c0de67297750001c794ab",1,"Size U A","JUSTICE","MAROON","Study1","U","JOL_Small",2157,"3",6219,"WINTER",16.666666666667,0
"5caa2f919f9fb8000185329b",1,"Size U A","JUSTICE","MAROON","Study1","U","JOL_Large",4400,"0",7914,"Criminal",28.571428571429,0
"5cbb39cb98560b0016678e5b",1,"Size U A","JUSTICE","MAROON","Study1","U","JOL_Large",4822,"25",7120,"Done",40,0
"5d77eb3007e8770001acdef8",1,"Size U A","JUSTICE","MAROON","Study1","U","JOL_Large",4379,"40",3523,"",0,0
"5e6a6066d2723d016a56e77f",1,"Size U A","JUSTICE","MAROON","Study1","U","JOL_Large",9562,"15",4504,"MAROON",100,100
"5e86516e2c33ae2829df3983",1,"Size U A","JUSTICE","MAROON","Study1","U","JOL_Small",2889,"12",2785,"",0,0
"5e891584cdbaa65a740e076d",1,"Size U A","JUSTICE","MAROON","Study1","U","JOL_Large",1980,"0",2773,"maroon",100,100
"5e928bc7b4f9c10eeee9217b",1,"Size U A","JUSTICE","MAROON","Study1","U","JOL_Large",5278,"74",5043,"Police",16.666666666667,0
"5ea04bf0549a55078a07eb5d",1,"Size U A","JUSTICE","MAROON","Study1","U","JOL_Large",2040,"20",3088,"sherif",16.666666666667,0
"5ea964a32f7b3304bb975a05",1,"Size U A","JUSTICE","MAROON","Study1","U","JOL_Large",3458,"30",12169,"judge",0,0
"5eb201f369cc97175a5a6490",1,"Size U A","JUSTICE","MAROON","Study1","U","JOL_Small",2231,"30",3728,"SKIP",0,0
"5ebfccc3903b333adb41bbd0",1,"Size U A","JUSTICE","MAROON","Study1","U","JOL_Small",10479,"0",11950,"",0,0
"5ec4363c0e821a30218c9a67",1,"Size U A","JUSTICE","MAROON","Study1","U","JOL_Small",2635,"0",9759,"Election",28.571428571429,0
"5efb789be4c8450e986ce093",1,"Size U A","JUSTICE","MAROON","Study1","U","JOL_Small",2619,"10",1994,"",0,0
"5f140ed5565000448d082e16",1,"Size U A","JUSTICE","MAROON","Study1","U","JOL_Large",6971,"20",14160,"Place",18.181818181818,0
"5f150c8fd0d9fa5978ccd1e6",1,"Size U A","JUSTICE","MAROON","Study1","U","JOL_Small",6250,"10",4426,"Maroon",100,100
"5f151a1c200b7911969aba6c",1,"Size U A","JUSTICE","MAROON","Study1","U","JOL_Small",9107,"45",14736,"LOVE",20,0
"5f16c30d59ac784a401cb353",1,"Size U A","JUSTICE","MAROON","Study1","U","JOL_Large",4962,"80",5185,"police",16.666666666667,0
"5f189519b4fb2a0845d3633d",1,"Size U A","JUSTICE","MAROON","Study1","U","JOL_Large",5639,"20",2263,"maroon",100,100
"5aa8ebf089de8200013f8c48",1,"Size U A","KEYS","JOKE","Study1","U","JOL_Large",6107,"10",5403,"joke",100,100
"5b2c0de67297750001c794ab",1,"Size U A","KEYS","JOKE","Study1","U","JOL_Small",1971,"3",4950,"HOUSE",44.444444444444,0
"5caa2f919f9fb8000185329b",1,"Size U A","KEYS","JOKE","Study1","U","JOL_Large",5138,"5",3651,"House",44.444444444444,0
"5cbb39cb98560b0016678e5b",1,"Size U A","KEYS","JOKE","Study1","U","JOL_Small",3479,"12",3190,"Take",50,0
"5d77eb3007e8770001acdef8",1,"Size U A","KEYS","JOKE","Study1","U","JOL_Small",2007,"40",1202,"",0,0
"5e6a6066d2723d016a56e77f",1,"Size U A","KEYS","JOKE","Study1","U","JOL_Large",4044,"10",877,"",0,0
"5e86516e2c33ae2829df3983",1,"Size U A","KEYS","JOKE","Study1","U","JOL_Large",4873,"35",5383,"CAR",0,0
"5e891584cdbaa65a740e076d",1,"Size U A","KEYS","JOKE","Study1","U","JOL_Large",2950,"5",4275,"joke",100,100
"5e928bc7b4f9c10eeee9217b",1,"Size U A","KEYS","JOKE","Study1","U","JOL_Small",2791,"6",412,"",0,0
"5ea04bf0549a55078a07eb5d",1,"Size U A","KEYS","JOKE","Study1","U","JOL_Small",1260,"40",2697,"home",50,0
"5ea964a32f7b3304bb975a05",1,"Size U A","KEYS","JOKE","Study1","U","JOL_Large",6902,"30",6319,"house",44.444444444444,0
"5eb201f369cc97175a5a6490",1,"Size U A","KEYS","JOKE","Study1","U","JOL_Small",2680,"50",2164,"SKIP",25,0
"5ebfccc3903b333adb41bbd0",1,"Size U A","KEYS","JOKE","Study1","U","JOL_Large",18050,"8",4839,"",0,0
"5ec4363c0e821a30218c9a67",1,"Size U A","KEYS","JOKE","Study1","U","JOL_Large",2932,"0",7306,"",0,0
"5efb789be4c8450e986ce093",1,"Size U A","KEYS","JOKE","Study1","U","JOL_Small",2589,"20",2795,"lock",50,0
"5f140ed5565000448d082e16",1,"Size U A","KEYS","JOKE","Study1","U","JOL_Small",6810,"10",12119,"Coin",25,0
"5f150c8fd0d9fa5978ccd1e6",1,"Size U A","KEYS","JOKE","Study1","U","JOL_Small",7247,"0",12648,"Charm",0,0
"5f151a1c200b7911969aba6c",1,"Size U A","KEYS","JOKE","Study1","U","JOL_Small",8526,"78",10230,"LOCK",50,0
"5f16c30d59ac784a401cb353",1,"Size U A","KEYS","JOKE","Study1","U","JOL_Small",8743,"60",8060,"lost",25,0
"5f189519b4fb2a0845d3633d",1,"Size U A","KEYS","JOKE","Study1","U","JOL_Large",3871,"5",1497,"",0,0
"5aa8ebf089de8200013f8c48",1,"Size U A","LEASE","TOIL","Study1","U","JOL_Small",6115,"5",7086,"",0,0
"5b2c0de67297750001c794ab",1,"Size U A","LEASE","TOIL","Study1","U","JOL_Small",2818,"23",2619,"HOLD",50,0
"5caa2f919f9fb8000185329b",1,"Size U A","LEASE","TOIL","Study1","U","JOL_Small",6464,"0",8093,"Loan ",25,0
"5cbb39cb98560b0016678e5b",1,"Size U A","LEASE","TOIL","Study1","U","JOL_Small",7077,"20",7555,"Take",25,0
"5d77eb3007e8770001acdef8",1,"Size U A","LEASE","TOIL","Study1","U","JOL_Small",2448,"0",740,"",0,0
"5e6a6066d2723d016a56e77f",1,"Size U A","LEASE","TOIL","Study1","U","JOL_Large",6269,"4",8937,"",0,0
"5e86516e2c33ae2829df3983",1,"Size U A","LEASE","TOIL","Study1","U","JOL_Large",4838,"57",1688,"",0,0
"5e891584cdbaa65a740e076d",1,"Size U A","LEASE","TOIL","Study1","U","JOL_Small",2165,"0",1825,"sign",25,0
"5e928bc7b4f9c10eeee9217b",1,"Size U A","LEASE","TOIL","Study1","U","JOL_Large",3439,"19",731,"",0,0
"5e928bc7b4f9c10eeee9217b",1,"Size U A","LEASE","TOIL","Study1","U","JOL_Small",2778,"1",4435,"House",22.222222222222,0
"5ea04bf0549a55078a07eb5d",1,"Size U A","LEASE","TOIL","Study1","U","JOL_Small",3961,"15",4188,"money",22.222222222222,0
"5ea964a32f7b3304bb975a05",1,"Size U A","LEASE","TOIL","Study1","U","JOL_Small",15425,"30",2346,"",0,0
"5eb201f369cc97175a5a6490",1,"Size U A","LEASE","TOIL","Study1","U","JOL_Large",2068,"10",3633,"SKIP",25,0
"5ebfccc3903b333adb41bbd0",1,"Size U A","LEASE","TOIL","Study1","U","JOL_Small",17134,"5",9272,"",0,0
"5ec4363c0e821a30218c9a67",1,"Size U A","LEASE","TOIL","Study1","U","JOL_Large",6328,"20",3713,"Rent",25,0
"5efb789be4c8450e986ce093",1,"Size U A","LEASE","TOIL","Study1","U","JOL_Small",2367,"10",1823,"",0,0
"5f140ed5565000448d082e16",1,"Size U A","LEASE","TOIL","Study1","U","JOL_Large",9912,"10",7641,"Fuzzy",0,0
"5f150c8fd0d9fa5978ccd1e6",1,"Size U A","LEASE","TOIL","Study1","U","JOL_Large",5229,"0",4201,"",0,0
"5f151a1c200b7911969aba6c",1,"Size U A","LEASE","TOIL","Study1","U","JOL_Large",4320,"4",5675,"HOUSE",22.222222222222,0
"5f16c30d59ac784a401cb353",1,"Size U A","LEASE","TOIL","Study1","U","JOL_Large",5749,"30",5223,"",0,0
"5f189519b4fb2a0845d3633d",1,"Size U A","LEASE","TOIL","Study1","U","JOL_Large",4412,"30",2734,"Loan",25,0
"5f189519b4fb2a0845d3633d",1,"Size U A","LEASE","TOIL","Study1","U","JOL_Small",4693,"5",1396,"",0,0
"5aa8ebf089de8200013f8c48",1,"Size U A","LISTEN","FICTION","Study1","U","JOL_Large",10985,"20",5318,"fiction",100,100
"5b2c0de67297750001c794ab",1,"Size U A","LISTEN","FICTION","Study1","U","JOL_Small",1016,"8",3457,"VOICE",33.333333333333,0
"5caa2f919f9fb8000185329b",1,"Size U A","LISTEN","FICTION","Study1","U","JOL_Small",6630,"10",3735,"Hear",0,0
"5cbb39cb98560b0016678e5b",1,"Size U A","LISTEN","FICTION","Study1","U","JOL_Small",5460,"37",4323,"Fiction",100,100
"5d77eb3007e8770001acdef8",1,"Size U A","LISTEN","FICTION","Study1","U","JOL_Small",2639,"0",817,"",0,0
"5e6a6066d2723d016a56e77f",1,"Size U A","LISTEN","FICTION","Study1","U","JOL_Small",4584,"8",3986,"",0,0
"5e86516e2c33ae2829df3983",1,"Size U A","LISTEN","FICTION","Study1","U","JOL_Large",6124,"67",1058,"",0,0
"5e891584cdbaa65a740e076d",1,"Size U A","LISTEN","FICTION","Study1","U","JOL_Small",2650,"40",3497,"",0,0
"5e928bc7b4f9c10eeee9217b",1,"Size U A","LISTEN","FICTION","Study1","U","JOL_Large",4050,"53",1470,"",0,0
"5ea04bf0549a55078a07eb5d",1,"Size U A","LISTEN","FICTION","Study1","U","JOL_Small",1937,"40",1968,"hear",0,0
"5ea964a32f7b3304bb975a05",1,"Size U A","LISTEN","FICTION","Study1","U","JOL_Small",3871,"20",6070,"ears",0,0
"5eb201f369cc97175a5a6490",1,"Size U A","LISTEN","FICTION","Study1","U","JOL_Large",3296,"40",7156,"LEARN",16.666666666667,0
"5ebfccc3903b333adb41bbd0",1,"Size U A","LISTEN","FICTION","Study1","U","JOL_Small",8721,"75",15781,"",0,0
"5ec4363c0e821a30218c9a67",1,"Size U A","LISTEN","FICTION","Study1","U","JOL_Large",2391,"10",1710,"",0,0
"5efb789be4c8450e986ce093",1,"Size U A","LISTEN","FICTION","Study1","U","JOL_Large",3641,"10",5543,"take",18.181818181818,0
"5f140ed5565000448d082e16",1,"Size U A","LISTEN","FICTION","Study1","U","JOL_Large",4357,"70",14673,"Lesson",30.769230769231,0
"5f150c8fd0d9fa5978ccd1e6",1,"Size U A","LISTEN","FICTION","Study1","U","JOL_Small",6076,"40",5807,"hear",0,0
"5f151a1c200b7911969aba6c",1,"Size U A","LISTEN","FICTION","Study1","U","JOL_Small",3875,"90",7116,"",0,0
"5f16c30d59ac784a401cb353",1,"Size U A","LISTEN","FICTION","Study1","U","JOL_Small",9317,"75",4169,"",0,0
"5f189519b4fb2a0845d3633d",1,"Size U A","LISTEN","FICTION","Study1","U","JOL_Small",6047,"18",2076,"",0,0
"5aa8ebf089de8200013f8c48",1,"Size U A","LOAN","SIGN","Study1","U","JOL_Small",9801,"60",4266,"sign",100,100
"5b2c0de67297750001c794ab",1,"Size U A","LOAN","SIGN","Study1","U","JOL_Small",851,"6",3899,"SHARK",22.222222222222,0
"5caa2f919f9fb8000185329b",1,"Size U A","LOAN","SIGN","Study1","U","JOL_Small",5838,"0",5136,"Tree",0,0
"5cbb39cb98560b0016678e5b",1,"Size U A","LOAN","SIGN","Study1","U","JOL_Large",5986,"88",9352,"Lease",22.222222222222,0
"5d77eb3007e8770001acdef8",1,"Size U A","LOAN","SIGN","Study1","U","JOL_Large",2005,"100",944,"",0,0
"5e6a6066d2723d016a56e77f",1,"Size U A","LOAN","SIGN","Study1","U","JOL_Small",4270,"4",1230,"",0,0
"5e86516e2c33ae2829df3983",1,"Size U A","LOAN","SIGN","Study1","U","JOL_Large",3574,"45",8299,"HARD",0,0
"5e891584cdbaa65a740e076d",1,"Size U A","LOAN","SIGN","Study1","U","JOL_Large",3202,"15",1714,"sign",100,100
"5e928bc7b4f9c10eeee9217b",1,"Size U A","LOAN","SIGN","Study1","U","JOL_Large",2774,"34",3030,"House",22.222222222222,0
"5ea04bf0549a55078a07eb5d",1,"Size U A","LOAN","SIGN","Study1","U","JOL_Small",1637,"20",2608,"help",0,0
"5ea964a32f7b3304bb975a05",1,"Size U A","LOAN","SIGN","Study1","U","JOL_Large",3165,"40",6496,"borrow",0,0
"5eb201f369cc97175a5a6490",1,"Size U A","LOAN","SIGN","Study1","U","JOL_Small",3350,"70",2823,"SKIP",50,0
"5ebfccc3903b333adb41bbd0",1,"Size U A","LOAN","SIGN","Study1","U","JOL_Small",6584,"2",7986,"",0,0
"5ec4363c0e821a30218c9a67",1,"Size U A","LOAN","SIGN","Study1","U","JOL_Large",6386,"70",5071,"Lease",22.222222222222,0
"5efb789be4c8450e986ce093",1,"Size U A","LOAN","SIGN","Study1","U","JOL_Large",3172,"20",2609,"",0,0
"5efb789be4c8450e986ce093",1,"Size U A","LOAN","SIGN","Study1","U","JOL_Small",2838,"10",777,"",0,0
"5f140ed5565000448d082e16",1,"Size U A","LOAN","SIGN","Study1","U","JOL_Large",10772,"30",4013,"Sign",100,100
"5f150c8fd0d9fa5978ccd1e6",1,"Size U A","LOAN","SIGN","Study1","U","JOL_Small",6751,"40",8700,"",0,0
"5f151a1c200b7911969aba6c",1,"Size U A","LOAN","SIGN","Study1","U","JOL_Large",3575,"10",12500,"LEASE",22.222222222222,0
"5f16c30d59ac784a401cb353",1,"Size U A","LOAN","SIGN","Study1","U","JOL_Small",6265,"35",8713,"house",22.222222222222,0
"5f189519b4fb2a0845d3633d",1,"Size U A","LOAN","SIGN","Study1","U","JOL_Large",3312,"5",3211,"",0,0
"5aa8ebf089de8200013f8c48",1,"Size U A","MAIN","SCAR","Study1","U","JOL_Small",6789,"10",1947,"",0,0
"5b2c0de67297750001c794ab",1,"Size U A","MAIN","SCAR","Study1","U","JOL_Large",1836,"3",2646,"MAN",28.571428571429,0
"5caa2f919f9fb8000185329b",1,"Size U A","MAIN","SCAR","Study1","U","JOL_Small",6883,"5",8034,"Street",40,0
"5cbb39cb98560b0016678e5b",1,"Size U A","MAIN","SCAR","Study1","U","JOL_Large",6058,"15",6305,"Course",40,0
"5d77eb3007e8770001acdef8",1,"Size U A","MAIN","SCAR","Study1","U","JOL_Large",1927,"40",2676,"SCAR",100,100
"5e6a6066d2723d016a56e77f",1,"Size U A","MAIN","SCAR","Study1","U","JOL_Large",6285,"23",1495,"",0,0
"5e86516e2c33ae2829df3983",1,"Size U A","MAIN","SCAR","Study1","U","JOL_Small",6455,"12",1637,"",0,0
"5e891584cdbaa65a740e076d",1,"Size U A","MAIN","SCAR","Study1","U","JOL_Small",2127,"0",1903,"scar",100,100
"5e928bc7b4f9c10eeee9217b",1,"Size U A","MAIN","SCAR","Study1","U","JOL_Large",3089,"40",986,"",0,0
"5ea04bf0549a55078a07eb5d",1,"Size U A","MAIN","SCAR","Study1","U","JOL_Small",3186,"40",2074,"one",0,0
"5ea964a32f7b3304bb975a05",1,"Size U A","MAIN","SCAR","Study1","U","JOL_Small",27494,"40",3974,"man",28.571428571429,0
"5eb201f369cc97175a5a6490",1,"Size U A","MAIN","SCAR","Study1","U","JOL_Large",2833,"60",4166,"COURSE",40,0
"5ebfccc3903b333adb41bbd0",1,"Size U A","MAIN","SCAR","Study1","U","JOL_Large",10226,"75",3920,"",0,0
"5ec4363c0e821a30218c9a67",1,"Size U A","MAIN","SCAR","Study1","U","JOL_Small",1777,"5",3486,"",0,0
"5efb789be4c8450e986ce093",1,"Size U A","MAIN","SCAR","Study1","U","JOL_Small",2826,"30",2689,"scar",100,100
"5f140ed5565000448d082e16",1,"Size U A","MAIN","SCAR","Study1","U","JOL_Large",6056,"50",13456,"Space",44.444444444444,0
"5f140ed5565000448d082e16",1,"Size U A","MAIN","SCAR","Study1","U","JOL_Small",5104,"40",7085,"Line",0,0
"5f150c8fd0d9fa5978ccd1e6",1,"Size U A","MAIN","SCAR","Study1","U","JOL_Large",4644,"0",3608,"",0,0
"5f151a1c200b7911969aba6c",1,"Size U A","MAIN","SCAR","Study1","U","JOL_Large",3832,"90",3957,"SLICE",44.444444444444,0
"5f16c30d59ac784a401cb353",1,"Size U A","MAIN","SCAR","Study1","U","JOL_Small",4711,"80",3415,"",0,0
"5f189519b4fb2a0845d3633d",1,"Size U A","MAIN","SCAR","Study1","U","JOL_Small",2682,"10",4240,"",0,0
"5aa8ebf089de8200013f8c48",1,"Size U A","MAZE","ELECTION","Study1","U","JOL_Large",9203,"10",4839,"election",100,100
"5b2c0de67297750001c794ab",1,"Size U A","MAZE","ELECTION","Study1","U","JOL_Large",972,"5",6553,"ERASE",30.769230769231,0
"5caa2f919f9fb8000185329b",1,"Size U A","MAZE","ELECTION","Study1","U","JOL_Large",6033,"0",10489,"Find ",33.333333333333,0
"5cbb39cb98560b0016678e5b",1,"Size U A","MAZE","ELECTION","Study1","U","JOL_Large",5913,"15",5683,"Election",100,100
"5d77eb3007e8770001acdef8",1,"Size U A","MAZE","ELECTION","Study1","U","JOL_Small",2243,"30",5970,"LURE",33.333333333333,0
"5e6a6066d2723d016a56e77f",1,"Size U A","MAZE","ELECTION","Study1","U","JOL_Large",6715,"20",3881,"ELECTION",100,100
"5e86516e2c33ae2829df3983",1,"Size U A","MAZE","ELECTION","Study1","U","JOL_Large",4261,"13",7254,"Politics",37.5,0
"5e891584cdbaa65a740e076d",1,"Size U A","MAZE","ELECTION","Study1","U","JOL_Large",2013,"0",2926,"election",100,100
"5e928bc7b4f9c10eeee9217b",1,"Size U A","MAZE","ELECTION","Study1","U","JOL_Small",2961,"12",839,"",0,0
"5ea04bf0549a55078a07eb5d",1,"Size U A","MAZE","ELECTION","Study1","U","JOL_Large",2300,"10",3555,"puzzle",28.571428571429,0
"5ea964a32f7b3304bb975a05",1,"Size U A","MAZE","ELECTION","Study1","U","JOL_Small",5513,"20",5025,"hide",16.666666666667,0
"5eb201f369cc97175a5a6490",1,"Size U A","MAZE","ELECTION","Study1","U","JOL_Small",2247,"50",2856,"SKIP",16.666666666667,0
"5ebfccc3903b333adb41bbd0",1,"Size U A","MAZE","ELECTION","Study1","U","JOL_Large",10679,"2",17164,"",0,0
"5ec4363c0e821a30218c9a67",1,"Size U A","MAZE","ELECTION","Study1","U","JOL_Large",5340,"15",6419,"Location",75,100
"5ec4363c0e821a30218c9a67",1,"Size U A","MAZE","ELECTION","Study1","U","JOL_Small",3493,"0",14479,"Missed",14.285714285714,0
"5efb789be4c8450e986ce093",1,"Size U A","MAZE","ELECTION","Study1","U","JOL_Small",2109,"10",1894,"",0,0
"5f140ed5565000448d082e16",1,"Size U A","MAZE","ELECTION","Study1","U","JOL_Large",6280,"40",4639,"Election",100,100
"5f150c8fd0d9fa5978ccd1e6",1,"Size U A","MAZE","ELECTION","Study1","U","JOL_Large",6180,"15",21264,"Elect? (I'm not sure)",48.275862068966,0
"5f151a1c200b7911969aba6c",1,"Size U A","MAZE","ELECTION","Study1","U","JOL_Large",4534,"35",4881,"ELECTION",100,100
"5f16c30d59ac784a401cb353",1,"Size U A","MAZE","ELECTION","Study1","U","JOL_Small",4702,"45",1888,"",0,0
"5f189519b4fb2a0845d3633d",1,"Size U A","MAZE","ELECTION","Study1","U","JOL_Small",4806,"25",9728,"Politics",37.5,0
"5aa8ebf089de8200013f8c48",1,"Size U A","MEAT","OBTAIN","Study1","U","JOL_Large",9017,"5",10119,"steak",36.363636363636,0
"5b2c0de67297750001c794ab",1,"Size U A","MEAT","OBTAIN","Study1","U","JOL_Large",2182,"2",9278,"TAXES",36.363636363636,0
"5caa2f919f9fb8000185329b",1,"Size U A","MEAT","OBTAIN","Study1","U","JOL_Large",7340,"1",6272,"Shake",18.181818181818,0
"5cbb39cb98560b0016678e5b",1,"Size U A","MEAT","OBTAIN","Study1","U","JOL_Large",3873,"5",5785,"Knife",18.181818181818,0
"5d77eb3007e8770001acdef8",1,"Size U A","MEAT","OBTAIN","Study1","U","JOL_Large",1631,"10",5094,"OBTAIN",100,100
"5e6a6066d2723d016a56e77f",1,"Size U A","MEAT","OBTAIN","Study1","U","JOL_Small",5107,"3",3474,"",0,0
"5e86516e2c33ae2829df3983",1,"Size U A","MEAT","OBTAIN","Study1","U","JOL_Small",6076,"34",28192,"FIND",40,0
"5e891584cdbaa65a740e076d",1,"Size U A","MEAT","OBTAIN","Study1","U","JOL_Large",5158,"10",3921,"obtain",100,100
"5e928bc7b4f9c10eeee9217b",1,"Size U A","MEAT","OBTAIN","Study1","U","JOL_Large",5676,"35",3402,"Steak",36.363636363636,0
"5ea04bf0549a55078a07eb5d",1,"Size U A","MEAT","OBTAIN","Study1","U","JOL_Small",1824,"10",2925,"loaf",40,0
"5ea964a32f7b3304bb975a05",1,"Size U A","MEAT","OBTAIN","Study1","U","JOL_Small",5683,"20",5331,"",0,0
"5eb201f369cc97175a5a6490",1,"Size U A","MEAT","OBTAIN","Study1","U","JOL_Small",2501,"40",4661,"SKIP",20,0
"5ebfccc3903b333adb41bbd0",1,"Size U A","MEAT","OBTAIN","Study1","U","JOL_Large",18324,"65",22534,"Gifted",16.666666666667,0
"5ec4363c0e821a30218c9a67",1,"Size U A","MEAT","OBTAIN","Study1","U","JOL_Small",2587,"10",12963,"Hunt",20,0
"5efb789be4c8450e986ce093",1,"Size U A","MEAT","OBTAIN","Study1","U","JOL_Large",2501,"20",4031,"free",0,0
"5f140ed5565000448d082e16",1,"Size U A","MEAT","OBTAIN","Study1","U","JOL_Large",6277,"70",4421,"Obtain",100,100
"5f150c8fd0d9fa5978ccd1e6",1,"Size U A","MEAT","OBTAIN","Study1","U","JOL_Large",8014,"10",5577,"",0,0
"5f151a1c200b7911969aba6c",1,"Size U A","MEAT","OBTAIN","Study1","U","JOL_Small",5337,"23",3492,"HEAD",20,0
"5f16c30d59ac784a401cb353",1,"Size U A","MEAT","OBTAIN","Study1","U","JOL_Small",7779,"70",5412,"",0,0
"5f189519b4fb2a0845d3633d",1,"Size U A","MEAT","OBTAIN","Study1","U","JOL_Large",2748,"40",4206,"",0,0
"5aa8ebf089de8200013f8c48",1,"Size U A","MIRROR","CHILDREN","Study1","U","JOL_Large",7951,"10",3599,"children",100,100
"5b2c0de67297750001c794ab",1,"Size U A","MIRROR","CHILDREN","Study1","U","JOL_Small",996,"8",4452,"CHILDREN",100,100
"5caa2f919f9fb8000185329b",1,"Size U A","MIRROR","CHILDREN","Study1","U","JOL_Small",6085,"14",4254,"Painting",25,0
"5cbb39cb98560b0016678e5b",1,"Size U A","MIRROR","CHILDREN","Study1","U","JOL_Large",4532,"25",3682,"Children",100,100
"5d77eb3007e8770001acdef8",1,"Size U A","MIRROR","CHILDREN","Study1","U","JOL_Large",2098,"10",2094,"CHILD",76.923076923077,0
"5e6a6066d2723d016a56e77f",1,"Size U A","MIRROR","CHILDREN","Study1","U","JOL_Small",6234,"30",3944,"CHILDREN",100,100
"5e86516e2c33ae2829df3983",1,"Size U A","MIRROR","CHILDREN","Study1","U","JOL_Small",6189,"14",4562,"Child",76.923076923077,0
"5e891584cdbaa65a740e076d",1,"Size U A","MIRROR","CHILDREN","Study1","U","JOL_Large",1610,"0",2315,"children",100,100
"5e928bc7b4f9c10eeee9217b",1,"Size U A","MIRROR","CHILDREN","Study1","U","JOL_Large",2054,"52",1045,"",0,0
"5ea04bf0549a55078a07eb5d",1,"Size U A","MIRROR","CHILDREN","Study1","U","JOL_Large",1528,"30",3066,"",0,0
"5ea964a32f7b3304bb975a05",1,"Size U A","MIRROR","CHILDREN","Study1","U","JOL_Large",3504,"30",10216,"man",18.181818181818,0
"5eb201f369cc97175a5a6490",1,"Size U A","MIRROR","CHILDREN","Study1","U","JOL_Large",2592,"70",2280,"SKIP",16.666666666667,0
"5ebfccc3903b333adb41bbd0",1,"Size U A","MIRROR","CHILDREN","Study1","U","JOL_Small",13757,"10",6411,"Children",100,100
"5ec4363c0e821a30218c9a67",1,"Size U A","MIRROR","CHILDREN","Study1","U","JOL_Small",4206,"10",6241,"Hate",33.333333333333,0
"5efb789be4c8450e986ce093",1,"Size U A","MIRROR","CHILDREN","Study1","U","JOL_Large",3264,"40",5999,"glass",15.384615384615,0
"5f140ed5565000448d082e16",1,"Size U A","MIRROR","CHILDREN","Study1","U","JOL_Small",5667,"60",3900,"Children",100,100
"5f150c8fd0d9fa5978ccd1e6",1,"Size U A","MIRROR","CHILDREN","Study1","U","JOL_Small",6136,"5",7003,"",0,0
"5f151a1c200b7911969aba6c",1,"Size U A","MIRROR","CHILDREN","Study1","U","JOL_Large",7276,"85",4544,"CHILDREN",100,100
"5f16c30d59ac784a401cb353",1,"Size U A","MIRROR","CHILDREN","Study1","U","JOL_Large",5406,"80",8016,"children",100,100
"5f189519b4fb2a0845d3633d",1,"Size U A","MIRROR","CHILDREN","Study1","U","JOL_Large",3204,"5",2625,"",0,0
"5aa8ebf089de8200013f8c48",1,"Size U A","MOAT","CLEAR","Study1","U","JOL_Large",10251,"10",6599,"maroon",36.363636363636,0
"5b2c0de67297750001c794ab",1,"Size U A","MOAT","CLEAR","Study1","U","JOL_Small",856,"6",4545,"CLOAK",60,0
"5caa2f919f9fb8000185329b",1,"Size U A","MOAT","CLEAR","Study1","U","JOL_Small",4556,"10",6076,"Ground",18.181818181818,0
"5cbb39cb98560b0016678e5b",1,"Size U A","MOAT","CLEAR","Study1","U","JOL_Large",4005,"45",2852,"Clear",100,100
"5cbb39cb98560b0016678e5b",1,"Size U A","MOAT","CLEAR","Study1","U","JOL_Small",2662,"70",2470,"clear",100,100
"5d77eb3007e8770001acdef8",1,"Size U A","MOAT","CLEAR","Study1","U","JOL_Large",1724,"20",884,"",0,0
"5e6a6066d2723d016a56e77f",1,"Size U A","MOAT","CLEAR","Study1","U","JOL_Small",6652,"25",2992,"CLEAR",100,100
"5e86516e2c33ae2829df3983",1,"Size U A","MOAT","CLEAR","Study1","U","JOL_Small",6736,"19",5758,"",0,0
"5e891584cdbaa65a740e076d",1,"Size U A","MOAT","CLEAR","Study1","U","JOL_Large",2551,"20",3123,"clear",100,100
"5e928bc7b4f9c10eeee9217b",1,"Size U A","MOAT","CLEAR","Study1","U","JOL_Small",4140,"34",967,"",0,0
"5ea04bf0549a55078a07eb5d",1,"Size U A","MOAT","CLEAR","Study1","U","JOL_Large",1541,"50",3532,"clear",100,100
"5ea964a32f7b3304bb975a05",1,"Size U A","MOAT","CLEAR","Study1","U","JOL_Small",18594,"30",7513,"boat",22.222222222222,0
"5eb201f369cc97175a5a6490",1,"Size U A","MOAT","CLEAR","Study1","U","JOL_Small",1586,"80",4094,"SKIP",0,0
"5ebfccc3903b333adb41bbd0",1,"Size U A","MOAT","CLEAR","Study1","U","JOL_Small",9859,"10",4617,"Clear",100,100
"5ec4363c0e821a30218c9a67",1,"Size U A","MOAT","CLEAR","Study1","U","JOL_Small",3062,"10",5124,"Jump",0,0
"5efb789be4c8450e986ce093",1,"Size U A","MOAT","CLEAR","Study1","U","JOL_Large",3486,"30",3544,"clear",100,100
"5f140ed5565000448d082e16",1,"Size U A","MOAT","CLEAR","Study1","U","JOL_Large",9933,"10",3414,"Empty",20,0
"5f150c8fd0d9fa5978ccd1e6",1,"Size U A","MOAT","CLEAR","Study1","U","JOL_Small",4011,"25",2463,"Clear",100,100
"5f151a1c200b7911969aba6c",1,"Size U A","MOAT","CLEAR","Study1","U","JOL_Small",4358,"85",23424,"EMPTY",20,0
"5f16c30d59ac784a401cb353",1,"Size U A","MOAT","CLEAR","Study1","U","JOL_Large",5159,"65",4389,"clear",100,100
"5f189519b4fb2a0845d3633d",1,"Size U A","MOAT","CLEAR","Study1","U","JOL_Large",5126,"3",3665,"Mirror",18.181818181818,0
"5aa8ebf089de8200013f8c48",1,"Size U A","NAME","HATE","Study1","U","JOL_Small",10015,"15",11769,"",0,0
"5b2c0de67297750001c794ab",1,"Size U A","NAME","HATE","Study1","U","JOL_Small",1869,"6",4891,"SIGN",0,0
"5caa2f919f9fb8000185329b",1,"Size U A","NAME","HATE","Study1","U","JOL_Large",6180,"30",6730,"Live",25,0
"5cbb39cb98560b0016678e5b",1,"Size U A","NAME","HATE","Study1","U","JOL_Large",3478,"55",2470,"Hate",100,100
"5d77eb3007e8770001acdef8",1,"Size U A","NAME","HATE","Study1","U","JOL_Small",1392,"10",2650,"",0,0
"5e6a6066d2723d016a56e77f",1,"Size U A","NAME","HATE","Study1","U","JOL_Large",6496,"20",2055,"",0,0
"5e86516e2c33ae2829df3983",1,"Size U A","NAME","HATE","Study1","U","JOL_Large",5983,"55",5788,"Word",0,0
"5e891584cdbaa65a740e076d",1,"Size U A","NAME","HATE","Study1","U","JOL_Small",2247,"0",2511,"",0,0
"5e928bc7b4f9c10eeee9217b",1,"Size U A","NAME","HATE","Study1","U","JOL_Small",4298,"41",1373,"",0,0
"5ea04bf0549a55078a07eb5d",1,"Size U A","NAME","HATE","Study1","U","JOL_Large",2319,"20",4129,"age",57.142857142857,0
"5ea964a32f7b3304bb975a05",1,"Size U A","NAME","HATE","Study1","U","JOL_Small",3521,"20",7989,"",0,0
"5eb201f369cc97175a5a6490",1,"Size U A","NAME","HATE","Study1","U","JOL_Small",3677,"80",4132,"SKIP",0,0
"5ebfccc3903b333adb41bbd0",1,"Size U A","NAME","HATE","Study1","U","JOL_Large",7487,"15",10325,"Hate",100,100
"5ec4363c0e821a30218c9a67",1,"Size U A","NAME","HATE","Study1","U","JOL_Small",2869,"95",3871,"",0,0
"5efb789be4c8450e986ce093",1,"Size U A","NAME","HATE","Study1","U","JOL_Small",2770,"30",1135,"",0,0
"5f140ed5565000448d082e16",1,"Size U A","NAME","HATE","Study1","U","JOL_Small",5699,"50",11637,"Space",44.444444444444,0
"5f150c8fd0d9fa5978ccd1e6",1,"Size U A","NAME","HATE","Study1","U","JOL_Small",6664,"15",3145,"Hate",100,100
"5f151a1c200b7911969aba6c",1,"Size U A","NAME","HATE","Study1","U","JOL_Small",4740,"65",10246,"MIDDLE",20,0
"5f16c30d59ac784a401cb353",1,"Size U A","NAME","HATE","Study1","U","JOL_Small",11335,"70",3905,"hate",100,100
"5f189519b4fb2a0845d3633d",1,"Size U A","NAME","HATE","Study1","U","JOL_Large",3850,"20",2351,"Take",50,100
"5aa8ebf089de8200013f8c48",1,"Size U A","NUMBER","HARD","Study1","U","JOL_Small",7909,"15",6090,"",0,0
"5b2c0de67297750001c794ab",1,"Size U A","NUMBER","HARD","Study1","U","JOL_Large",1117,"5",3358,"HOW",28.571428571429,0
"5caa2f919f9fb8000185329b",1,"Size U A","NUMBER","HARD","Study1","U","JOL_Large",4941,"30",4616,"Letter",20,0
"5cbb39cb98560b0016678e5b",1,"Size U A","NUMBER","HARD","Study1","U","JOL_Small",6756,"30",2729,"Hard",100,100
"5d77eb3007e8770001acdef8",1,"Size U A","NUMBER","HARD","Study1","U","JOL_Small",1451,"0",1338,"",0,0
"5e6a6066d2723d016a56e77f",1,"Size U A","NUMBER","HARD","Study1","U","JOL_Large",6089,"17",2780,"HARD",100,100
"5e86516e2c33ae2829df3983",1,"Size U A","NUMBER","HARD","Study1","U","JOL_Large",3374,"56",3413,"",0,0
"5e891584cdbaa65a740e076d",1,"Size U A","NUMBER","HARD","Study1","U","JOL_Small",2215,"40",2232,"hard",100,100
"5e928bc7b4f9c10eeee9217b",1,"Size U A","NUMBER","HARD","Study1","U","JOL_Large",2602,"64",2642,"",0,0
"5ea04bf0549a55078a07eb5d",1,"Size U A","NUMBER","HARD","Study1","U","JOL_Large",2619,"80",3716,"letter",20,0
"5ea964a32f7b3304bb975a05",1,"Size U A","NUMBER","HARD","Study1","U","JOL_Large",2947,"30",13562,"ten",0,0
"5eb201f369cc97175a5a6490",1,"Size U A","NUMBER","HARD","Study1","U","JOL_Small",2284,"60",8547,"SKIP",0,0
"5ebfccc3903b333adb41bbd0",1,"Size U A","NUMBER","HARD","Study1","U","JOL_Large",12424,"68",6850,"Hard",100,100
"5ebfccc3903b333adb41bbd0",1,"Size U A","NUMBER","HARD","Study1","U","JOL_Small",10265,"78",4989,"Hard",100,100
"5ec4363c0e821a30218c9a67",1,"Size U A","NUMBER","HARD","Study1","U","JOL_Large",3037,"85",7616,"",0,0
"5efb789be4c8450e986ce093",1,"Size U A","NUMBER","HARD","Study1","U","JOL_Large",3098,"50",3952,"one",0,0
"5f140ed5565000448d082e16",1,"Size U A","NUMBER","HARD","Study1","U","JOL_Small",4287,"50",18528,"Line",0,0
"5f150c8fd0d9fa5978ccd1e6",1,"Size U A","NUMBER","HARD","Study1","U","JOL_Large",7812,"15",1808,"hard",100,100
"5f151a1c200b7911969aba6c",1,"Size U A","NUMBER","HARD","Study1","U","JOL_Large",2980,"90",1865,"",0,0
"5f16c30d59ac784a401cb353",1,"Size U A","NUMBER","HARD","Study1","U","JOL_Large",5306,"70",3427,"",0,0
"5f189519b4fb2a0845d3633d",1,"Size U A","NUMBER","HARD","Study1","U","JOL_Small",5213,"15",2726,"",0,0
"5aa8ebf089de8200013f8c48",1,"Size U A","PARCEL","THROAT","Study1","U","JOL_Small",6531,"5",2155,"",0,0
"5b2c0de67297750001c794ab",1,"Size U A","PARCEL","THROAT","Study1","U","JOL_Large",1094,"4",5236,"FORCE",18.181818181818,0
"5caa2f919f9fb8000185329b",1,"Size U A","PARCEL","THROAT","Study1","U","JOL_Large",12201,"15",6583,"Find",0,0
"5cbb39cb98560b0016678e5b",1,"Size U A","PARCEL","THROAT","Study1","U","JOL_Large",3654,"30",3098,"Throat",100,100
"5d77eb3007e8770001acdef8",1,"Size U A","PARCEL","THROAT","Study1","U","JOL_Small",1963,"0",2899,"THROAT",100,100
"5e6a6066d2723d016a56e77f",1,"Size U A","PARCEL","THROAT","Study1","U","JOL_Small",6612,"15",2656,"THROAT",100,100
"5e86516e2c33ae2829df3983",1,"Size U A","PARCEL","THROAT","Study1","U","JOL_Small",2998,"24",1710,"",0,0
"5e891584cdbaa65a740e076d",1,"Size U A","PARCEL","THROAT","Study1","U","JOL_Small",2248,"0",2282,"",0,0
"5e928bc7b4f9c10eeee9217b",1,"Size U A","PARCEL","THROAT","Study1","U","JOL_Large",2627,"56",1473,"",0,0
"5ea04bf0549a55078a07eb5d",1,"Size U A","PARCEL","THROAT","Study1","U","JOL_Large",2000,"30",4425,"package",15.384615384615,0
"5ea964a32f7b3304bb975a05",1,"Size U A","PARCEL","THROAT","Study1","U","JOL_Large",4895,"20",5923,"post",40,0
"5eb201f369cc97175a5a6490",1,"Size U A","PARCEL","THROAT","Study1","U","JOL_Large",4687,"30",2296,"SKIP",0,0
"5ebfccc3903b333adb41bbd0",1,"Size U A","PARCEL","THROAT","Study1","U","JOL_Small",6626,"2",5480,"",0,0
"5ec4363c0e821a30218c9a67",1,"Size U A","PARCEL","THROAT","Study1","U","JOL_Large",3106,"10",4011,"",0,0
"5efb789be4c8450e986ce093",1,"Size U A","PARCEL","THROAT","Study1","U","JOL_Small",3339,"20",2443,"",0,0
"5f140ed5565000448d082e16",1,"Size U A","PARCEL","THROAT","Study1","U","JOL_Small",6528,"20",9565,"Hard",40,0
"5f150c8fd0d9fa5978ccd1e6",1,"Size U A","PARCEL","THROAT","Study1","U","JOL_Large",4177,"0",4901,"",0,0
"5f151a1c200b7911969aba6c",1,"Size U A","PARCEL","THROAT","Study1","U","JOL_Small",4196,"10",5285,"MAIL",20,0
"5f16c30d59ac784a401cb353",1,"Size U A","PARCEL","THROAT","Study1","U","JOL_Small",10738,"30",2271,"",0,0
"5f189519b4fb2a0845d3633d",1,"Size U A","PARCEL","THROAT","Study1","U","JOL_Small",4503,"14",1282,"",0,0
"5aa8ebf089de8200013f8c48",1,"Size U A","PET","MOON","Study1","U","JOL_Small",10477,"20",5137,"moon",100,100
"5b2c0de67297750001c794ab",1,"Size U A","PET","MOON","Study1","U","JOL_Large",916,"9",3624,"PEEVE",0,0
"5caa2f919f9fb8000185329b",1,"Size U A","PET","MOON","Study1","U","JOL_Large",8455,"17",5084,"Dog",28.571428571429,0
"5cbb39cb98560b0016678e5b",1,"Size U A","PET","MOON","Study1","U","JOL_Large",3423,"50",3086,"Moon",100,100
"5d77eb3007e8770001acdef8",1,"Size U A","PET","MOON","Study1","U","JOL_Large",2518,"8",3110,"",0,0
"5e6a6066d2723d016a56e77f",1,"Size U A","PET","MOON","Study1","U","JOL_Large",6169,"3",876,"",0,0
"5e86516e2c33ae2829df3983",1,"Size U A","PET","MOON","Study1","U","JOL_Small",4062,"23",4042,"rock",25,0
"5e891584cdbaa65a740e076d",1,"Size U A","PET","MOON","Study1","U","JOL_Small",1606,"0",2112,"",0,0
"5e928bc7b4f9c10eeee9217b",1,"Size U A","PET","MOON","Study1","U","JOL_Small",3172,"52",3076,"God",28.571428571429,0
"5ea04bf0549a55078a07eb5d",1,"Size U A","PET","MOON","Study1","U","JOL_Small",3094,"50",2537,"dog",28.571428571429,0
"5ea964a32f7b3304bb975a05",1,"Size U A","PET","MOON","Study1","U","JOL_Small",3846,"20",5478,"cat",0,0
"5eb201f369cc97175a5a6490",1,"Size U A","PET","MOON","Study1","U","JOL_Small",2575,"70",5166,"DONKEY",40,0
"5ebfccc3903b333adb41bbd0",1,"Size U A","PET","MOON","Study1","U","JOL_Small",11787,"2",4114,"Moon",100,100
"5ec4363c0e821a30218c9a67",1,"Size U A","PET","MOON","Study1","U","JOL_Small",2622,"15",4990,"Cat",0,0
"5efb789be4c8450e986ce093",1,"Size U A","PET","MOON","Study1","U","JOL_Large",2950,"20",3317,"moon",100,100
"5f140ed5565000448d082e16",1,"Size U A","PET","MOON","Study1","U","JOL_Small",8806,"20",11293,"Loan",50,0
"5f150c8fd0d9fa5978ccd1e6",1,"Size U A","PET","MOON","Study1","U","JOL_Small",6113,"0",3078,"Moon",100,100
"5f151a1c200b7911969aba6c",1,"Size U A","PET","MOON","Study1","U","JOL_Small",3293,"90",9492,"",0,0
"5f16c30d59ac784a401cb353",1,"Size U A","PET","MOON","Study1","U","JOL_Small",7485,"60",2299,"",0,0
"5f189519b4fb2a0845d3633d",1,"Size U A","PET","MOON","Study1","U","JOL_Large",3201,"30",6654,"",0,0
"5aa8ebf089de8200013f8c48",1,"Size U A","RESIST","GLUE","Study1","U","JOL_Small",9123,"15",1577,"",0,0
"5b2c0de67297750001c794ab",1,"Size U A","RESIST","GLUE","Study1","U","JOL_Large",3159,"21",21910,"FORCE",22.222222222222,0
"5caa2f919f9fb8000185329b",1,"Size U A","RESIST","GLUE","Study1","U","JOL_Small",6175,"5",5872,"Look",25,0
"5cbb39cb98560b0016678e5b",1,"Size U A","RESIST","GLUE","Study1","U","JOL_Small",7202,"10",3804,"Urge",50,100
"5d77eb3007e8770001acdef8",1,"Size U A","RESIST","GLUE","Study1","U","JOL_Large",3214,"30",3941,"HEAVY",22.222222222222,0
"5e6a6066d2723d016a56e77f",1,"Size U A","RESIST","GLUE","Study1","U","JOL_Large",6502,"40",6274,"",0,0
"5e86516e2c33ae2829df3983",1,"Size U A","RESIST","GLUE","Study1","U","JOL_Small",5490,"68",4365,"",0,0
"5e891584cdbaa65a740e076d",1,"Size U A","RESIST","GLUE","Study1","U","JOL_Large",3677,"0",3813,"glue",100,100
"5e928bc7b4f9c10eeee9217b",1,"Size U A","RESIST","GLUE","Study1","U","JOL_Small",1775,"24",712,"",0,0
"5ea04bf0549a55078a07eb5d",1,"Size U A","RESIST","GLUE","Study1","U","JOL_Small",3275,"30",2552,"purge",44.444444444444,0
"5ea964a32f7b3304bb975a05",1,"Size U A","RESIST","GLUE","Study1","U","JOL_Small",3064,"20",3098,"",0,0
"5eb201f369cc97175a5a6490",1,"Size U A","RESIST","GLUE","Study1","U","JOL_Large",1852,"70",4435,"HESITATE",16.666666666667,0
"5ebfccc3903b333adb41bbd0",1,"Size U A","RESIST","GLUE","Study1","U","JOL_Large",8097,"65",4146,"",0,0
"5ec4363c0e821a30218c9a67",1,"Size U A","RESIST","GLUE","Study1","U","JOL_Large",3163,"45",9745,"Restrain",16.666666666667,0
"5efb789be4c8450e986ce093",1,"Size U A","RESIST","GLUE","Study1","U","JOL_Small",3715,"10",1511,"",0,0
"5f140ed5565000448d082e16",1,"Size U A","RESIST","GLUE","Study1","U","JOL_Small",7447,"40",5853,"Glue",100,100
"5f150c8fd0d9fa5978ccd1e6",1,"Size U A","RESIST","GLUE","Study1","U","JOL_Small",7292,"30",3303,"",0,0
"5f151a1c200b7911969aba6c",1,"Size U A","RESIST","GLUE","Study1","U","JOL_Large",4334,"80",4680,"",0,0
"5f16c30d59ac784a401cb353",1,"Size U A","RESIST","GLUE","Study1","U","JOL_Large",6756,"50",3096,"",0,0
"5f189519b4fb2a0845d3633d",1,"Size U A","RESIST","GLUE","Study1","U","JOL_Small",3496,"50",2404,"Take",25,0
"5aa8ebf089de8200013f8c48",1,"Size U A","RIPE","VERIFY","Study1","U","JOL_Large",3803,"5",3155,"",0,0
"5b2c0de67297750001c794ab",1,"Size U A","RIPE","VERIFY","Study1","U","JOL_Large",1436,"7",4610,"SAT",0,0
"5b2c0de67297750001c794ab",1,"Size U A","RIPE","VERIFY","Study1","U","JOL_Small",746,"3",3611,"BANANA",0,0
"5caa2f919f9fb8000185329b",1,"Size U A","RIPE","VERIFY","Study1","U","JOL_Large",3747,"0",6328,"Fruit ",18.181818181818,0
"5cbb39cb98560b0016678e5b",1,"Size U A","RIPE","VERIFY","Study1","U","JOL_Large",5741,"2",5997,"Develop",30.769230769231,0
"5d77eb3007e8770001acdef8",1,"Size U A","RIPE","VERIFY","Study1","U","JOL_Small",1927,"50",6912,"Variety",61.538461538462,0
"5e6a6066d2723d016a56e77f",1,"Size U A","RIPE","VERIFY","Study1","U","JOL_Small",4725,"10",12120,"BERRY",54.545454545455,0
"5e86516e2c33ae2829df3983",1,"Size U A","RIPE","VERIFY","Study1","U","JOL_Large",8939,"34",4815,"",0,0
"5e891584cdbaa65a740e076d",1,"Size U A","RIPE","VERIFY","Study1","U","JOL_Small",2167,"0",3553,"verify",100,100
"5e928bc7b4f9c10eeee9217b",1,"Size U A","RIPE","VERIFY","Study1","U","JOL_Small",4389,"20",1007,"",0,0
"5ea04bf0549a55078a07eb5d",1,"Size U A","RIPE","VERIFY","Study1","U","JOL_Small",2745,"6",2264,"fruit",18.181818181818,0
"5ea964a32f7b3304bb975a05",1,"Size U A","RIPE","VERIFY","Study1","U","JOL_Large",6622,"30",6589,"fruit",18.181818181818,0
"5eb201f369cc97175a5a6490",1,"Size U A","RIPE","VERIFY","Study1","U","JOL_Small",3544,"12",2784,"SKIP",20,0
"5ebfccc3903b333adb41bbd0",1,"Size U A","RIPE","VERIFY","Study1","U","JOL_Large",5024,"1",5266,"",0,0
"5ec4363c0e821a30218c9a67",1,"Size U A","RIPE","VERIFY","Study1","U","JOL_Small",3504,"5",1951,"",0,0
"5efb789be4c8450e986ce093",1,"Size U A","RIPE","VERIFY","Study1","U","JOL_Small",2960,"10",3224,"banana",0,0
"5f140ed5565000448d082e16",1,"Size U A","RIPE","VERIFY","Study1","U","JOL_Small",4131,"70",19639,"Check",18.181818181818,0
"5f150c8fd0d9fa5978ccd1e6",1,"Size U A","RIPE","VERIFY","Study1","U","JOL_Small",7206,"5",4631,"",0,0
"5f151a1c200b7911969aba6c",1,"Size U A","RIPE","VERIFY","Study1","U","JOL_Large",15865,"20",1946,"",0,0
"5f151a1c200b7911969aba6c",1,"Size U A","RIPE","VERIFY","Study1","U","JOL_Small",8809,"25",5981,"FRUIT",18.181818181818,0
"5f16c30d59ac784a401cb353",1,"Size U A","RIPE","VERIFY","Study1","U","JOL_Small",6340,"70",5259,"verify",100,100
"5f189519b4fb2a0845d3633d",1,"Size U A","RIPE","VERIFY","Study1","U","JOL_Small",7654,"5",7804,"Steak",18.181818181818,0
"5aa8ebf089de8200013f8c48",1,"Size U A","ROSE","NEGLECT","Study1","U","JOL_Small",7164,"15",13011,"neglect",100,100
"5b2c0de67297750001c794ab",1,"Size U A","ROSE","NEGLECT","Study1","U","JOL_Large",2415,"3",5623,"CROWN",16.666666666667,0
"5caa2f919f9fb8000185329b",1,"Size U A","ROSE","NEGLECT","Study1","U","JOL_Small",4601,"0",8246,"Tree",18.181818181818,0
"5cbb39cb98560b0016678e5b",1,"Size U A","ROSE","NEGLECT","Study1","U","JOL_Large",5097,"45",7439,"Tend",18.181818181818,0
"5d77eb3007e8770001acdef8",1,"Size U A","ROSE","NEGLECT","Study1","U","JOL_Small",2263,"30",2842,"Neglect",100,100
"5e6a6066d2723d016a56e77f",1,"Size U A","ROSE","NEGLECT","Study1","U","JOL_Large",4946,"2",3617,"NEGLECT",100,100
"5e86516e2c33ae2829df3983",1,"Size U A","ROSE","NEGLECT","Study1","U","JOL_Small",2487,"22",4984,"BUD",0,0
"5e891584cdbaa65a740e076d",1,"Size U A","ROSE","NEGLECT","Study1","U","JOL_Large",3856,"15",4086,"neglect",100,100
"5e928bc7b4f9c10eeee9217b",1,"Size U A","ROSE","NEGLECT","Study1","U","JOL_Large",2061,"43",4347,"Flower",30.769230769231,0
"5ea04bf0549a55078a07eb5d",1,"Size U A","ROSE","NEGLECT","Study1","U","JOL_Small",1967,"10",3786,"loney",33.333333333333,0
"5ea964a32f7b3304bb975a05",1,"Size U A","ROSE","NEGLECT","Study1","U","JOL_Large",3227,"30",4696,"petal",33.333333333333,0
"5eb201f369cc97175a5a6490",1,"Size U A","ROSE","NEGLECT","Study1","U","JOL_Small",2231,"33",3110,"SKIP",0,0
"5ebfccc3903b333adb41bbd0",1,"Size U A","ROSE","NEGLECT","Study1","U","JOL_Large",12358,"15",8420,"Neglect",100,100
"5ec4363c0e821a30218c9a67",1,"Size U A","ROSE","NEGLECT","Study1","U","JOL_Small",4337,"75",4124,"",0,0
"5efb789be4c8450e986ce093",1,"Size U A","ROSE","NEGLECT","Study1","U","JOL_Small",2534,"20",7142,"neglected",87.5,100
"5f140ed5565000448d082e16",1,"Size U A","ROSE","NEGLECT","Study1","U","JOL_Large",3828,"50",12101,"Neglected",87.5,100
"5f150c8fd0d9fa5978ccd1e6",1,"Size U A","ROSE","NEGLECT","Study1","U","JOL_Large",4210,"0",3119,"",0,0
"5f150c8fd0d9fa5978ccd1e6",1,"Size U A","ROSE","NEGLECT","Study1","U","JOL_Small",4283,"0",3635,"null",36.363636363636,0
"5f151a1c200b7911969aba6c",1,"Size U A","ROSE","NEGLECT","Study1","U","JOL_Small",3230,"15",5786,"THORN",16.666666666667,0
"5f16c30d59ac784a401cb353",1,"Size U A","ROSE","NEGLECT","Study1","U","JOL_Small",10981,"45",17335,"care",18.181818181818,0
"5f189519b4fb2a0845d3633d",1,"Size U A","ROSE","NEGLECT","Study1","U","JOL_Large",5997,"4",1512,"",0,0
"5aa8ebf089de8200013f8c48",1,"Size U A","SHELL","SHAKE","Study1","U","JOL_Small",5448,"10",8450,"",0,0
"5b2c0de67297750001c794ab",1,"Size U A","SHELL","SHAKE","Study1","U","JOL_Small",776,"8",3569,"SHOCK",60,0
"5caa2f919f9fb8000185329b",1,"Size U A","SHELL","SHAKE","Study1","U","JOL_Large",4625,"15",5356,"Sea",50,0
"5cbb39cb98560b0016678e5b",1,"Size U A","SHELL","SHAKE","Study1","U","JOL_Large",5138,"78",5745,"Shake",100,100
"5d77eb3007e8770001acdef8",1,"Size U A","SHELL","SHAKE","Study1","U","JOL_Small",2583,"20",3242,"SNAKE",80,100
"5e6a6066d2723d016a56e77f",1,"Size U A","SHELL","SHAKE","Study1","U","JOL_Large",5658,"20",2163,"SNAKE",80,100
"5e86516e2c33ae2829df3983",1,"Size U A","SHELL","SHAKE","Study1","U","JOL_Small",8319,"35",6158,"idk",25,0
"5e891584cdbaa65a740e076d",1,"Size U A","SHELL","SHAKE","Study1","U","JOL_Small",1974,"0",1989,"shake",100,100
"5e928bc7b4f9c10eeee9217b",1,"Size U A","SHELL","SHAKE","Study1","U","JOL_Large",4919,"42",5947,"",0,0
"5ea04bf0549a55078a07eb5d",1,"Size U A","SHELL","SHAKE","Study1","U","JOL_Small",3291,"20",1783,"shake",100,100
"5ea964a32f7b3304bb975a05",1,"Size U A","SHELL","SHAKE","Study1","U","JOL_Large",2945,"30",5850,"sea",50,0
"5ea964a32f7b3304bb975a05",1,"Size U A","SHELL","SHAKE","Study1","U","JOL_Small",7895,"20",28625,"fish",44.444444444444,0
"5eb201f369cc97175a5a6490",1,"Size U A","SHELL","SHAKE","Study1","U","JOL_Large",2253,"40",2194,"SKIP",44.444444444444,0
"5ebfccc3903b333adb41bbd0",1,"Size U A","SHELL","SHAKE","Study1","U","JOL_Small",16044,"50",15495,"Scared",54.545454545455,0
"5ec4363c0e821a30218c9a67",1,"Size U A","SHELL","SHAKE","Study1","U","JOL_Large",5125,"45",7987,"Shelf",60,0
"5efb789be4c8450e986ce093",1,"Size U A","SHELL","SHAKE","Study1","U","JOL_Large",5638,"20",3925,"shake",100,100
"5f140ed5565000448d082e16",1,"Size U A","SHELL","SHAKE","Study1","U","JOL_Large",7841,"60",8377,"Share",80,100
"5f150c8fd0d9fa5978ccd1e6",1,"Size U A","SHELL","SHAKE","Study1","U","JOL_Small",5134,"0",6857,"",0,0
"5f151a1c200b7911969aba6c",1,"Size U A","SHELL","SHAKE","Study1","U","JOL_Small",3387,"90",4828,"SHAKES",90.909090909091,100
"5f16c30d59ac784a401cb353",1,"Size U A","SHELL","SHAKE","Study1","U","JOL_Small",4496,"50",4483,"shake",100,100
"5f189519b4fb2a0845d3633d",1,"Size U A","SHELL","SHAKE","Study1","U","JOL_Large",3556,"30",18285,"shake",100,100
"5aa8ebf089de8200013f8c48",1,"Size U A","STRESS","YAM","Study1","U","JOL_Small",5752,"10",9643,"",0,0
"5b2c0de67297750001c794ab",1,"Size U A","STRESS","YAM","Study1","U","JOL_Large",1071,"6",2651,"TEST",0,0
"5caa2f919f9fb8000185329b",1,"Size U A","STRESS","YAM","Study1","U","JOL_Large",3961,"5",6874,"Rebel",0,0
"5cbb39cb98560b0016678e5b",1,"Size U A","STRESS","YAM","Study1","U","JOL_Small",2612,"5",6804,"Pain",28.571428571429,0
"5d77eb3007e8770001acdef8",1,"Size U A","STRESS","YAM","Study1","U","JOL_Large",5038,"80",4255,"JAM",66.666666666667,0
"5e6a6066d2723d016a56e77f",1,"Size U A","STRESS","YAM","Study1","U","JOL_Small",4874,"4",921,"",0,0
"5e86516e2c33ae2829df3983",1,"Size U A","STRESS","YAM","Study1","U","JOL_Large",5158,"12",2890,"",0,0
"5e891584cdbaa65a740e076d",1,"Size U A","STRESS","YAM","Study1","U","JOL_Small",3555,"0",3175,"",0,0
"5e928bc7b4f9c10eeee9217b",1,"Size U A","STRESS","YAM","Study1","U","JOL_Large",3293,"32",1023,"",0,0
"5ea04bf0549a55078a07eb5d",1,"Size U A","STRESS","YAM","Study1","U","JOL_Large",2034,"0",4474,"pressure",0,0
"5ea964a32f7b3304bb975a05",1,"Size U A","STRESS","YAM","Study1","U","JOL_Small",12416,"30",10110,"relief",0,0
"5eb201f369cc97175a5a6490",1,"Size U A","STRESS","YAM","Study1","U","JOL_Large",2564,"10",3234,"SKIP",0,0
"5ebfccc3903b333adb41bbd0",1,"Size U A","STRESS","YAM","Study1","U","JOL_Large",15702,"3",6650,"",0,0
"5ec4363c0e821a30218c9a67",1,"Size U A","STRESS","YAM","Study1","U","JOL_Small",2565,"10",3054,"",0,0
"5efb789be4c8450e986ce093",1,"Size U A","STRESS","YAM","Study1","U","JOL_Large",2805,"20",10894,"moon",28.571428571429,0
"5f140ed5565000448d082e16",1,"Size U A","STRESS","YAM","Study1","U","JOL_Small",7404,"30",4297,"Yam",100,100
"5f150c8fd0d9fa5978ccd1e6",1,"Size U A","STRESS","YAM","Study1","U","JOL_Small",3117,"0",5908,"",0,0
"5f151a1c200b7911969aba6c",1,"Size U A","STRESS","YAM","Study1","U","JOL_Small",6431,"25",3577,"SCHOOL",0,0
"5f16c30d59ac784a401cb353",1,"Size U A","STRESS","YAM","Study1","U","JOL_Small",12855,"63",5409,"yam",100,100
"5f189519b4fb2a0845d3633d",1,"Size U A","STRESS","YAM","Study1","U","JOL_Large",2708,"40",1470,"",0,0
"5aa8ebf089de8200013f8c48",1,"Size U A","STRETCH","CLOTH","Study1","U","JOL_Small",9383,"40",9062,"clothes",83.333333333333,0
"5b2c0de67297750001c794ab",1,"Size U A","STRETCH","CLOTH","Study1","U","JOL_Small",888,"6",4963,"REST",22.222222222222,0
"5caa2f919f9fb8000185329b",1,"Size U A","STRETCH","CLOTH","Study1","U","JOL_Large",3988,"0",5173,"Sweater",16.666666666667,0
"5cbb39cb98560b0016678e5b",1,"Size U A","STRETCH","CLOTH","Study1","U","JOL_Small",4719,"85",5170,"Cloth",100,100
"5d77eb3007e8770001acdef8",1,"Size U A","STRETCH","CLOTH","Study1","U","JOL_Large",3216,"50",1372,"",0,0
"5e6a6066d2723d016a56e77f",1,"Size U A","STRETCH","CLOTH","Study1","U","JOL_Large",5907,"70",4075,"SHIRT",20,0
"5e86516e2c33ae2829df3983",1,"Size U A","STRETCH","CLOTH","Study1","U","JOL_Large",4110,"67",13066,"BACK",22.222222222222,0
"5e86516e2c33ae2829df3983",1,"Size U A","STRETCH","CLOTH","Study1","U","JOL_Small",6108,"45",4965,"CLOTH",100,100
"5e891584cdbaa65a740e076d",1,"Size U A","STRETCH","CLOTH","Study1","U","JOL_Large",3271,"30",1951,"cloth",100,100
"5e928bc7b4f9c10eeee9217b",1,"Size U A","STRETCH","CLOTH","Study1","U","JOL_Small",2646,"14",1134,"",0,0
"5ea04bf0549a55078a07eb5d",1,"Size U A","STRETCH","CLOTH","Study1","U","JOL_Large",5359,"90",3539,"long",44.444444444444,0
"5ea964a32f7b3304bb975a05",1,"Size U A","STRETCH","CLOTH","Study1","U","JOL_Large",9937,"50",5592,"long",44.444444444444,0
"5eb201f369cc97175a5a6490",1,"Size U A","STRETCH","CLOTH","Study1","U","JOL_Small",2373,"30",5387,"SKIP",0,0
"5ebfccc3903b333adb41bbd0",1,"Size U A","STRETCH","CLOTH","Study1","U","JOL_Small",9074,"55",2188,"",0,0
"5ec4363c0e821a30218c9a67",1,"Size U A","STRETCH","CLOTH","Study1","U","JOL_Small",5499,"70",3657,"",0,0
"5efb789be4c8450e986ce093",1,"Size U A","STRETCH","CLOTH","Study1","U","JOL_Large",6590,"30",3939,"pull",22.222222222222,0
"5f140ed5565000448d082e16",1,"Size U A","STRETCH","CLOTH","Study1","U","JOL_Large",3894,"90",8383,"Cloth",100,100
"5f150c8fd0d9fa5978ccd1e6",1,"Size U A","STRETCH","CLOTH","Study1","U","JOL_Large",13565,"20",3669,"Cloth",100,100
"5f151a1c200b7911969aba6c",1,"Size U A","STRETCH","CLOTH","Study1","U","JOL_Large",8086,"80",4644,"CLOTH",100,100
"5f16c30d59ac784a401cb353",1,"Size U A","STRETCH","CLOTH","Study1","U","JOL_Large",6630,"70",2119,"",0,0
"5f189519b4fb2a0845d3633d",1,"Size U A","STRETCH","CLOTH","Study1","U","JOL_Large",7192,"40",1846,"",0,0
"5aa8ebf089de8200013f8c48",1,"Size U A","TAX","OWL","Study1","U","JOL_Large",8770,"10",5012,"owl",100,100
"5b2c0de67297750001c794ab",1,"Size U A","TAX","OWL","Study1","U","JOL_Large",966,"7",7881,"TACO",28.571428571429,0
"5caa2f919f9fb8000185329b",1,"Size U A","TAX","OWL","Study1","U","JOL_Small",5405,"5",7483,"Refund",0,0
"5cbb39cb98560b0016678e5b",1,"Size U A","TAX","OWL","Study1","U","JOL_Large",3171,"10",6817,"Pay",0,0
"5d77eb3007e8770001acdef8",1,"Size U A","TAX","OWL","Study1","U","JOL_Small",3552,"60",1728,"OWL",100,100
"5e6a6066d2723d016a56e77f",1,"Size U A","TAX","OWL","Study1","U","JOL_Large",5222,"50",2676,"OWL",100,100
"5e86516e2c33ae2829df3983",1,"Size U A","TAX","OWL","Study1","U","JOL_Small",4498,"22",4088,"DOCUMENT",18.181818181818,0
"5e891584cdbaa65a740e076d",1,"Size U A","TAX","OWL","Study1","U","JOL_Small",4086,"0",1604,"",0,0
"5e928bc7b4f9c10eeee9217b",1,"Size U A","TAX","OWL","Study1","U","JOL_Small",2387,"65",3596,"",0,0
"5ea04bf0549a55078a07eb5d",1,"Size U A","TAX","OWL","Study1","U","JOL_Small",3401,"60",3089,"fund",0,0
"5ea964a32f7b3304bb975a05",1,"Size U A","TAX","OWL","Study1","U","JOL_Large",7207,"40",2745,"",0,0
"5eb201f369cc97175a5a6490",1,"Size U A","TAX","OWL","Study1","U","JOL_Large",3330,"70",2763,"SKIP",0,0
"5ebfccc3903b333adb41bbd0",1,"Size U A","TAX","OWL","Study1","U","JOL_Large",18730,"98",4767,"Owl",100,100
"5ec4363c0e821a30218c9a67",1,"Size U A","TAX","OWL","Study1","U","JOL_Large",3302,"0",4663,"",0,0
"5efb789be4c8450e986ce093",1,"Size U A","TAX","OWL","Study1","U","JOL_Small",3245,"10",7510,"money",25,0
"5f140ed5565000448d082e16",1,"Size U A","TAX","OWL","Study1","U","JOL_Small",5928,"60",6596,"Loan",28.571428571429,0
"5f150c8fd0d9fa5978ccd1e6",1,"Size U A","TAX","OWL","Study1","U","JOL_Large",3360,"0",4804,"",0,0
"5f151a1c200b7911969aba6c",1,"Size U A","TAX","OWL","Study1","U","JOL_Large",8882,"10",4726,"",0,0
"5f16c30d59ac784a401cb353",1,"Size U A","TAX","OWL","Study1","U","JOL_Small",4503,"50",5982,"owl",100,100
"5f189519b4fb2a0845d3633d",1,"Size U A","TAX","OWL","Study1","U","JOL_Large",4461,"10",1662,"",0,0
"5aa8ebf089de8200013f8c48",1,"Size U A","TEMPERATURE","MORNING","Study1","U","JOL_Large",10670,"65",8679,"morning",100,100
"5b2c0de67297750001c794ab",1,"Size U A","TEMPERATURE","MORNING","Study1","U","JOL_Small",583,"8",7821,"MORNING",100,100
"5caa2f919f9fb8000185329b",1,"Size U A","TEMPERATURE","MORNING","Study1","U","JOL_Large",6661,"5",5904,"Weather",14.285714285714,0
"5caa2f919f9fb8000185329b",1,"Size U A","TEMPERATURE","MORNING","Study1","U","JOL_Small",5090,"7",4382,"Hot",20,0
"5cbb39cb98560b0016678e5b",1,"Size U A","TEMPERATURE","MORNING","Study1","U","JOL_Large",4488,"75",4483,"Morning",100,100
"5d77eb3007e8770001acdef8",1,"Size U A","TEMPERATURE","MORNING","Study1","U","JOL_Large",6307,"20",6359,"",0,0
"5e6a6066d2723d016a56e77f",1,"Size U A","TEMPERATURE","MORNING","Study1","U","JOL_Small",7522,"40",3788,"MORNING",100,100
"5e86516e2c33ae2829df3983",1,"Size U A","TEMPERATURE","MORNING","Study1","U","JOL_Small",7170,"12",15820,"",0,0
"5e891584cdbaa65a740e076d",1,"Size U A","TEMPERATURE","MORNING","Study1","U","JOL_Large",3307,"15",2750,"morning",100,100
"5e928bc7b4f9c10eeee9217b",1,"Size U A","TEMPERATURE","MORNING","Study1","U","JOL_Small",1703,"52",2710,"Hot",20,0
"5ea04bf0549a55078a07eb5d",1,"Size U A","TEMPERATURE","MORNING","Study1","U","JOL_Large",2156,"40",3326,"morning",100,100
"5ea964a32f7b3304bb975a05",1,"Size U A","TEMPERATURE","MORNING","Study1","U","JOL_Large",11856,"30",24024,"",0,0
"5eb201f369cc97175a5a6490",1,"Size U A","TEMPERATURE","MORNING","Study1","U","JOL_Small",2353,"80",16745,"SKIP",18.181818181818,0
"5ebfccc3903b333adb41bbd0",1,"Size U A","TEMPERATURE","MORNING","Study1","U","JOL_Small",9053,"5",3730,"",0,0
"5ec4363c0e821a30218c9a67",1,"Size U A","TEMPERATURE","MORNING","Study1","U","JOL_Large",4132,"95",4006,"Morning",100,100
"5efb789be4c8450e986ce093",1,"Size U A","TEMPERATURE","MORNING","Study1","U","JOL_Large",4520,"20",3932,"hot",20,0
"5f140ed5565000448d082e16",1,"Size U A","TEMPERATURE","MORNING","Study1","U","JOL_Small",5354,"60",3777,"Morning",100,100
"5f150c8fd0d9fa5978ccd1e6",1,"Size U A","TEMPERATURE","MORNING","Study1","U","JOL_Large",6425,"60",1909,"morning",100,100
"5f151a1c200b7911969aba6c",1,"Size U A","TEMPERATURE","MORNING","Study1","U","JOL_Small",4858,"90",4295,"MORNING",100,100
"5f16c30d59ac784a401cb353",1,"Size U A","TEMPERATURE","MORNING","Study1","U","JOL_Large",13359,"70",3520,"",0,0
"5f189519b4fb2a0845d3633d",1,"Size U A","TEMPERATURE","MORNING","Study1","U","JOL_Large",8274,"32",2244,"morning",100,100
"5aa8ebf089de8200013f8c48",1,"Size U A","THICK","CONTEST","Study1","U","JOL_Large",4765,"5",14453,"",0,0
"5b2c0de67297750001c794ab",1,"Size U A","THICK","CONTEST","Study1","U","JOL_Small",1643,"9",5290,"OAT",40,0
"5caa2f919f9fb8000185329b",1,"Size U A","THICK","CONTEST","Study1","U","JOL_Small",7521,"2",3619,"Tree",36.363636363636,0
"5cbb39cb98560b0016678e5b",1,"Size U A","THICK","CONTEST","Study1","U","JOL_Small",5341,"40",5184,"Product",28.571428571429,0
"5d77eb3007e8770001acdef8",1,"Size U A","THICK","CONTEST","Study1","U","JOL_Large",1723,"0",1260,"",0,0
"5e6a6066d2723d016a56e77f",1,"Size U A","THICK","CONTEST","Study1","U","JOL_Small",4800,"10",2352,"",0,0
"5e86516e2c33ae2829df3983",1,"Size U A","THICK","CONTEST","Study1","U","JOL_Large",5753,"23",14003,"",0,0
"5e891584cdbaa65a740e076d",1,"Size U A","THICK","CONTEST","Study1","U","JOL_Large",2974,"5",2387,"contest",100,100
"5e928bc7b4f9c10eeee9217b",1,"Size U A","THICK","CONTEST","Study1","U","JOL_Large",3651,"45",2249,"",0,0
"5ea04bf0549a55078a07eb5d",1,"Size U A","THICK","CONTEST","Study1","U","JOL_Large",1822,"30",1658,"thin",18.181818181818,0
"5ea964a32f7b3304bb975a05",1,"Size U A","THICK","CONTEST","Study1","U","JOL_Small",3700,"20",5666,"thin",18.181818181818,0
"5eb201f369cc97175a5a6490",1,"Size U A","THICK","CONTEST","Study1","U","JOL_Large",2538,"30",2570,"SKIP",18.181818181818,0
"5ebfccc3903b333adb41bbd0",1,"Size U A","THICK","CONTEST","Study1","U","JOL_Small",8724,"15",14261,"",0,0
"5ec4363c0e821a30218c9a67",1,"Size U A","THICK","CONTEST","Study1","U","JOL_Large",6688,"35",7641,"",0,0
"5efb789be4c8450e986ce093",1,"Size U A","THICK","CONTEST","Study1","U","JOL_Large",4238,"10",5715,"jam",0,0
"5f140ed5565000448d082e16",1,"Size U A","THICK","CONTEST","Study1","U","JOL_Large",10076,"20",9704,"Place",33.333333333333,0
"5f150c8fd0d9fa5978ccd1e6",1,"Size U A","THICK","CONTEST","Study1","U","JOL_Large",5014,"0",4162,"",0,0
"5f151a1c200b7911969aba6c",1,"Size U A","THICK","CONTEST","Study1","U","JOL_Large",4096,"85",5196,"CONTEST",100,100
"5f16c30d59ac784a401cb353",1,"Size U A","THICK","CONTEST","Study1","U","JOL_Small",9947,"45",4064,"",0,0
"5f189519b4fb2a0845d3633d",1,"Size U A","THICK","CONTEST","Study1","U","JOL_Large",5179,"70",5856,"Beef",18.181818181818,0
"5aa8ebf089de8200013f8c48",1,"Size U A","VEHICLE","CHARM","Study1","U","JOL_Large",6955,"10",17128,"",0,0
"5b2c0de67297750001c794ab",1,"Size U A","VEHICLE","CHARM","Study1","U","JOL_Large",1442,"5",4182,"STOP",0,0
"5caa2f919f9fb8000185329b",1,"Size U A","VEHICLE","CHARM","Study1","U","JOL_Large",5817,"17",4280,"Drive",20,0
"5cbb39cb98560b0016678e5b",1,"Size U A","VEHICLE","CHARM","Study1","U","JOL_Small",6447,"55",4030,"Charm",100,100
"5d77eb3007e8770001acdef8",1,"Size U A","VEHICLE","CHARM","Study1","U","JOL_Small",1994,"20",776,"",0,0
"5e6a6066d2723d016a56e77f",1,"Size U A","VEHICLE","CHARM","Study1","U","JOL_Small",5627,"20",3057,"",0,0
"5e86516e2c33ae2829df3983",1,"Size U A","VEHICLE","CHARM","Study1","U","JOL_Small",5089,"22",9579,"",0,0
"5e891584cdbaa65a740e076d",1,"Size U A","VEHICLE","CHARM","Study1","U","JOL_Small",2793,"0",4786,"",0,0
"5e928bc7b4f9c10eeee9217b",1,"Size U A","VEHICLE","CHARM","Study1","U","JOL_Small",7969,"80",2628,"Car",75,0
"5ea04bf0549a55078a07eb5d",1,"Size U A","VEHICLE","CHARM","Study1","U","JOL_Small",2160,"1",2641,"car",75,0
"5ea964a32f7b3304bb975a05",1,"Size U A","VEHICLE","CHARM","Study1","U","JOL_Small",8304,"20",3630,"car",75,0
"5eb201f369cc97175a5a6490",1,"Size U A","VEHICLE","CHARM","Study1","U","JOL_Large",3059,"50",2423,"SKIP",0,0
"5ebfccc3903b333adb41bbd0",1,"Size U A","VEHICLE","CHARM","Study1","U","JOL_Small",8914,"0",3653,"",0,0
"5ec4363c0e821a30218c9a67",1,"Size U A","VEHICLE","CHARM","Study1","U","JOL_Large",2478,"0",13793,"Registration",11.764705882353,0
"5efb789be4c8450e986ce093",1,"Size U A","VEHICLE","CHARM","Study1","U","JOL_Small",2833,"10",1869,"",0,0
"5f140ed5565000448d082e16",1,"Size U A","VEHICLE","CHARM","Study1","U","JOL_Small",4629,"20",8638,"Sign",0,0
"5f150c8fd0d9fa5978ccd1e6",1,"Size U A","VEHICLE","CHARM","Study1","U","JOL_Small",8061,"10",7737,"Car",75,0
"5f151a1c200b7911969aba6c",1,"Size U A","VEHICLE","CHARM","Study1","U","JOL_Small",5222,"5",3723,"",0,0
"5f16c30d59ac784a401cb353",1,"Size U A","VEHICLE","CHARM","Study1","U","JOL_Large",6929,"60",2058,"",0,0
"5f189519b4fb2a0845d3633d",1,"Size U A","VEHICLE","CHARM","Study1","U","JOL_Small",4452,"5",4489,"Drive",20,0
"5aa8ebf089de8200013f8c48",1,"Size U A","WARN","SEA","Study1","U","JOL_Large",7005,"15",4533,"",0,0
"5b2c0de67297750001c794ab",1,"Size U A","WARN","SEA","Study1","U","JOL_Small",2749,"2",3262,"SIGN",28.571428571429,0
"5caa2f919f9fb8000185329b",1,"Size U A","WARN","SEA","Study1","U","JOL_Large",6253,"5",6730,"Bill",0,0
"5cbb39cb98560b0016678e5b",1,"Size U A","WARN","SEA","Study1","U","JOL_Small",3930,"40",2770,"Sea",100,100
"5d77eb3007e8770001acdef8",1,"Size U A","WARN","SEA","Study1","U","JOL_Large",2836,"30",1116,"",0,0
"5e6a6066d2723d016a56e77f",1,"Size U A","WARN","SEA","Study1","U","JOL_Small",3772,"2",1092,"",0,0
"5e86516e2c33ae2829df3983",1,"Size U A","WARN","SEA","Study1","U","JOL_Small",4376,"34",11132,"TEMPERATURE",28.571428571429,0
"5e891584cdbaa65a740e076d",1,"Size U A","WARN","SEA","Study1","U","JOL_Large",4139,"5",2208,"",0,0
"5e928bc7b4f9c10eeee9217b",1,"Size U A","WARN","SEA","Study1","U","JOL_Small",3112,"15",3379,"Stop",28.571428571429,0
"5ea04bf0549a55078a07eb5d",1,"Size U A","WARN","SEA","Study1","U","JOL_Large",2915,"1",3322,"",0,0
"5ea964a32f7b3304bb975a05",1,"Size U A","WARN","SEA","Study1","U","JOL_Large",21028,"50",3413,"",0,0
"5eb201f369cc97175a5a6490",1,"Size U A","WARN","SEA","Study1","U","JOL_Large",2549,"70",1753,"SKIP",28.571428571429,0
"5ebfccc3903b333adb41bbd0",1,"Size U A","WARN","SEA","Study1","U","JOL_Large",7945,"55",7296,"Sea",100,100
"5ec4363c0e821a30218c9a67",1,"Size U A","WARN","SEA","Study1","U","JOL_Large",4360,"55",1744,"",0,0
"5efb789be4c8450e986ce093",1,"Size U A","WARN","SEA","Study1","U","JOL_Large",3402,"30",10027,"red",33.333333333333,0
"5f140ed5565000448d082e16",1,"Size U A","WARN","SEA","Study1","U","JOL_Large",12310,"30",10107,"Room",0,0
"5f150c8fd0d9fa5978ccd1e6",1,"Size U A","WARN","SEA","Study1","U","JOL_Small",5709,"30",7079,"",0,0
"5f151a1c200b7911969aba6c",1,"Size U A","WARN","SEA","Study1","U","JOL_Small",4890,"60",18140,"LOAN",28.571428571429,0
"5f16c30d59ac784a401cb353",1,"Size U A","WARN","SEA","Study1","U","JOL_Large",3625,"70",1418,"",0,0
"5f189519b4fb2a0845d3633d",1,"Size U A","WARN","SEA","Study1","U","JOL_Small",5579,"47",4288,"Sea",100,100
"5654b05004212700104a1d46",2,"Size U B","BAT","SHAKY","Study1","U","JOL_Small",6059,"30",4515,"shaky",100,100
"5b1b75312767e20001e506ec",2,"Size U B","BAT","SHAKY","Study1","U","JOL_Large",2397,"33",8976,"Boom",0,0
"5bba1b6b8f3bd70001e6be3a",2,"Size U B","BAT","SHAKY","Study1","U","JOL_Small",3739,"5",7027,"space",40,0
"5c8ebaed13e167000176428f",2,"Size U B","BAT","SHAKY","Study1","U","JOL_Small",7272,"30",11379,"detect",0,0
"5e1858ff2bf95113513e63c6",2,"Size U B","BAT","SHAKY","Study1","U","JOL_Small",3095,"5",9474,"string",18.181818181818,0
"5e2d94d8ed8c8a3887580acb",2,"Size U B","BAT","SHAKY","Study1","U","JOL_Large",2607,"0",6223,"Ball",22.222222222222,0
"5e3f330085854c1969377142",2,"Size U B","BAT","SHAKY","Study1","U","JOL_Small",6712,"2",6015,"dizzy",20,0
"5e6449ae5932461d728d2152",2,"Size U B","BAT","SHAKY","Study1","U","JOL_Small",8878,"65",6156,"shaky",100,100
"5e67d165cbb37e037909c20f",2,"Size U B","BAT","SHAKY","Study1","U","JOL_Large",5507,"24",10305,"Wobble",0,0
"5e7e846a89a21d55d5e77411",2,"Size U B","BAT","SHAKY","Study1","U","JOL_Small",7398,"25",18308,"boat",22.222222222222,0
"5e90fcfc764e960b545749c3",2,"Size U B","BAT","SHAKY","Study1","U","JOL_Large",3991,"19",10945,"",0,0
"5e919b73429c2b4cf72b765f",2,"Size U B","BAT","SHAKY","Study1","U","JOL_Large",18325,"30",4228,"",0,0
"5ea0552202b8bd000a2c129a",2,"Size U B","BAT","SHAKY","Study1","U","JOL_Small",2282,"10",2644,"shake",80,100
"5ec95a3fdafc5445f27e0b61",2,"Size U B","BAT","SHAKY","Study1","U","JOL_Large",1269,"0",1810,"hat",50,0
"5ed981e9976efc518bc84a5c",2,"Size U B","BAT","SHAKY","Study1","U","JOL_Small",7227,"0",2885,"Shake",80,100
"5ee0e7d360122c4662e0e623",2,"Size U B","BAT","SHAKY","Study1","U","JOL_Large",4705,"0",9553,"",0,0
"5eed3ee1ddae2c160f750f31",2,"Size U B","BAT","SHAKY","Study1","U","JOL_Small",1640,"10",1363,"shaky",100,100
"5f11a41ab0fa8703823032f6",2,"Size U B","BAT","SHAKY","Study1","U","JOL_Small",823,"50",2644,"behind",18.181818181818,0
"5f131fde1d332a2fc9e09d80",2,"Size U B","BAT","SHAKY","Study1","U","JOL_Large",8281,"20",4784,"",0,0
"5f175535a8e1d70af0751405",2,"Size U B","BAT","SHAKY","Study1","U","JOL_Small",2601,"16",2864,"man",25,0
"5654b05004212700104a1d46",2,"Size U B","BOTH","OUNCE","Study1","U","JOL_Large",3603,"20",32938,"booth",20,0
"5b1b75312767e20001e506ec",2,"Size U B","BOTH","OUNCE","Study1","U","JOL_Large",2247,"22",5143,"Same",22.222222222222,0
"5bba1b6b8f3bd70001e6be3a",2,"Size U B","BOTH","OUNCE","Study1","U","JOL_Small",3184,"1",4957,"two",25,0
"5c8ebaed13e167000176428f",2,"Size U B","BOTH","OUNCE","Study1","U","JOL_Small",2993,"2",3123,"",0,0
"5e1858ff2bf95113513e63c6",2,"Size U B","BOTH","OUNCE","Study1","U","JOL_Large",4190,"3",14809,"twins",20,0
"5e2d94d8ed8c8a3887580acb",2,"Size U B","BOTH","OUNCE","Study1","U","JOL_Small",5213,"1",2864,"0",0,0
"5e3f330085854c1969377142",2,"Size U B","BOTH","OUNCE","Study1","U","JOL_Large",2193,"0",2198,"",0,0
"5e6449ae5932461d728d2152",2,"Size U B","BOTH","OUNCE","Study1","U","JOL_Large",8990,"65",4709,"",0,0
"5e67d165cbb37e037909c20f",2,"Size U B","BOTH","OUNCE","Study1","U","JOL_Large",3678,"0",1150,"",0,0
"5e7e846a89a21d55d5e77411",2,"Size U B","BOTH","OUNCE","Study1","U","JOL_Small",11074,"40",8737,"ounce",100,100
"5e90fcfc764e960b545749c3",2,"Size U B","BOTH","OUNCE","Study1","U","JOL_Large",4313,"5",1122,"",0,0
"5e919b73429c2b4cf72b765f",2,"Size U B","BOTH","OUNCE","Study1","U","JOL_Large",13500,"20",8054,"",0,0
"5ea0552202b8bd000a2c129a",2,"Size U B","BOTH","OUNCE","Study1","U","JOL_Large",5308,"10",3034,"hard",0,0
"5ec95a3fdafc5445f27e0b61",2,"Size U B","BOTH","OUNCE","Study1","U","JOL_Small",1431,"0",1670,"no",28.571428571429,0
"5ed981e9976efc518bc84a5c",2,"Size U B","BOTH","OUNCE","Study1","U","JOL_Large",4526,"20",3922,"Paire",20,0
"5ee0e7d360122c4662e0e623",2,"Size U B","BOTH","OUNCE","Study1","U","JOL_Large",5468,"10",6039,"",0,0
"5eed3ee1ddae2c160f750f31",2,"Size U B","BOTH","OUNCE","Study1","U","JOL_Large",2139,"20",1969,"ounce",100,100
"5f11a41ab0fa8703823032f6",2,"Size U B","BOTH","OUNCE","Study1","U","JOL_Large",1018,"30",12023,"owl",25,0
"5f131fde1d332a2fc9e09d80",2,"Size U B","BOTH","OUNCE","Study1","U","JOL_Small",4915,"0",5941,"Twp",0,0
"5f175535a8e1d70af0751405",2,"Size U B","BOTH","OUNCE","Study1","U","JOL_Small",2837,"14",2179,"neither",33.333333333333,0
"5654b05004212700104a1d46",2,"Size U B","BROAD","INFECT","Study1","U","JOL_Small",4410,"30",3931,"wide",40,0
"5b1b75312767e20001e506ec",2,"Size U B","BROAD","INFECT","Study1","U","JOL_Large",2338,"33",6109,"Daylight",28.571428571429,0
"5bba1b6b8f3bd70001e6be3a",2,"Size U B","BROAD","INFECT","Study1","U","JOL_Small",3255,"1",3802,"wide",40,0
"5c8ebaed13e167000176428f",2,"Size U B","BROAD","INFECT","Study1","U","JOL_Small",4002,"10",1231,"",0,0
"5e1858ff2bf95113513e63c6",2,"Size U B","BROAD","INFECT","Study1","U","JOL_Small",3861,"2",5713,"straight",14.285714285714,0
"5e2d94d8ed8c8a3887580acb",2,"Size U B","BROAD","INFECT","Study1","U","JOL_Small",2640,"0",9841,"Band",20,0
"5e3f330085854c1969377142",2,"Size U B","BROAD","INFECT","Study1","U","JOL_Small",3491,"3",3755,"",0,0
"5e6449ae5932461d728d2152",2,"Size U B","BROAD","INFECT","Study1","U","JOL_Large",8222,"70",12731,"infect",100,100
"5e67d165cbb37e037909c20f",2,"Size U B","BROAD","INFECT","Study1","U","JOL_Small",5033,"50",2363,"",0,0
"5e7e846a89a21d55d5e77411",2,"Size U B","BROAD","INFECT","Study1","U","JOL_Large",9950,"25",2362,"day",0,0
"5e90fcfc764e960b545749c3",2,"Size U B","BROAD","INFECT","Study1","U","JOL_Small",4372,"2",2310,"",0,0
"5e919b73429c2b4cf72b765f",2,"Size U B","BROAD","INFECT","Study1","U","JOL_Large",14776,"40",1441,"",0,0
"5ea0552202b8bd000a2c129a",2,"Size U B","BROAD","INFECT","Study1","U","JOL_Large",13563,"10",4558,"",0,0
"5ec95a3fdafc5445f27e0b61",2,"Size U B","BROAD","INFECT","Study1","U","JOL_Small",967,NA,2243,"fukk",20,0
"5ed981e9976efc518bc84a5c",2,"Size U B","BROAD","INFECT","Study1","U","JOL_Small",6476,"0",3984,"",0,0
"5ee0e7d360122c4662e0e623",2,"Size U B","BROAD","INFECT","Study1","U","JOL_Large",5012,"0",4289,"",0,0
"5eed3ee1ddae2c160f750f31",2,"Size U B","BROAD","INFECT","Study1","U","JOL_Large",3157,"30",5032,"infect",100,100
"5f11a41ab0fa8703823032f6",2,"Size U B","BROAD","INFECT","Study1","U","JOL_Large",954,"30",3980,"bean",20,0
"5f131fde1d332a2fc9e09d80",2,"Size U B","BROAD","INFECT","Study1","U","JOL_Small",6902,"60",3249,"",0,0
"5f175535a8e1d70af0751405",2,"Size U B","BROAD","INFECT","Study1","U","JOL_Small",1959,"12",4890,"sense",18.181818181818,0
"5654b05004212700104a1d46",2,"Size U B","CAKE","CLOTHES","Study1","U","JOL_Large",5160,"40",6989,"pie",20,0
"5b1b75312767e20001e506ec",2,"Size U B","CAKE","CLOTHES","Study1","U","JOL_Small",2335,"22",9154,"Take",36.363636363636,0
"5bba1b6b8f3bd70001e6be3a",2,"Size U B","CAKE","CLOTHES","Study1","U","JOL_Large",5646,"2",4550,"sweet",16.666666666667,0
"5c8ebaed13e167000176428f",2,"Size U B","CAKE","CLOTHES","Study1","U","JOL_Small",7399,"10",2953,"clothes",100,100
"5e1858ff2bf95113513e63c6",2,"Size U B","CAKE","CLOTHES","Study1","U","JOL_Large",2208,"3",7343,"clothes",100,100
"5e2d94d8ed8c8a3887580acb",2,"Size U B","CAKE","CLOTHES","Study1","U","JOL_Large",2133,"0",3100,"0",0,0
"5e3f330085854c1969377142",2,"Size U B","CAKE","CLOTHES","Study1","U","JOL_Small",1685,"0",2354,"",0,0
"5e6449ae5932461d728d2152",2,"Size U B","CAKE","CLOTHES","Study1","U","JOL_Small",14019,"35",9015,"clothes",100,100
"5e67d165cbb37e037909c20f",2,"Size U B","CAKE","CLOTHES","Study1","U","JOL_Large",3930,"20",1520,"",0,0
"5e7e846a89a21d55d5e77411",2,"Size U B","CAKE","CLOTHES","Study1","U","JOL_Small",8127,"45",7581,"cook",36.363636363636,0
"5e90fcfc764e960b545749c3",2,"Size U B","CAKE","CLOTHES","Study1","U","JOL_Small",23752,"4",8835,"Easy",36.363636363636,0
"5e919b73429c2b4cf72b765f",2,"Size U B","CAKE","CLOTHES","Study1","U","JOL_Large",15955,"5",2953,"",0,0
"5ea0552202b8bd000a2c129a",2,"Size U B","CAKE","CLOTHES","Study1","U","JOL_Small",2487,"20",10904,"cookie",46.153846153846,0
"5ea0552202b8bd000a2c129a",2,"Size U B","CAKE","CLOTHES","Study1","U","JOL_Large",4832,"5",3076,"clothes",100,100
"5ec95a3fdafc5445f27e0b61",2,"Size U B","CAKE","CLOTHES","Study1","U","JOL_Large",1706,"0",272,"",0,0
"5ed981e9976efc518bc84a5c",2,"Size U B","CAKE","CLOTHES","Study1","U","JOL_Small",5700,"20",2544,"Pop",20,0
"5ee0e7d360122c4662e0e623",2,"Size U B","CAKE","CLOTHES","Study1","U","JOL_Large",5616,"10",4565,"",0,0
"5eed3ee1ddae2c160f750f31",2,"Size U B","CAKE","CLOTHES","Study1","U","JOL_Small",1502,"10",2208,"clothes",100,100
"5f11a41ab0fa8703823032f6",2,"Size U B","CAKE","CLOTHES","Study1","U","JOL_Large",1283,"60",3584,"yank",0,0
"5f131fde1d332a2fc9e09d80",2,"Size U B","CAKE","CLOTHES","Study1","U","JOL_Small",8840,"20",3640,"Bake",18.181818181818,0
