"Username","Condition.Number","Condition.Description","Stimuli.Cue","Stimuli.Answer","Stimuli.Shuffle","Stimuli.Stimuli.Notes","Procedure.Trial.Type","JOL.RT","Response.JOL","Response.RT.1","Response.Response","Response.Accuracy","Recall_Score"
"59d4a376d1ab390001da2d36",3,"Highlight U A","BAT","SHAKY","Study1","U","JOL_H",2383,"3",3942,"bird",0,0
"5b7b034558f9c1000163630e",3,"Highlight U A","BAT","SHAKY","Study1","U","JOL",4050,"10",6797,"",0,0
"5cd05f58395afc00178f3918",3,"Highlight U A","BAT","SHAKY","Study1","U","JOL_H",2572,"20",1381,"",0,0
"5cf89384abbbdf0015b69296",3,"Highlight U A","BAT","SHAKY","Study1","U","JOL",1931,"0",3591,"dizzy",20,0
"5e6d403dfc5eff000b8329a5",3,"Highlight U A","BAT","SHAKY","Study1","U","JOL_H",9652,"79",3798,"SHAKY",100,100
"5e728270b099d308cbe299f7",3,"Highlight U A","BAT","SHAKY","Study1","U","JOL",3546,"10",5113,"baseball",15.384615384615,0
"5e8ea2396c1dea158c64201f",3,"Highlight U A","BAT","SHAKY","Study1","U","JOL_H",4708,"20",14640,"Shifty",54.545454545455,0
"5e8ea2396c1dea158c64201f",3,"Highlight U A","BAT","SHAKY","Study1","U","JOL",7986,"40",4223,"Shaky",100,100
"5e8f0692facc7d1c12b4c9a1",3,"Highlight U A","BAT","SHAKY","Study1","U","JOL",2667,"50",1361,"",0,0
"5ecc445313612d13075ef35f",3,"Highlight U A","BAT","SHAKY","Study1","U","JOL",2291,"30",10374,"Ball",22.222222222222,0
"5ede34f5255765051d450b9f",3,"Highlight U A","BAT","SHAKY","Study1","U","JOL_H",2450,"15",1668,"",0,0
"5ede7a750fcb900e98650b4f",3,"Highlight U A","BAT","SHAKY","Study1","U","JOL_H",3328,"25",13911,"shaky",100,100
"5edfc2644280d62da10b4add",3,"Highlight U A","BAT","SHAKY","Study1","U","JOL",2644,"9",3809,"dizzy",20,0
"5ee7d5e2b90cb30ab937a8b9",3,"Highlight U A","BAT","SHAKY","Study1","U","JOL",2518,"20",4823,"dizzy",20,0
"5eff4daa9f1ee84c8cf687db",3,"Highlight U A","BAT","SHAKY","Study1","U","JOL",7849,"0",1975,"SHAKE",80,100
"5f05b44498000b0600d6c910",3,"Highlight U A","BAT","SHAKY","Study1","U","JOL_H",5794,"55",15200,"owl",0,0
"5f0d11458b49e51e2fc65c83",3,"Highlight U A","BAT","SHAKY","Study1","U","JOL_H",11066,"10",49890,"wash",44.444444444444,0
"5f107c6479c9e00788c3df28",3,"Highlight U A","BAT","SHAKY","Study1","U","JOL_H",2700,"0",4500,"cave",22.222222222222,0
"5f118646a89ac3000b047862",3,"Highlight U A","BAT","SHAKY","Study1","U","JOL_H",6386,"60",3790,"shaky",100,100
"5f14359cc1b7a74789b1075c",3,"Highlight U A","BAT","SHAKY","Study1","U","JOL_H",2872,"5",2276,"Eat ",25,0
"5f181fe8617dcb1ff653b88b",3,"Highlight U A","BAT","SHAKY","Study1","U","JOL_H",3368,"12",2259,"SHAKY",100,100
"59d4a376d1ab390001da2d36",3,"Highlight U A","BOTH","OUNCE","Study1","U","JOL",3212,"4",2228,"one",75,0
"5b7b034558f9c1000163630e",3,"Highlight U A","BOTH","OUNCE","Study1","U","JOL",6120,"0",1704,"",0,0
"5cd05f58395afc00178f3918",3,"Highlight U A","BOTH","OUNCE","Study1","U","JOL_H",3928,"20",8174,"",0,0
"5cf89384abbbdf0015b69296",3,"Highlight U A","BOTH","OUNCE","Study1","U","JOL_H",4701,"14",2247,"",0,0
"5e6d403dfc5eff000b8329a5",3,"Highlight U A","BOTH","OUNCE","Study1","U","JOL",6002,"67",7012,"OUNCE",100,100
"5e728270b099d308cbe299f7",3,"Highlight U A","BOTH","OUNCE","Study1","U","JOL",5282,"0",2023,"",0,0
"5e8ea2396c1dea158c64201f",3,"Highlight U A","BOTH","OUNCE","Study1","U","JOL_H",6118,"20",1924,"",0,0
"5e8f0692facc7d1c12b4c9a1",3,"Highlight U A","BOTH","OUNCE","Study1","U","JOL_H",1369,"40",5763,"",0,0
"5ecc445313612d13075ef35f",3,"Highlight U A","BOTH","OUNCE","Study1","U","JOL_H",2687,"50",14994,"Children",30.769230769231,0
"5ede34f5255765051d450b9f",3,"Highlight U A","BOTH","OUNCE","Study1","U","JOL_H",2180,"15",2821,"",0,0
"5ede7a750fcb900e98650b4f",3,"Highlight U A","BOTH","OUNCE","Study1","U","JOL",4358,"40",12091,"Ounce",100,100
"5edfc2644280d62da10b4add",3,"Highlight U A","BOTH","OUNCE","Study1","U","JOL_H",2523,"1",3943,"together",30.769230769231,0
"5ee7d5e2b90cb30ab937a8b9",3,"Highlight U A","BOTH","OUNCE","Study1","U","JOL",1782,"30",2574,"ads",0,0
"5eff4daa9f1ee84c8cf687db",3,"Highlight U A","BOTH","OUNCE","Study1","U","JOL_H",4853,"40",2621,"",0,0
"5f05b44498000b0600d6c910",3,"Highlight U A","BOTH","OUNCE","Study1","U","JOL_H",9688,"90",3867,"poor",22.222222222222,0
"5f0d11458b49e51e2fc65c83",3,"Highlight U A","BOTH","OUNCE","Study1","U","JOL",5150,"10",12157,"jump",22.222222222222,0
"5f107c6479c9e00788c3df28",3,"Highlight U A","BOTH","OUNCE","Study1","U","JOL",4929,"10",5473,"ounce",100,100
"5f118646a89ac3000b047862",3,"Highlight U A","BOTH","OUNCE","Study1","U","JOL",4743,"5",5106,"",0,0
"5f14359cc1b7a74789b1075c",3,"Highlight U A","BOTH","OUNCE","Study1","U","JOL_H",3023,"2",3696,"Ounces ",90.909090909091,0
"5f181fe8617dcb1ff653b88b",3,"Highlight U A","BOTH","OUNCE","Study1","U","JOL",4204,"12",5579,"",0,0
"59d4a376d1ab390001da2d36",3,"Highlight U A","BROAD","INFECT","Study1","U","JOL",2897,"2",7036,"car",22.222222222222,0
"5b7b034558f9c1000163630e",3,"Highlight U A","BROAD","INFECT","Study1","U","JOL",5233,"50",10539,"infection",80,0
"5cd05f58395afc00178f3918",3,"Highlight U A","BROAD","INFECT","Study1","U","JOL_H",4768,"30",4671,"",0,0
"5cf89384abbbdf0015b69296",3,"Highlight U A","BROAD","INFECT","Study1","U","JOL",3511,"40",1943,"",0,0
"5e6d403dfc5eff000b8329a5",3,"Highlight U A","BROAD","INFECT","Study1","U","JOL_H",6446,"67",8571,"INFECTION",80,0
"5e728270b099d308cbe299f7",3,"Highlight U A","BROAD","INFECT","Study1","U","JOL",3649,"20",3080,"",0,0
"5e8ea2396c1dea158c64201f",3,"Highlight U A","BROAD","INFECT","Study1","U","JOL_H",10173,"15",2375,"",0,0
"5e8f0692facc7d1c12b4c9a1",3,"Highlight U A","BROAD","INFECT","Study1","U","JOL",2371,"299",3524,"sweep",18.181818181818,0
"5ecc445313612d13075ef35f",3,"Highlight U A","BROAD","INFECT","Study1","U","JOL",3183,"60",6464,"Ball",0,0
"5ede34f5255765051d450b9f",3,"Highlight U A","BROAD","INFECT","Study1","U","JOL_H",4298,"25",2185,"",0,0
"5ede7a750fcb900e98650b4f",3,"Highlight U A","BROAD","INFECT","Study1","U","JOL",3551,"80",10967,"INFECT",100,100
"5edfc2644280d62da10b4add",3,"Highlight U A","BROAD","INFECT","Study1","U","JOL_H",4015,"1",4232,"city",40,0
"5ee7d5e2b90cb30ab937a8b9",3,"Highlight U A","BROAD","INFECT","Study1","U","JOL",1839,"50",1476,"",0,0
"5eff4daa9f1ee84c8cf687db",3,"Highlight U A","BROAD","INFECT","Study1","U","JOL_H",3936,"25",2632,"",0,0
"5f05b44498000b0600d6c910",3,"Highlight U A","BROAD","INFECT","Study1","U","JOL_H",8889,"80",9745,"lush",0,0
"5f0d11458b49e51e2fc65c83",3,"Highlight U A","BROAD","INFECT","Study1","U","JOL_H",5820,"10",73526,"far",22.222222222222,0
"5f107c6479c9e00788c3df28",3,"Highlight U A","BROAD","INFECT","Study1","U","JOL_H",3553,"15",2117,"",0,0
"5f118646a89ac3000b047862",3,"Highlight U A","BROAD","INFECT","Study1","U","JOL",2725,"0",1293,"",0,0
"5f14359cc1b7a74789b1075c",3,"Highlight U A","BROAD","INFECT","Study1","U","JOL",3008,"2",1525,"",0,0
"5f181fe8617dcb1ff653b88b",3,"Highlight U A","BROAD","INFECT","Study1","U","JOL_H",4705,"31",18425,"TIME",20,0
"5f181fe8617dcb1ff653b88b",3,"Highlight U A","BROAD","INFECT","Study1","U","JOL",2943,"41",1847,"",0,0
"59d4a376d1ab390001da2d36",3,"Highlight U A","CAKE","CLOTHES","Study1","U","JOL",3168,"6",6771,"cheese",61.538461538462,0
"5b7b034558f9c1000163630e",3,"Highlight U A","CAKE","CLOTHES","Study1","U","JOL_H",3249,"1",5781,"",0,0
"5cd05f58395afc00178f3918",3,"Highlight U A","CAKE","CLOTHES","Study1","U","JOL_H",3533,"40",8624,"CLOSED",61.538461538462,0
"5cf89384abbbdf0015b69296",3,"Highlight U A","CAKE","CLOTHES","Study1","U","JOL",5298,"40",11735,"cloth",83.333333333333,0
"5e6d403dfc5eff000b8329a5",3,"Highlight U A","CAKE","CLOTHES","Study1","U","JOL",9551,"32",9774,"CLOTHES",100,100
"5e728270b099d308cbe299f7",3,"Highlight U A","CAKE","CLOTHES","Study1","U","JOL_H",3217,"20",17350,"",0,0
"5e8ea2396c1dea158c64201f",3,"Highlight U A","CAKE","CLOTHES","Study1","U","JOL_H",5534,"20",3357,"",0,0
"5e8f0692facc7d1c12b4c9a1",3,"Highlight U A","CAKE","CLOTHES","Study1","U","JOL_H",1006,"30",3821,"",0,0
"5ecc445313612d13075ef35f",3,"Highlight U A","CAKE","CLOTHES","Study1","U","JOL_H",1690,"70",6942,"",0,0
"5ede34f5255765051d450b9f",3,"Highlight U A","CAKE","CLOTHES","Study1","U","JOL_H",5631,"15",6167,"Pastry",15.384615384615,0
"5ede7a750fcb900e98650b4f",3,"Highlight U A","CAKE","CLOTHES","Study1","U","JOL",2874,"15",18678,"",0,0
"5edfc2644280d62da10b4add",3,"Highlight U A","CAKE","CLOTHES","Study1","U","JOL",4307,"40",4096,"custard",28.571428571429,0
"5ee7d5e2b90cb30ab937a8b9",3,"Highlight U A","CAKE","CLOTHES","Study1","U","JOL_H",1602,"40",2140,"clothes",100,100
"5eff4daa9f1ee84c8cf687db",3,"Highlight U A","CAKE","CLOTHES","Study1","U","JOL",4363,"0",1770,"",0,0
"5f05b44498000b0600d6c910",3,"Highlight U A","CAKE","CLOTHES","Study1","U","JOL_H",7333,"75",15934,"jam",0,0
"5f0d11458b49e51e2fc65c83",3,"Highlight U A","CAKE","CLOTHES","Study1","U","JOL_H",17754,"30",10411,"clothes",100,100
"5f107c6479c9e00788c3df28",3,"Highlight U A","CAKE","CLOTHES","Study1","U","JOL",6539,"25",3351,"",0,0
"5f118646a89ac3000b047862",3,"Highlight U A","CAKE","CLOTHES","Study1","U","JOL",1838,"0",3113,"",0,0
"5f14359cc1b7a74789b1075c",3,"Highlight U A","CAKE","CLOTHES","Study1","U","JOL",6938,"40",1747,"",0,0
"5f181fe8617dcb1ff653b88b",3,"Highlight U A","CAKE","CLOTHES","Study1","U","JOL_H",2946,"48",3999,"FOOD",18.181818181818,0
"59d4a376d1ab390001da2d36",3,"Highlight U A","CRACKLE","ABLE","Study1","U","JOL_H",1828,"1",2947,"crinkle",36.363636363636,0
"5b7b034558f9c1000163630e",3,"Highlight U A","CRACKLE","ABLE","Study1","U","JOL",2589,"0",4509,"",0,0
"5cd05f58395afc00178f3918",3,"Highlight U A","CRACKLE","ABLE","Study1","U","JOL_H",5418,"30",5198,"",0,0
"5cf89384abbbdf0015b69296",3,"Highlight U A","CRACKLE","ABLE","Study1","U","JOL_H",3470,"1",5855,"able",100,100
"5e6d403dfc5eff000b8329a5",3,"Highlight U A","CRACKLE","ABLE","Study1","U","JOL",11511,"50",2685,"ABLE",100,100
"5e728270b099d308cbe299f7",3,"Highlight U A","CRACKLE","ABLE","Study1","U","JOL",7870,"0",6296,"hide",25,0
"5e8ea2396c1dea158c64201f",3,"Highlight U A","CRACKLE","ABLE","Study1","U","JOL_H",8801,"15",6959,"Able",100,100
"5e8f0692facc7d1c12b4c9a1",3,"Highlight U A","CRACKLE","ABLE","Study1","U","JOL",3807,"5",272,"",0,0
"5ecc445313612d13075ef35f",3,"Highlight U A","CRACKLE","ABLE","Study1","U","JOL_H",2691,"80",6178,"Fuzz",0,0
"5ede34f5255765051d450b9f",3,"Highlight U A","CRACKLE","ABLE","Study1","U","JOL_H",5290,"30",2953,"Fire",25,0
"5ede7a750fcb900e98650b4f",3,"Highlight U A","CRACKLE","ABLE","Study1","U","JOL_H",3019,"40",6980,"ABLE",100,100
"5edfc2644280d62da10b4add",3,"Highlight U A","CRACKLE","ABLE","Study1","U","JOL_H",3270,"10",4039,"witch",0,0
"5ee7d5e2b90cb30ab937a8b9",3,"Highlight U A","CRACKLE","ABLE","Study1","U","JOL_H",3532,"10",884,"",0,0
"5eff4daa9f1ee84c8cf687db",3,"Highlight U A","CRACKLE","ABLE","Study1","U","JOL_H",3027,"0",1577,"",0,0
"5f05b44498000b0600d6c910",3,"Highlight U A","CRACKLE","ABLE","Study1","U","JOL",8861,"85",11945,"catcher",36.363636363636,0
"5f0d11458b49e51e2fc65c83",3,"Highlight U A","CRACKLE","ABLE","Study1","U","JOL_H",5742,"20",45592,"",0,0
"5f107c6479c9e00788c3df28",3,"Highlight U A","CRACKLE","ABLE","Study1","U","JOL_H",3528,"10",1980,"",0,0
"5f118646a89ac3000b047862",3,"Highlight U A","CRACKLE","ABLE","Study1","U","JOL",4354,"20",4344,"",0,0
"5f14359cc1b7a74789b1075c",3,"Highlight U A","CRACKLE","ABLE","Study1","U","JOL",2912,"4",2923,"Laughter ",33.333333333333,0
"5f181fe8617dcb1ff653b88b",3,"Highlight U A","CRACKLE","ABLE","Study1","U","JOL",3719,"30",1596,"",0,0
"59d4a376d1ab390001da2d36",3,"Highlight U A","CRAYON","RATE","Study1","U","JOL",1578,"1",4728,"sink",0,0
"5b7b034558f9c1000163630e",3,"Highlight U A","CRAYON","RATE","Study1","U","JOL_H",7101,"0",6778,"",0,0
"5cd05f58395afc00178f3918",3,"Highlight U A","CRAYON","RATE","Study1","U","JOL",4198,"40",4595,"RATE",100,100
"5cf89384abbbdf0015b69296",3,"Highlight U A","CRAYON","RATE","Study1","U","JOL_H",1941,"0",5895,"",0,0
"5e6d403dfc5eff000b8329a5",3,"Highlight U A","CRAYON","RATE","Study1","U","JOL_H",6445,"43",2530,"RATE",100,100
"5e728270b099d308cbe299f7",3,"Highlight U A","CRAYON","RATE","Study1","U","JOL_H",5459,"10",15770,"justice",36.363636363636,0
"5e8ea2396c1dea158c64201f",3,"Highlight U A","CRAYON","RATE","Study1","U","JOL_H",8202,"12",10927,"",0,0
"5e8f0692facc7d1c12b4c9a1",3,"Highlight U A","CRAYON","RATE","Study1","U","JOL",4165,"8",1459,"",0,0
"5ecc445313612d13075ef35f",3,"Highlight U A","CRAYON","RATE","Study1","U","JOL_H",6927,"47",3614,"Thick",22.222222222222,0
"5ede34f5255765051d450b9f",3,"Highlight U A","CRAYON","RATE","Study1","U","JOL_H",2414,"20",2137,"",0,0
"5ede7a750fcb900e98650b4f",3,"Highlight U A","CRAYON","RATE","Study1","U","JOL",7184,"50",30274,"RATE",100,100
"5edfc2644280d62da10b4add",3,"Highlight U A","CRAYON","RATE","Study1","U","JOL_H",3046,"4",2975,"colour",20,0
"5ee7d5e2b90cb30ab937a8b9",3,"Highlight U A","CRAYON","RATE","Study1","U","JOL_H",1864,"20",2242,"",0,0
"5eff4daa9f1ee84c8cf687db",3,"Highlight U A","CRAYON","RATE","Study1","U","JOL",3147,"0",1789,"RATE",100,100
"5f05b44498000b0600d6c910",3,"Highlight U A","CRAYON","RATE","Study1","U","JOL",9028,"80",11453,"maroon",20,0
"5f0d11458b49e51e2fc65c83",3,"Highlight U A","CRAYON","RATE","Study1","U","JOL",4905,"20",46985,"colour",20,0
"5f107c6479c9e00788c3df28",3,"Highlight U A","CRAYON","RATE","Study1","U","JOL",2761,"0",2684,"",0,0
"5f118646a89ac3000b047862",3,"Highlight U A","CRAYON","RATE","Study1","U","JOL",2319,"0",1973,"",0,0
"5f14359cc1b7a74789b1075c",3,"Highlight U A","CRAYON","RATE","Study1","U","JOL",2912,"5",1806,"",0,0
"5f181fe8617dcb1ff653b88b",3,"Highlight U A","CRAYON","RATE","Study1","U","JOL_H",4973,"41",9573,"COLOUR",20,0
"59d4a376d1ab390001da2d36",3,"Highlight U A","DEGREE","CHAIR","Study1","U","JOL",3523,"3",1707,"la",28.571428571429,0
"5b7b034558f9c1000163630e",3,"Highlight U A","DEGREE","CHAIR","Study1","U","JOL_H",4838,"20",5921,"chair",100,100
"5cd05f58395afc00178f3918",3,"Highlight U A","DEGREE","CHAIR","Study1","U","JOL",2757,"20",6923,"",0,0
"5cf89384abbbdf0015b69296",3,"Highlight U A","DEGREE","CHAIR","Study1","U","JOL_H",4028,"20",3680,"chair",100,100
"5cf89384abbbdf0015b69296",3,"Highlight U A","DEGREE","CHAIR","Study1","U","JOL",3743,"80",3707,"",0,0
"5e6d403dfc5eff000b8329a5",3,"Highlight U A","DEGREE","CHAIR","Study1","U","JOL",6965,"19",5414,"CHAIR",100,100
"5e728270b099d308cbe299f7",3,"Highlight U A","DEGREE","CHAIR","Study1","U","JOL",3907,"20",6103,"temperature",12.5,0
"5e8ea2396c1dea158c64201f",3,"Highlight U A","DEGREE","CHAIR","Study1","U","JOL",7222,"10",6070,"",0,0
"5e8f0692facc7d1c12b4c9a1",3,"Highlight U A","DEGREE","CHAIR","Study1","U","JOL_H",3029,"43",9015,"",0,0
"5ecc445313612d13075ef35f",3,"Highlight U A","DEGREE","CHAIR","Study1","U","JOL",3622,"40",26771,"",0,0
"5ede34f5255765051d450b9f",3,"Highlight U A","DEGREE","CHAIR","Study1","U","JOL",2045,"30",1555,"",0,0
"5ede7a750fcb900e98650b4f",3,"Highlight U A","DEGREE","CHAIR","Study1","U","JOL",3810,"40",28879,"chair",100,100
"5edfc2644280d62da10b4add",3,"Highlight U A","DEGREE","CHAIR","Study1","U","JOL",1879,"7",5361,"join",22.222222222222,0
"5ee7d5e2b90cb30ab937a8b9",3,"Highlight U A","DEGREE","CHAIR","Study1","U","JOL",3242,"30",2440,"",0,0
"5eff4daa9f1ee84c8cf687db",3,"Highlight U A","DEGREE","CHAIR","Study1","U","JOL_H",26766,"0",2394,"MORNING",16.666666666667,0
"5f05b44498000b0600d6c910",3,"Highlight U A","DEGREE","CHAIR","Study1","U","JOL_H",6920,"75",6313,"election",30.769230769231,0
"5f0d11458b49e51e2fc65c83",3,"Highlight U A","DEGREE","CHAIR","Study1","U","JOL",6421,"10",9478,"hot",25,0
"5f107c6479c9e00788c3df28",3,"Highlight U A","DEGREE","CHAIR","Study1","U","JOL",4876,"5",5350,"ounce",20,0
"5f118646a89ac3000b047862",3,"Highlight U A","DEGREE","CHAIR","Study1","U","JOL",5144,"30",5585,"seat",22.222222222222,0
"5f14359cc1b7a74789b1075c",3,"Highlight U A","DEGREE","CHAIR","Study1","U","JOL_H",4259,"90",2716,"Angle ",20,0
"5f181fe8617dcb1ff653b88b",3,"Highlight U A","DEGREE","CHAIR","Study1","U","JOL_H",3570,"5",3647,"CHAIR",100,100
"59d4a376d1ab390001da2d36",3,"Highlight U A","DIFFICULT","POOR","Study1","U","JOL",3512,"5",2133,"hard",25,0
"5b7b034558f9c1000163630e",3,"Highlight U A","DIFFICULT","POOR","Study1","U","JOL_H",4580,"60",3190,"number",20,0
"5cd05f58395afc00178f3918",3,"Highlight U A","DIFFICULT","POOR","Study1","U","JOL_H",6326,"30",3949,"CHALLENGE",0,0
"5cf89384abbbdf0015b69296",3,"Highlight U A","DIFFICULT","POOR","Study1","U","JOL_H",3413,"50",3882,"numbers",18.181818181818,0
"5e6d403dfc5eff000b8329a5",3,"Highlight U A","DIFFICULT","POOR","Study1","U","JOL",7682,"85",2074,"POOR",100,100
"5e728270b099d308cbe299f7",3,"Highlight U A","DIFFICULT","POOR","Study1","U","JOL",6183,"30",2211,"",0,0
"5e8ea2396c1dea158c64201f",3,"Highlight U A","DIFFICULT","POOR","Study1","U","JOL",5855,"30",8292,"Number",20,0
"5e8f0692facc7d1c12b4c9a1",3,"Highlight U A","DIFFICULT","POOR","Study1","U","JOL",1065,"43",710,"",0,0
"5ecc445313612d13075ef35f",3,"Highlight U A","DIFFICULT","POOR","Study1","U","JOL",2847,"70",5829,"Poor",100,100
"5ede34f5255765051d450b9f",3,"Highlight U A","DIFFICULT","POOR","Study1","U","JOL_H",2356,"75",2742,"Math",0,0
"5ede7a750fcb900e98650b4f",3,"Highlight U A","DIFFICULT","POOR","Study1","U","JOL",2384,"35",25273,"",0,0
"5edfc2644280d62da10b4add",3,"Highlight U A","DIFFICULT","POOR","Study1","U","JOL_H",2015,"0",3503,"easy",0,0
"5ee7d5e2b90cb30ab937a8b9",3,"Highlight U A","DIFFICULT","POOR","Study1","U","JOL",2086,"30",4398,"poor",100,100
"5eff4daa9f1ee84c8cf687db",3,"Highlight U A","DIFFICULT","POOR","Study1","U","JOL",9951,"75",6452,"NUMBER",20,0
"5f05b44498000b0600d6c910",3,"Highlight U A","DIFFICULT","POOR","Study1","U","JOL",8723,"75",6297,"poor",100,100
"5f0d11458b49e51e2fc65c83",3,"Highlight U A","DIFFICULT","POOR","Study1","U","JOL_H",6146,"30",30980,"",0,0
"5f107c6479c9e00788c3df28",3,"Highlight U A","DIFFICULT","POOR","Study1","U","JOL_H",4059,"60",5837,"poor",100,100
"5f118646a89ac3000b047862",3,"Highlight U A","DIFFICULT","POOR","Study1","U","JOL_H",3366,"40",3050,"number",20,0
"5f14359cc1b7a74789b1075c",3,"Highlight U A","DIFFICULT","POOR","Study1","U","JOL_H",4440,"70",9303,"Easy ",0,0
"5f14359cc1b7a74789b1075c",3,"Highlight U A","DIFFICULT","POOR","Study1","U","JOL",3339,"87",2535,"Poor ",100,100
"5f181fe8617dcb1ff653b88b",3,"Highlight U A","DIFFICULT","POOR","Study1","U","JOL_H",5152,"72",8216,"STRENGTH",16.666666666667,0
"59d4a376d1ab390001da2d36",3,"Highlight U A","DIZZY","SWEATER","Study1","U","JOL",2421,"5",3052,"spin",18.181818181818,0
"5b7b034558f9c1000163630e",3,"Highlight U A","DIZZY","SWEATER","Study1","U","JOL",3049,"5",7844,"bat",40,0
"5cd05f58395afc00178f3918",3,"Highlight U A","DIZZY","SWEATER","Study1","U","JOL",2428,"40",1450,"",0,0
"5cf89384abbbdf0015b69296",3,"Highlight U A","DIZZY","SWEATER","Study1","U","JOL",4092,"10",6076,"sweater",100,100
"5e6d403dfc5eff000b8329a5",3,"Highlight U A","DIZZY","SWEATER","Study1","U","JOL",3419,"15",11655,"",0,0
"5e728270b099d308cbe299f7",3,"Highlight U A","DIZZY","SWEATER","Study1","U","JOL_H",2748,"30",4622,"",0,0
"5e8ea2396c1dea158c64201f",3,"Highlight U A","DIZZY","SWEATER","Study1","U","JOL",3836,"10",1608,"",0,0
"5e8f0692facc7d1c12b4c9a1",3,"Highlight U A","DIZZY","SWEATER","Study1","U","JOL_H",5589,"12",1521,"",0,0
"5ecc445313612d13075ef35f",3,"Highlight U A","DIZZY","SWEATER","Study1","U","JOL_H",2475,"50",4886,"",0,0
"5ede34f5255765051d450b9f",3,"Highlight U A","DIZZY","SWEATER","Study1","U","JOL_H",4088,"5",5148,"Spinning",13.333333333333,0
"5ede7a750fcb900e98650b4f",3,"Highlight U A","DIZZY","SWEATER","Study1","U","JOL_H",3199,"25",31043,"sweater",100,100
"5edfc2644280d62da10b4add",3,"Highlight U A","DIZZY","SWEATER","Study1","U","JOL",2379,"2",3184,"down",18.181818181818,0
"5ee7d5e2b90cb30ab937a8b9",3,"Highlight U A","DIZZY","SWEATER","Study1","U","JOL_H",2712,"70",3715,"bat",40,0
"5eff4daa9f1ee84c8cf687db",3,"Highlight U A","DIZZY","SWEATER","Study1","U","JOL",3287,"25",1712,"",0,0
"5f05b44498000b0600d6c910",3,"Highlight U A","DIZZY","SWEATER","Study1","U","JOL",7818,"70",19693,"rate",54.545454545455,0
"5f0d11458b49e51e2fc65c83",3,"Highlight U A","DIZZY","SWEATER","Study1","U","JOL_H",7688,"10",6077,"rascal",15.384615384615,0
"5f107c6479c9e00788c3df28",3,"Highlight U A","DIZZY","SWEATER","Study1","U","JOL_H",2077,"0",2366,"",0,0
"5f118646a89ac3000b047862",3,"Highlight U A","DIZZY","SWEATER","Study1","U","JOL_H",5270,"40",1314,"",0,0
"5f14359cc1b7a74789b1075c",3,"Highlight U A","DIZZY","SWEATER","Study1","U","JOL",2878,"4",2556,"Head ",36.363636363636,0
"5f181fe8617dcb1ff653b88b",3,"Highlight U A","DIZZY","SWEATER","Study1","U","JOL_H",5169,"39",8439,"PLATE",50,0
"59d4a376d1ab390001da2d36",3,"Highlight U A","DONKEY","LUSH","Study1","U","JOL",2646,"0",2307,"horse",22.222222222222,0
"5b7b034558f9c1000163630e",3,"Highlight U A","DONKEY","LUSH","Study1","U","JOL_H",4017,"25",6407,"sleek",22.222222222222,0
"5cd05f58395afc00178f3918",3,"Highlight U A","DONKEY","LUSH","Study1","U","JOL_H",7975,"40",25013,"",0,0
"5cf89384abbbdf0015b69296",3,"Highlight U A","DONKEY","LUSH","Study1","U","JOL",2812,"0",3480,"lush",100,100
"5e6d403dfc5eff000b8329a5",3,"Highlight U A","DONKEY","LUSH","Study1","U","JOL",3704,"10",1962,"LUSH",100,100
"5e728270b099d308cbe299f7",3,"Highlight U A","DONKEY","LUSH","Study1","U","JOL_H",3833,"0",8693,"",0,0
"5e8ea2396c1dea158c64201f",3,"Highlight U A","DONKEY","LUSH","Study1","U","JOL",5833,"10",4739,"Glass",44.444444444444,0
"5e8f0692facc7d1c12b4c9a1",3,"Highlight U A","DONKEY","LUSH","Study1","U","JOL_H",9918,"10",1308,"",0,0
"5ecc445313612d13075ef35f",3,"Highlight U A","DONKEY","LUSH","Study1","U","JOL",2484,"80",6038,"Fast",25,0
"5ede34f5255765051d450b9f",3,"Highlight U A","DONKEY","LUSH","Study1","U","JOL",3435,"15",2580,"",0,0
"5ede7a750fcb900e98650b4f",3,"Highlight U A","DONKEY","LUSH","Study1","U","JOL",3293,"30",17923,"",0,0
"5edfc2644280d62da10b4add",3,"Highlight U A","DONKEY","LUSH","Study1","U","JOL",5071,"10",4761,"horse",22.222222222222,0
"5ee7d5e2b90cb30ab937a8b9",3,"Highlight U A","DONKEY","LUSH","Study1","U","JOL",2467,"10",1289,"",0,0
"5eff4daa9f1ee84c8cf687db",3,"Highlight U A","DONKEY","LUSH","Study1","U","JOL",10907,"10",1443,"",0,0
"5f05b44498000b0600d6c910",3,"Highlight U A","DONKEY","LUSH","Study1","U","JOL_H",6589,"95",7441,"shaky",44.444444444444,0
"5f0d11458b49e51e2fc65c83",3,"Highlight U A","DONKEY","LUSH","Study1","U","JOL_H",23587,"20",15245,"",0,0
"5f107c6479c9e00788c3df28",3,"Highlight U A","DONKEY","LUSH","Study1","U","JOL",2431,"0",3544,"lush",100,100
"5f118646a89ac3000b047862",3,"Highlight U A","DONKEY","LUSH","Study1","U","JOL",4248,"10",3778,"lush",100,100
"5f14359cc1b7a74789b1075c",3,"Highlight U A","DONKEY","LUSH","Study1","U","JOL_H",3466,"80",3453,"",0,0
"5f181fe8617dcb1ff653b88b",3,"Highlight U A","DONKEY","LUSH","Study1","U","JOL_H",1896,"22",4881,"",0,0
"59d4a376d1ab390001da2d36",3,"Highlight U A","FUTURE","SINCERE","Study1","U","JOL_H",3059,"1",3974,"lounge",30.769230769231,0
"5b7b034558f9c1000163630e",3,"Highlight U A","FUTURE","SINCERE","Study1","U","JOL_H",10020,"10",13853,"",0,0
"5cd05f58395afc00178f3918",3,"Highlight U A","FUTURE","SINCERE","Study1","U","JOL",5824,"45",4453,"SINCERE",100,100
"5cf89384abbbdf0015b69296",3,"Highlight U A","FUTURE","SINCERE","Study1","U","JOL_H",5968,"21",2545,"",0,0
"5e6d403dfc5eff000b8329a5",3,"Highlight U A","FUTURE","SINCERE","Study1","U","JOL",11115,"70",5511,"",0,0
"5e728270b099d308cbe299f7",3,"Highlight U A","FUTURE","SINCERE","Study1","U","JOL",2537,"0",8742,"",0,0
"5e8ea2396c1dea158c64201f",3,"Highlight U A","FUTURE","SINCERE","Study1","U","JOL_H",5930,"10",4692,"Sincere",100,100
"5e8f0692facc7d1c12b4c9a1",3,"Highlight U A","FUTURE","SINCERE","Study1","U","JOL_H",4687,"34",5938,"",0,0
"5ecc445313612d13075ef35f",3,"Highlight U A","FUTURE","SINCERE","Study1","U","JOL_H",3765,"40",20716,"Beach",16.666666666667,0
"5ede34f5255765051d450b9f",3,"Highlight U A","FUTURE","SINCERE","Study1","U","JOL_H",3373,"50",2165,"",0,0
"5ede7a750fcb900e98650b4f",3,"Highlight U A","FUTURE","SINCERE","Study1","U","JOL_H",3546,"20",20919,"sincere",100,100
"5edfc2644280d62da10b4add",3,"Highlight U A","FUTURE","SINCERE","Study1","U","JOL_H",4227,"30",4524,"Valid",16.666666666667,0
"5ee7d5e2b90cb30ab937a8b9",3,"Highlight U A","FUTURE","SINCERE","Study1","U","JOL",2548,"40",5478,"",0,0
"5eff4daa9f1ee84c8cf687db",3,"Highlight U A","FUTURE","SINCERE","Study1","U","JOL",6407,"0",6425,"",0,0
"5f05b44498000b0600d6c910",3,"Highlight U A","FUTURE","SINCERE","Study1","U","JOL",8363,"45",7451,"stuff",16.666666666667,0
"5f0d11458b49e51e2fc65c83",3,"Highlight U A","FUTURE","SINCERE","Study1","U","JOL_H",4178,"10",8881,"",0,0
"5f107c6479c9e00788c3df28",3,"Highlight U A","FUTURE","SINCERE","Study1","U","JOL_H",3146,"10",8108,"",0,0
"5f118646a89ac3000b047862",3,"Highlight U A","FUTURE","SINCERE","Study1","U","JOL",5376,"40",4486,"sincere",100,100
"5f14359cc1b7a74789b1075c",3,"Highlight U A","FUTURE","SINCERE","Study1","U","JOL",3685,"3",1802,"",0,0
"5f181fe8617dcb1ff653b88b",3,"Highlight U A","FUTURE","SINCERE","Study1","U","JOL",3033,"22",1126,"",0,0
"59d4a376d1ab390001da2d36",3,"Highlight U A","FUZZY","BANG","Study1","U","JOL_H",3433,"10",3253,"image",44.444444444444,0
"5b7b034558f9c1000163630e",3,"Highlight U A","FUZZY","BANG","Study1","U","JOL",3565,"10",8788,"",0,0
"5cd05f58395afc00178f3918",3,"Highlight U A","FUZZY","BANG","Study1","U","JOL_H",2827,"3",6021,"",0,0
"5cf89384abbbdf0015b69296",3,"Highlight U A","FUZZY","BANG","Study1","U","JOL_H",12672,"5",6639,"",0,0
"5e6d403dfc5eff000b8329a5",3,"Highlight U A","FUZZY","BANG","Study1","U","JOL_H",10300,"40",11165,"",0,0
"5e728270b099d308cbe299f7",3,"Highlight U A","FUZZY","BANG","Study1","U","JOL",6441,"60",12058,"bang",100,100
"5e8ea2396c1dea158c64201f",3,"Highlight U A","FUZZY","BANG","Study1","U","JOL",10165,"25",11833,"Goat",25,0
"5e8f0692facc7d1c12b4c9a1",3,"Highlight U A","FUZZY","BANG","Study1","U","JOL",17780,"21",5195,"",0,0
"5ecc445313612d13075ef35f",3,"Highlight U A","FUZZY","BANG","Study1","U","JOL",4531,"99",8605,"Bang",100,100
"5ede34f5255765051d450b9f",3,"Highlight U A","FUZZY","BANG","Study1","U","JOL",4342,"20",3722,"Peach",22.222222222222,0
"5ede7a750fcb900e98650b4f",3,"Highlight U A","FUZZY","BANG","Study1","U","JOL_H",2819,"25",21714,"BANG",100,100
"5ede7a750fcb900e98650b4f",3,"Highlight U A","FUZZY","BANG","Study1","U","JOL",2310,"60",14325,"BANG",100,100
"5edfc2644280d62da10b4add",3,"Highlight U A","FUZZY","BANG","Study1","U","JOL_H",5375,"5",6030,"duck",0,0
"5ee7d5e2b90cb30ab937a8b9",3,"Highlight U A","FUZZY","BANG","Study1","U","JOL_H",1610,"80",2819,"bat",57.142857142857,0
"5eff4daa9f1ee84c8cf687db",3,"Highlight U A","FUZZY","BANG","Study1","U","JOL_H",3069,"0",2110,"",0,0
"5f05b44498000b0600d6c910",3,"Highlight U A","FUZZY","BANG","Study1","U","JOL",5866,"75",10603,"bang",100,100
"5f0d11458b49e51e2fc65c83",3,"Highlight U A","FUZZY","BANG","Study1","U","JOL_H",7764,"20",5690,"bang",100,100
"5f107c6479c9e00788c3df28",3,"Highlight U A","FUZZY","BANG","Study1","U","JOL_H",3345,"15",6924,"sharp",22.222222222222,0
"5f118646a89ac3000b047862",3,"Highlight U A","FUZZY","BANG","Study1","U","JOL_H",2707,"10",3011,"",0,0
"5f14359cc1b7a74789b1075c",3,"Highlight U A","FUZZY","BANG","Study1","U","JOL_H",9150,"3",1381,"",0,0
"5f181fe8617dcb1ff653b88b",3,"Highlight U A","FUZZY","BANG","Study1","U","JOL",9622,"65",2408,"BANG",100,100
"59d4a376d1ab390001da2d36",3,"Highlight U A","GIVE","STEAK","Study1","U","JOL_H",2233,"2",1638,"take",66.666666666667,100
"5b7b034558f9c1000163630e",3,"Highlight U A","GIVE","STEAK","Study1","U","JOL_H",5609,"20",4350,"",0,0
"5cd05f58395afc00178f3918",3,"Highlight U A","GIVE","STEAK","Study1","U","JOL_H",2571,"40",1994,"",0,0
"5cf89384abbbdf0015b69296",3,"Highlight U A","GIVE","STEAK","Study1","U","JOL",5280,"1",12265,"",0,0
"5e6d403dfc5eff000b8329a5",3,"Highlight U A","GIVE","STEAK","Study1","U","JOL_H",8712,"24",2954,"MEAT",44.444444444444,0
"5e728270b099d308cbe299f7",3,"Highlight U A","GIVE","STEAK","Study1","U","JOL_H",10071,"10",4917,"steak",100,100
"5e8ea2396c1dea158c64201f",3,"Highlight U A","GIVE","STEAK","Study1","U","JOL_H",6658,"15",4481,"Steak",100,100
"5e8f0692facc7d1c12b4c9a1",3,"Highlight U A","GIVE","STEAK","Study1","U","JOL_H",5019,"0",3466,"",0,0
"5ecc445313612d13075ef35f",3,"Highlight U A","GIVE","STEAK","Study1","U","JOL_H",1875,"70",12689,"Away",22.222222222222,0
"5ede34f5255765051d450b9f",3,"Highlight U A","GIVE","STEAK","Study1","U","JOL",3403,"15",1459,"Take",66.666666666667,100
"5ede7a750fcb900e98650b4f",3,"Highlight U A","GIVE","STEAK","Study1","U","JOL_H",2543,"25",5301,"steak",100,100
"5edfc2644280d62da10b4add",3,"Highlight U A","GIVE","STEAK","Study1","U","JOL",3673,"20",3665,"take",66.666666666667,100
"5ee7d5e2b90cb30ab937a8b9",3,"Highlight U A","GIVE","STEAK","Study1","U","JOL",1658,"70",4565,"",0,0
"5eff4daa9f1ee84c8cf687db",3,"Highlight U A","GIVE","STEAK","Study1","U","JOL_H",5905,"50",4262,"",0,0
"5f05b44498000b0600d6c910",3,"Highlight U A","GIVE","STEAK","Study1","U","JOL_H",6114,"60",9783,"able",22.222222222222,0
"5f0d11458b49e51e2fc65c83",3,"Highlight U A","GIVE","STEAK","Study1","U","JOL",7019,"20",4573,"take",66.666666666667,100
"5f107c6479c9e00788c3df28",3,"Highlight U A","GIVE","STEAK","Study1","U","JOL_H",3524,"5",2776,"away",22.222222222222,0
"5f118646a89ac3000b047862",3,"Highlight U A","GIVE","STEAK","Study1","U","JOL",4766,"10",2939,"steak",100,100
"5f14359cc1b7a74789b1075c",3,"Highlight U A","GIVE","STEAK","Study1","U","JOL_H",2860,"2",2463,"Take ",66.666666666667,100
"5f181fe8617dcb1ff653b88b",3,"Highlight U A","GIVE","STEAK","Study1","U","JOL_H",3080,"60",2652,"RIISK",40,0
"59d4a376d1ab390001da2d36",3,"Highlight U A","GRIND","STAND","Study1","U","JOL",3735,"9",4202,"windoe",36.363636363636,0
"5b7b034558f9c1000163630e",3,"Highlight U A","GRIND","STAND","Study1","U","JOL_H",5237,"0",3326,"stand",100,100
"5cd05f58395afc00178f3918",3,"Highlight U A","GRIND","STAND","Study1","U","JOL_H",25706,"30",5049,"RATE",22.222222222222,0
"5cf89384abbbdf0015b69296",3,"Highlight U A","GRIND","STAND","Study1","U","JOL",3467,"1",2565,"stand",100,100
"5e6d403dfc5eff000b8329a5",3,"Highlight U A","GRIND","STAND","Study1","U","JOL",7282,"71",2208,"STAND",100,100
"5e728270b099d308cbe299f7",3,"Highlight U A","GRIND","STAND","Study1","U","JOL_H",2615,"0",7953,"squeeze",16.666666666667,0
"5e8ea2396c1dea158c64201f",3,"Highlight U A","GRIND","STAND","Study1","U","JOL_H",6785,"15",2045,"",0,0
"5e8f0692facc7d1c12b4c9a1",3,"Highlight U A","GRIND","STAND","Study1","U","JOL_H",1908,"21",1769,"",0,0
"5ecc445313612d13075ef35f",3,"Highlight U A","GRIND","STAND","Study1","U","JOL",4110,"30",2813,"",0,0
"5ede34f5255765051d450b9f",3,"Highlight U A","GRIND","STAND","Study1","U","JOL",1799,"25",1866,"",0,0
"5ede7a750fcb900e98650b4f",3,"Highlight U A","GRIND","STAND","Study1","U","JOL",3990,"40",6238,"STAND",100,100
"5edfc2644280d62da10b4add",3,"Highlight U A","GRIND","STAND","Study1","U","JOL",4152,"10",3974,"water",20,0
"5ee7d5e2b90cb30ab937a8b9",3,"Highlight U A","GRIND","STAND","Study1","U","JOL_H",1934,"40",3857,"stand",100,100
"5eff4daa9f1ee84c8cf687db",3,"Highlight U A","GRIND","STAND","Study1","U","JOL",11907,"10",2480,"",0,0
"5f05b44498000b0600d6c910",3,"Highlight U A","GRIND","STAND","Study1","U","JOL",6120,"80",3486,"hate",22.222222222222,0
"5f0d11458b49e51e2fc65c83",3,"Highlight U A","GRIND","STAND","Study1","U","JOL",7901,"10",7314,"meat",22.222222222222,0
"5f107c6479c9e00788c3df28",3,"Highlight U A","GRIND","STAND","Study1","U","JOL_H",4515,"20",5027,"house",20,0
"5f118646a89ac3000b047862",3,"Highlight U A","GRIND","STAND","Study1","U","JOL",3829,"10",1468,"",0,0
"5f14359cc1b7a74789b1075c",3,"Highlight U A","GRIND","STAND","Study1","U","JOL",8171,"4",1597,"",0,0
"5f181fe8617dcb1ff653b88b",3,"Highlight U A","GRIND","STAND","Study1","U","JOL",5588,"23",3612,"",0,0
"59d4a376d1ab390001da2d36",3,"Highlight U A","INFLATE","DISGUST","Study1","U","JOL",2544,"3",3509,"balloon",0,0
"5b7b034558f9c1000163630e",3,"Highlight U A","INFLATE","DISGUST","Study1","U","JOL_H",8061,"5",7689,"broad",16.666666666667,0
"5cd05f58395afc00178f3918",3,"Highlight U A","INFLATE","DISGUST","Study1","U","JOL_H",2942,"20",9063,"DISGUST",100,100
"5cf89384abbbdf0015b69296",3,"Highlight U A","INFLATE","DISGUST","Study1","U","JOL_H",1933,"0",1023,"",0,0
"5e6d403dfc5eff000b8329a5",3,"Highlight U A","INFLATE","DISGUST","Study1","U","JOL",8317,"26",2426,"",0,0
"5e728270b099d308cbe299f7",3,"Highlight U A","INFLATE","DISGUST","Study1","U","JOL",3747,"0",2136,"",0,0
"5e8ea2396c1dea158c64201f",3,"Highlight U A","INFLATE","DISGUST","Study1","U","JOL",11774,"20",5711,"",0,0
"5e8f0692facc7d1c12b4c9a1",3,"Highlight U A","INFLATE","DISGUST","Study1","U","JOL",3383,"32",1335,"",0,0
"5ecc445313612d13075ef35f",3,"Highlight U A","INFLATE","DISGUST","Study1","U","JOL",2695,"40",8683,"Election",13.333333333333,0
"5ede34f5255765051d450b9f",3,"Highlight U A","INFLATE","DISGUST","Study1","U","JOL",1697,"20",3991,"Balloon",0,0
"5ede7a750fcb900e98650b4f",3,"Highlight U A","INFLATE","DISGUST","Study1","U","JOL",2517,"40",16398,"DISGUST",100,100
"5edfc2644280d62da10b4add",3,"Highlight U A","INFLATE","DISGUST","Study1","U","JOL",3271,"30",3997,"boat",18.181818181818,0
"5ee7d5e2b90cb30ab937a8b9",3,"Highlight U A","INFLATE","DISGUST","Study1","U","JOL_H",2576,"30",1749,"",0,0
"5eff4daa9f1ee84c8cf687db",3,"Highlight U A","INFLATE","DISGUST","Study1","U","JOL",7660,"30",1865,"",0,0
"5f05b44498000b0600d6c910",3,"Highlight U A","INFLATE","DISGUST","Study1","U","JOL_H",6361,"40",16123,"election",13.333333333333,0
"5f0d11458b49e51e2fc65c83",3,"Highlight U A","INFLATE","DISGUST","Study1","U","JOL_H",4678,"30",35347,"wage",18.181818181818,0
"5f107c6479c9e00788c3df28",3,"Highlight U A","INFLATE","DISGUST","Study1","U","JOL_H",5863,"15",3523,"disgust",100,100
"5f118646a89ac3000b047862",3,"Highlight U A","INFLATE","DISGUST","Study1","U","JOL_H",4308,"80",5378,"disgust",100,100
"5f118646a89ac3000b047862",3,"Highlight U A","INFLATE","DISGUST","Study1","U","JOL",3708,"80",3418,"disgust",100,100
"5f14359cc1b7a74789b1075c",3,"Highlight U A","INFLATE","DISGUST","Study1","U","JOL",7268,"68",3628,"Deflate ",28.571428571429,0
"5f181fe8617dcb1ff653b88b",3,"Highlight U A","INFLATE","DISGUST","Study1","U","JOL",4100,"20",2239,"PRESS",33.333333333333,0
"59d4a376d1ab390001da2d36",3,"Highlight U A","JUSTICE","MAROON","Study1","U","JOL_H",3505,"3",2749,"judge",0,0
"5b7b034558f9c1000163630e",3,"Highlight U A","JUSTICE","MAROON","Study1","U","JOL",5874,"2",7281,"",0,0
"5cd05f58395afc00178f3918",3,"Highlight U A","JUSTICE","MAROON","Study1","U","JOL_H",3770,"20",4529,"EQUAL",18.181818181818,0
"5cf89384abbbdf0015b69296",3,"Highlight U A","JUSTICE","MAROON","Study1","U","JOL_H",4754,"2",2717,"",0,0
"5e6d403dfc5eff000b8329a5",3,"Highlight U A","JUSTICE","MAROON","Study1","U","JOL_H",8114,"40",23266,"CHOCOLATE",26.666666666667,0
"5e728270b099d308cbe299f7",3,"Highlight U A","JUSTICE","MAROON","Study1","U","JOL",3976,"10",14791,"",0,0
"5e8ea2396c1dea158c64201f",3,"Highlight U A","JUSTICE","MAROON","Study1","U","JOL_H",10136,"10",2730,"",0,0
"5e8f0692facc7d1c12b4c9a1",3,"Highlight U A","JUSTICE","MAROON","Study1","U","JOL",2621,"43",10615," ",0,0
"5ecc445313612d13075ef35f",3,"Highlight U A","JUSTICE","MAROON","Study1","U","JOL_H",2302,"20",10982,"Jumo",40,0
"5ede34f5255765051d450b9f",3,"Highlight U A","JUSTICE","MAROON","Study1","U","JOL",1619,"15",4039,"Judge",0,0
"5ede7a750fcb900e98650b4f",3,"Highlight U A","JUSTICE","MAROON","Study1","U","JOL",4355,"50",11953,"MAROON",100,100
"5edfc2644280d62da10b4add",3,"Highlight U A","JUSTICE","MAROON","Study1","U","JOL_H",2549,"5",2921,"law",22.222222222222,0
"5ee7d5e2b90cb30ab937a8b9",3,"Highlight U A","JUSTICE","MAROON","Study1","U","JOL_H",2251,"30",1896,"",0,0
"5eff4daa9f1ee84c8cf687db",3,"Highlight U A","JUSTICE","MAROON","Study1","U","JOL_H",3402,"0",2061,"",0,0
"5f05b44498000b0600d6c910",3,"Highlight U A","JUSTICE","MAROON","Study1","U","JOL_H",11089,"65",6946,"election",28.571428571429,0
"5f0d11458b49e51e2fc65c83",3,"Highlight U A","JUSTICE","MAROON","Study1","U","JOL_H",5621,"10",7007,"trade",18.181818181818,0
"5f107c6479c9e00788c3df28",3,"Highlight U A","JUSTICE","MAROON","Study1","U","JOL",5792,"5",3075,"system",16.666666666667,0
"5f118646a89ac3000b047862",3,"Highlight U A","JUSTICE","MAROON","Study1","U","JOL",4525,"50",4160,"",0,0
"5f14359cc1b7a74789b1075c",3,"Highlight U A","JUSTICE","MAROON","Study1","U","JOL_H",2783,"2",1779,"",0,0
"5f181fe8617dcb1ff653b88b",3,"Highlight U A","JUSTICE","MAROON","Study1","U","JOL_H",5001,"25",2199,"",0,0
"59d4a376d1ab390001da2d36",3,"Highlight U A","KEYS","JOKE","Study1","U","JOL_H",2658,"4",3269,"sponge",40,0
"5b7b034558f9c1000163630e",3,"Highlight U A","KEYS","JOKE","Study1","U","JOL_H",8151,"5",4209,"",0,0
"5cd05f58395afc00178f3918",3,"Highlight U A","KEYS","JOKE","Study1","U","JOL",2925,"40",8404,"LOCK",50,0
"5cf89384abbbdf0015b69296",3,"Highlight U A","KEYS","JOKE","Study1","U","JOL",2861,"10",4088,"",0,0
"5e6d403dfc5eff000b8329a5",3,"Highlight U A","KEYS","JOKE","Study1","U","JOL_H",8381,"39",3153,"JOKE",100,100
"5e728270b099d308cbe299f7",3,"Highlight U A","KEYS","JOKE","Study1","U","JOL_H",3053,"10",3526,"count",22.222222222222,0
"5e8ea2396c1dea158c64201f",3,"Highlight U A","KEYS","JOKE","Study1","U","JOL",6272,"20",3563,"",0,0
"5e8f0692facc7d1c12b4c9a1",3,"Highlight U A","KEYS","JOKE","Study1","U","JOL",1022,"38",7058,"",0,0
"5ecc445313612d13075ef35f",3,"Highlight U A","KEYS","JOKE","Study1","U","JOL_H",1667,"80",25606,"Bunch",0,0
"5ede34f5255765051d450b9f",3,"Highlight U A","KEYS","JOKE","Study1","U","JOL_H",2907,"20",11163,"Open",50,0
"5ede7a750fcb900e98650b4f",3,"Highlight U A","KEYS","JOKE","Study1","U","JOL_H",2351,"50",17624,"JOKE",100,100
"5edfc2644280d62da10b4add",3,"Highlight U A","KEYS","JOKE","Study1","U","JOL",2672,"20",7436,"Space",22.222222222222,0
"5ee7d5e2b90cb30ab937a8b9",3,"Highlight U A","KEYS","JOKE","Study1","U","JOL_H",2373,"20",1159,"",0,0
"5eff4daa9f1ee84c8cf687db",3,"Highlight U A","KEYS","JOKE","Study1","U","JOL_H",9642,"10",1868,"",0,0
"5f05b44498000b0600d6c910",3,"Highlight U A","KEYS","JOKE","Study1","U","JOL",6152,"70",4231,"charm",0,0
"5f0d11458b49e51e2fc65c83",3,"Highlight U A","KEYS","JOKE","Study1","U","JOL_H",7394,"20",10528,"",0,0
"5f107c6479c9e00788c3df28",3,"Highlight U A","KEYS","JOKE","Study1","U","JOL",2164,"0",3436,"",0,0
"5f118646a89ac3000b047862",3,"Highlight U A","KEYS","JOKE","Study1","U","JOL_H",1905,"0",3844,"",0,0
"5f14359cc1b7a74789b1075c",3,"Highlight U A","KEYS","JOKE","Study1","U","JOL",3390,"80",2550,"Car ",0,0
"5f181fe8617dcb1ff653b88b",3,"Highlight U A","KEYS","JOKE","Study1","U","JOL",1758,"20",5667,"",0,0
"59d4a376d1ab390001da2d36",3,"Highlight U A","LEASE","TOIL","Study1","U","JOL_H",2192,"2",7012,"hold",50,0
"59d4a376d1ab390001da2d36",3,"Highlight U A","LEASE","TOIL","Study1","U","JOL",1774,"2",2733,"long",25,0
"5b7b034558f9c1000163630e",3,"Highlight U A","LEASE","TOIL","Study1","U","JOL",1699,"0",9291,"",0,0
"5cd05f58395afc00178f3918",3,"Highlight U A","LEASE","TOIL","Study1","U","JOL_H",5091,"30",2379,"OIL",85.714285714286,100
"5cf89384abbbdf0015b69296",3,"Highlight U A","LEASE","TOIL","Study1","U","JOL",4260,"16",2953,"sign",25,0
"5e6d403dfc5eff000b8329a5",3,"Highlight U A","LEASE","TOIL","Study1","U","JOL_H",5665,"23",15898,"",0,0
"5e728270b099d308cbe299f7",3,"Highlight U A","LEASE","TOIL","Study1","U","JOL_H",3993,"0",5497,"tax",28.571428571429,0
"5e8ea2396c1dea158c64201f",3,"Highlight U A","LEASE","TOIL","Study1","U","JOL",4743,"20",3747,"Toil",100,100
"5e8f0692facc7d1c12b4c9a1",3,"Highlight U A","LEASE","TOIL","Study1","U","JOL_H",3366,"12",3596,"",0,0
"5ecc445313612d13075ef35f",3,"Highlight U A","LEASE","TOIL","Study1","U","JOL",2742,"20",5348,"Mirror",20,0
"5ede34f5255765051d450b9f",3,"Highlight U A","LEASE","TOIL","Study1","U","JOL_H",3030,"15",1569,"Sign",25,0
"5ede7a750fcb900e98650b4f",3,"Highlight U A","LEASE","TOIL","Study1","U","JOL",2613,"20",10807,"TOIL",100,100
"5edfc2644280d62da10b4add",3,"Highlight U A","LEASE","TOIL","Study1","U","JOL_H",2652,"8",3180,"hold",50,0
"5ee7d5e2b90cb30ab937a8b9",3,"Highlight U A","LEASE","TOIL","Study1","U","JOL_H",1675,"50",1932,"",0,0
"5eff4daa9f1ee84c8cf687db",3,"Highlight U A","LEASE","TOIL","Study1","U","JOL_H",5429,"0",2618,"",0,0
"5f05b44498000b0600d6c910",3,"Highlight U A","LEASE","TOIL","Study1","U","JOL_H",4871,"60",3235,"neglect",18.181818181818,0
"5f0d11458b49e51e2fc65c83",3,"Highlight U A","LEASE","TOIL","Study1","U","JOL_H",9132,"10",37288,"round",22.222222222222,0
"5f107c6479c9e00788c3df28",3,"Highlight U A","LEASE","TOIL","Study1","U","JOL_H",2035,"0",3679,"sign",25,0
"5f118646a89ac3000b047862",3,"Highlight U A","LEASE","TOIL","Study1","U","JOL",2624,"0",969,"",0,0
"5f14359cc1b7a74789b1075c",3,"Highlight U A","LEASE","TOIL","Study1","U","JOL",3444,"5",4249,"",0,0
"5f181fe8617dcb1ff653b88b",3,"Highlight U A","LEASE","TOIL","Study1","U","JOL",2150,"10",5540,"GIVE",25,0
"59d4a376d1ab390001da2d36",3,"Highlight U A","LISTEN","FICTION","Study1","U","JOL",2331,"4",1773,"talk",18.181818181818,0
"5b7b034558f9c1000163630e",3,"Highlight U A","LISTEN","FICTION","Study1","U","JOL",4293,"15",5074,"",0,0
"5cd05f58395afc00178f3918",3,"Highlight U A","LISTEN","FICTION","Study1","U","JOL",2969,"40",4445,"",0,0
"5cf89384abbbdf0015b69296",3,"Highlight U A","LISTEN","FICTION","Study1","U","JOL_H",3862,"30",4417,"fiction",100,100
"5e6d403dfc5eff000b8329a5",3,"Highlight U A","LISTEN","FICTION","Study1","U","JOL_H",13143,"70",4427,"FICTION",100,100
"5e728270b099d308cbe299f7",3,"Highlight U A","LISTEN","FICTION","Study1","U","JOL_H",4330,"40",3439,"hear",0,0
"5e8ea2396c1dea158c64201f",3,"Highlight U A","LISTEN","FICTION","Study1","U","JOL",6705,"15",2003,"",0,0
"5e8f0692facc7d1c12b4c9a1",3,"Highlight U A","LISTEN","FICTION","Study1","U","JOL_H",820,"3",1062,"",0,0
"5ecc445313612d13075ef35f",3,"Highlight U A","LISTEN","FICTION","Study1","U","JOL_H",3076,"30",26587,"Loop",18.181818181818,0
"5ede34f5255765051d450b9f",3,"Highlight U A","LISTEN","FICTION","Study1","U","JOL",4438,"50",3220,"Hear",0,0
"5ede7a750fcb900e98650b4f",3,"Highlight U A","LISTEN","FICTION","Study1","U","JOL",2489,"55",28432,"FICTION",100,100
"5edfc2644280d62da10b4add",3,"Highlight U A","LISTEN","FICTION","Study1","U","JOL",3077,"30",4064,"hear",0,0
"5ee7d5e2b90cb30ab937a8b9",3,"Highlight U A","LISTEN","FICTION","Study1","U","JOL_H",2349,"70",2054,"",0,0
"5eff4daa9f1ee84c8cf687db",3,"Highlight U A","LISTEN","FICTION","Study1","U","JOL",8109,"85",1287,"",0,0
"5f05b44498000b0600d6c910",3,"Highlight U A","LISTEN","FICTION","Study1","U","JOL_H",7534,"75",10902,"verify",15.384615384615,0
"5f0d11458b49e51e2fc65c83",3,"Highlight U A","LISTEN","FICTION","Study1","U","JOL_H",4813,"40",19053,"good",18.181818181818,0
"5f0d11458b49e51e2fc65c83",3,"Highlight U A","LISTEN","FICTION","Study1","U","JOL",24917,"15",10435,"time",36.363636363636,0
"5f107c6479c9e00788c3df28",3,"Highlight U A","LISTEN","FICTION","Study1","U","JOL_H",3265,"20",6143,"fiction",100,100
"5f118646a89ac3000b047862",3,"Highlight U A","LISTEN","FICTION","Study1","U","JOL_H",5636,"70",9359,"location",66.666666666667,0
"5f14359cc1b7a74789b1075c",3,"Highlight U A","LISTEN","FICTION","Study1","U","JOL_H",3011,"80",2387,"Hear ",0,0
"5f181fe8617dcb1ff653b88b",3,"Highlight U A","LISTEN","FICTION","Study1","U","JOL",4132,"20",3218,"",0,0
"59d4a376d1ab390001da2d36",3,"Highlight U A","LOAN","SIGN","Study1","U","JOL_H",2235,"1",2399,"shark",22.222222222222,0
"5b7b034558f9c1000163630e",3,"Highlight U A","LOAN","SIGN","Study1","U","JOL_H",2831,"0",3017,"pay",0,0
"5cd05f58395afc00178f3918",3,"Highlight U A","LOAN","SIGN","Study1","U","JOL",2986,"40",3355,"SIGN",100,100
"5cf89384abbbdf0015b69296",3,"Highlight U A","LOAN","SIGN","Study1","U","JOL",2918,"90",3160,"give",25,0
"5e6d403dfc5eff000b8329a5",3,"Highlight U A","LOAN","SIGN","Study1","U","JOL_H",7194,"30",3979,"",0,0
"5e728270b099d308cbe299f7",3,"Highlight U A","LOAN","SIGN","Study1","U","JOL",6661,"0",2735,"",0,0
"5e8ea2396c1dea158c64201f",3,"Highlight U A","LOAN","SIGN","Study1","U","JOL_H",8987,"25",6596,"Sign",100,100
"5e8f0692facc7d1c12b4c9a1",3,"Highlight U A","LOAN","SIGN","Study1","U","JOL_H",22301,"30",12143,"shark",22.222222222222,0
"5ecc445313612d13075ef35f",3,"Highlight U A","LOAN","SIGN","Study1","U","JOL",2680,"60",19172,"Shake",22.222222222222,0
"5ede34f5255765051d450b9f",3,"Highlight U A","LOAN","SIGN","Study1","U","JOL_H",2485,"90",5002,"Payment",18.181818181818,0
"5ede34f5255765051d450b9f",3,"Highlight U A","LOAN","SIGN","Study1","U","JOL",1872,"85",2191,"Bank",25,0
"5ede7a750fcb900e98650b4f",3,"Highlight U A","LOAN","SIGN","Study1","U","JOL",2716,"60",12722,"SIGN",100,100
"5edfc2644280d62da10b4add",3,"Highlight U A","LOAN","SIGN","Study1","U","JOL_H",3195,"50",4262,"pay",0,0
"5ee7d5e2b90cb30ab937a8b9",3,"Highlight U A","LOAN","SIGN","Study1","U","JOL",5550,"90",1633,"",0,0
"5eff4daa9f1ee84c8cf687db",3,"Highlight U A","LOAN","SIGN","Study1","U","JOL_H",7922,"25",1476,"",0,0
"5f05b44498000b0600d6c910",3,"Highlight U A","LOAN","SIGN","Study1","U","JOL",5294,"100",10038,"sign",100,100
"5f0d11458b49e51e2fc65c83",3,"Highlight U A","LOAN","SIGN","Study1","U","JOL_H",9030,"10",7201,"shark",22.222222222222,0
"5f107c6479c9e00788c3df28",3,"Highlight U A","LOAN","SIGN","Study1","U","JOL",4631,"45",4068,"sign",100,100
"5f118646a89ac3000b047862",3,"Highlight U A","LOAN","SIGN","Study1","U","JOL_H",6177,"50",1329,"",0,0
"5f14359cc1b7a74789b1075c",3,"Highlight U A","LOAN","SIGN","Study1","U","JOL_H",3192,"80",1967,"",0,0
"5f181fe8617dcb1ff653b88b",3,"Highlight U A","LOAN","SIGN","Study1","U","JOL",6684,"12",20616,"RISK",25,0
"59d4a376d1ab390001da2d36",3,"Highlight U A","MAIN","SCAR","Study1","U","JOL",3132,"0",3151,"ring",25,0
"5b7b034558f9c1000163630e",3,"Highlight U A","MAIN","SCAR","Study1","U","JOL",4963,"15",7533,"",0,0
"5cd05f58395afc00178f3918",3,"Highlight U A","MAIN","SCAR","Study1","U","JOL",8248,"40",4070,"SCAR",100,100
"5cf89384abbbdf0015b69296",3,"Highlight U A","MAIN","SCAR","Study1","U","JOL",3998,"1",1748,"",0,0
"5e6d403dfc5eff000b8329a5",3,"Highlight U A","MAIN","SCAR","Study1","U","JOL_H",9531,"15",3258,"SCAR",100,100
"5e728270b099d308cbe299f7",3,"Highlight U A","MAIN","SCAR","Study1","U","JOL_H",3208,"30",8102,"thing",0,0
"5e8ea2396c1dea158c64201f",3,"Highlight U A","MAIN","SCAR","Study1","U","JOL",5362,"15",2618,"",0,0
"5e8f0692facc7d1c12b4c9a1",3,"Highlight U A","MAIN","SCAR","Study1","U","JOL",7665,"5",2020,"stay",50,0
"5ecc445313612d13075ef35f",3,"Highlight U A","MAIN","SCAR","Study1","U","JOL_H",2146,"50",4975,"",0,0
"5ede34f5255765051d450b9f",3,"Highlight U A","MAIN","SCAR","Study1","U","JOL",5607,"20",4227,"Important",15.384615384615,0
"5ede7a750fcb900e98650b4f",3,"Highlight U A","MAIN","SCAR","Study1","U","JOL",5554,"50",26657,"SCAR",100,100
"5edfc2644280d62da10b4add",3,"Highlight U A","MAIN","SCAR","Study1","U","JOL_H",2067,"9",2482,"meal",25,0
"5ee7d5e2b90cb30ab937a8b9",3,"Highlight U A","MAIN","SCAR","Study1","U","JOL",2563,"10",2281,"idea",25,0
"5eff4daa9f1ee84c8cf687db",3,"Highlight U A","MAIN","SCAR","Study1","U","JOL",6495,"50",1878,"",0,0
"5f05b44498000b0600d6c910",3,"Highlight U A","MAIN","SCAR","Study1","U","JOL",5193,"35",4220,"space",44.444444444444,0
"5f0d11458b49e51e2fc65c83",3,"Highlight U A","MAIN","SCAR","Study1","U","JOL",5530,"10",4268,"event",0,0
"5f107c6479c9e00788c3df28",3,"Highlight U A","MAIN","SCAR","Study1","U","JOL",6499,"7",3297,"",0,0
"5f118646a89ac3000b047862",3,"Highlight U A","MAIN","SCAR","Study1","U","JOL",3179,"20",1624,"",0,0
"5f14359cc1b7a74789b1075c",3,"Highlight U A","MAIN","SCAR","Study1","U","JOL_H",4080,"70",1597,"",0,0
"5f181fe8617dcb1ff653b88b",3,"Highlight U A","MAIN","SCAR","Study1","U","JOL_H",2833,"10",2776,"",0,0
"59d4a376d1ab390001da2d36",3,"Highlight U A","MAZE","ELECTION","Study1","U","JOL",2016,"2",2499,"hedge",30.769230769231,0
"5b7b034558f9c1000163630e",3,"Highlight U A","MAZE","ELECTION","Study1","U","JOL_H",2598,"0",3624,"",0,0
"5cd05f58395afc00178f3918",3,"Highlight U A","MAZE","ELECTION","Study1","U","JOL",3219,"20",2544,"LOST",33.333333333333,0
"5cf89384abbbdf0015b69296",3,"Highlight U A","MAZE","ELECTION","Study1","U","JOL",4025,"0",4753,"",0,0
"5e6d403dfc5eff000b8329a5",3,"Highlight U A","MAZE","ELECTION","Study1","U","JOL_H",11285,"44",5144,"ELECTION",100,100
"5e728270b099d308cbe299f7",3,"Highlight U A","MAZE","ELECTION","Study1","U","JOL_H",3868,"10",6466,"elect",76.923076923077,0
"5e8ea2396c1dea158c64201f",3,"Highlight U A","MAZE","ELECTION","Study1","U","JOL_H",4682,"20",9204,"Vote",16.666666666667,0
"5e8f0692facc7d1c12b4c9a1",3,"Highlight U A","MAZE","ELECTION","Study1","U","JOL",897,"48",458,"",0,0
"5ecc445313612d13075ef35f",3,"Highlight U A","MAZE","ELECTION","Study1","U","JOL",1831,"70",19805,"Trees",15.384615384615,0
"5ede34f5255765051d450b9f",3,"Highlight U A","MAZE","ELECTION","Study1","U","JOL",5806,"15",4646,"",0,0
"5ede7a750fcb900e98650b4f",3,"Highlight U A","MAZE","ELECTION","Study1","U","JOL_H",3370,"25",14385,"ELECTION",100,100
"5edfc2644280d62da10b4add",3,"Highlight U A","MAZE","ELECTION","Study1","U","JOL",7122,"20",5742,"map",0,0
"5ee7d5e2b90cb30ab937a8b9",3,"Highlight U A","MAZE","ELECTION","Study1","U","JOL",1963,"10",4743,"election",100,100
"5eff4daa9f1ee84c8cf687db",3,"Highlight U A","MAZE","ELECTION","Study1","U","JOL",3413,"50",4237,"",0,0
"5f05b44498000b0600d6c910",3,"Highlight U A","MAZE","ELECTION","Study1","U","JOL_H",9073,"50",7900,"hard",0,0
"5f0d11458b49e51e2fc65c83",3,"Highlight U A","MAZE","ELECTION","Study1","U","JOL",6131,"20",22796,"run",18.181818181818,0
"5f107c6479c9e00788c3df28",3,"Highlight U A","MAZE","ELECTION","Study1","U","JOL_H",5267,"10",4610,"election",100,100
"5f118646a89ac3000b047862",3,"Highlight U A","MAZE","ELECTION","Study1","U","JOL",4401,"20",4394,"election",100,100
"5f14359cc1b7a74789b1075c",3,"Highlight U A","MAZE","ELECTION","Study1","U","JOL",2533,"1",2923,"Tase ",16.666666666667,0
"5f181fe8617dcb1ff653b88b",3,"Highlight U A","MAZE","ELECTION","Study1","U","JOL",2520,"10",6591,"AVOID",15.384615384615,0
"59d4a376d1ab390001da2d36",3,"Highlight U A","MEAT","OBTAIN","Study1","U","JOL",3434,"4",6268,"temperature",23.529411764706,0
"5b7b034558f9c1000163630e",3,"Highlight U A","MEAT","OBTAIN","Study1","U","JOL",3661,"0",6833,"",0,0
"5cd05f58395afc00178f3918",3,"Highlight U A","MEAT","OBTAIN","Study1","U","JOL",8987,"40",1702,"",0,0
"5cf89384abbbdf0015b69296",3,"Highlight U A","MEAT","OBTAIN","Study1","U","JOL",2692,"0",3019,"",0,0
"5e6d403dfc5eff000b8329a5",3,"Highlight U A","MEAT","OBTAIN","Study1","U","JOL_H",5730,"41",3273,"OBTAIN",100,100
"5e728270b099d308cbe299f7",3,"Highlight U A","MEAT","OBTAIN","Study1","U","JOL",3538,"10",8534,"obtain",100,100
"5e8ea2396c1dea158c64201f",3,"Highlight U A","MEAT","OBTAIN","Study1","U","JOL_H",11526,"20",3308,"",0,0
"5e8f0692facc7d1c12b4c9a1",3,"Highlight U A","MEAT","OBTAIN","Study1","U","JOL",2580,"50",9037,"",0,0
"5ecc445313612d13075ef35f",3,"Highlight U A","MEAT","OBTAIN","Study1","U","JOL",3635,"40",9972,"M",0,0
"5ede34f5255765051d450b9f",3,"Highlight U A","MEAT","OBTAIN","Study1","U","JOL",1860,"20",4606,"Meal",20,0
"5ede7a750fcb900e98650b4f",3,"Highlight U A","MEAT","OBTAIN","Study1","U","JOL",3157,"25",12189,"Obtain",100,100
"5edfc2644280d62da10b4add",3,"Highlight U A","MEAT","OBTAIN","Study1","U","JOL",2115,"0",8299,"food",20,0
"5ee7d5e2b90cb30ab937a8b9",3,"Highlight U A","MEAT","OBTAIN","Study1","U","JOL_H",1606,"10",2483,"give",20,0
"5eff4daa9f1ee84c8cf687db",3,"Highlight U A","MEAT","OBTAIN","Study1","U","JOL_H",2879,"90",8022,"SECURE",0,0
"5f05b44498000b0600d6c910",3,"Highlight U A","MEAT","OBTAIN","Study1","U","JOL",6506,"60",8765,"digest",16.666666666667,0
"5f0d11458b49e51e2fc65c83",3,"Highlight U A","MEAT","OBTAIN","Study1","U","JOL",4091,"10",8474,"",0,0
"5f107c6479c9e00788c3df28",3,"Highlight U A","MEAT","OBTAIN","Study1","U","JOL",2485,"0",8331,"find",40,0
"5f118646a89ac3000b047862",3,"Highlight U A","MEAT","OBTAIN","Study1","U","JOL_H",3035,"10",3685,"obtain",100,100
"5f14359cc1b7a74789b1075c",3,"Highlight U A","MEAT","OBTAIN","Study1","U","JOL",3176,"4",3459,"Chicken ",30.769230769231,0
"5f181fe8617dcb1ff653b88b",3,"Highlight U A","MEAT","OBTAIN","Study1","U","JOL",2619,"45",11877,"GAIN",60,0
"59d4a376d1ab390001da2d36",3,"Highlight U A","MIRROR","CHILDREN","Study1","U","JOL_H",5583,"7",5451,"frame",30.769230769231,0
"5b7b034558f9c1000163630e",3,"Highlight U A","MIRROR","CHILDREN","Study1","U","JOL",5010,"30",3682,"children",100,100
"5cd05f58395afc00178f3918",3,"Highlight U A","MIRROR","CHILDREN","Study1","U","JOL_H",3183,"15",4649,"CHILDREN",100,100
"5cd05f58395afc00178f3918",3,"Highlight U A","MIRROR","CHILDREN","Study1","U","JOL",3177,"30",2492,"CHILDREN",100,100
"5cf89384abbbdf0015b69296",3,"Highlight U A","MIRROR","CHILDREN","Study1","U","JOL",2861,"0",3382,"children",100,100
"5e6d403dfc5eff000b8329a5",3,"Highlight U A","MIRROR","CHILDREN","Study1","U","JOL_H",9579,"69",2676,"CHILDREN",100,100
"5e728270b099d308cbe299f7",3,"Highlight U A","MIRROR","CHILDREN","Study1","U","JOL",5100,"40",4925,"children",100,100
"5e8ea2396c1dea158c64201f",3,"Highlight U A","MIRROR","CHILDREN","Study1","U","JOL",4056,"20",6931,"Person",28.571428571429,0
"5e8f0692facc7d1c12b4c9a1",3,"Highlight U A","MIRROR","CHILDREN","Study1","U","JOL",1158,"24",2785,"",0,0
"5ecc445313612d13075ef35f",3,"Highlight U A","MIRROR","CHILDREN","Study1","U","JOL_H",2140,"50",6248,"Shake",30.769230769231,0
"5ede34f5255765051d450b9f",3,"Highlight U A","MIRROR","CHILDREN","Study1","U","JOL_H",2411,"20",2651,"See",18.181818181818,0
"5ede7a750fcb900e98650b4f",3,"Highlight U A","MIRROR","CHILDREN","Study1","U","JOL_H",3166,"30",30325,"CHILDREN",100,100
"5edfc2644280d62da10b4add",3,"Highlight U A","MIRROR","CHILDREN","Study1","U","JOL_H",3547,"20",4701,"shine",46.153846153846,0
"5ee7d5e2b90cb30ab937a8b9",3,"Highlight U A","MIRROR","CHILDREN","Study1","U","JOL",2462,"60",3187,"children",100,100
"5eff4daa9f1ee84c8cf687db",3,"Highlight U A","MIRROR","CHILDREN","Study1","U","JOL_H",5433,"80",3345,"CHILDREN",100,100
"5f05b44498000b0600d6c910",3,"Highlight U A","MIRROR","CHILDREN","Study1","U","JOL",8937,"45",3952,"cloth",30.769230769231,0
"5f0d11458b49e51e2fc65c83",3,"Highlight U A","MIRROR","CHILDREN","Study1","U","JOL",3921,"30",18093,"",0,0
"5f107c6479c9e00788c3df28",3,"Highlight U A","MIRROR","CHILDREN","Study1","U","JOL_H",2902,"15",3707,"children",100,100
"5f118646a89ac3000b047862",3,"Highlight U A","MIRROR","CHILDREN","Study1","U","JOL_H",4740,"70",3654,"children",100,100
"5f14359cc1b7a74789b1075c",3,"Highlight U A","MIRROR","CHILDREN","Study1","U","JOL_H",4018,"99",1281,"",0,0
"5f181fe8617dcb1ff653b88b",3,"Highlight U A","MIRROR","CHILDREN","Study1","U","JOL",2061,"44",1100,"",0,0
"59d4a376d1ab390001da2d36",3,"Highlight U A","MOAT","CLEAR","Study1","U","JOL_H",3126,"2",3478,"carriage",46.153846153846,0
"5b7b034558f9c1000163630e",3,"Highlight U A","MOAT","CLEAR","Study1","U","JOL_H",6174,"5",4097,"",0,0
"5cd05f58395afc00178f3918",3,"Highlight U A","MOAT","CLEAR","Study1","U","JOL",3786,"20",2244,"CLEAR",100,100
"5cf89384abbbdf0015b69296",3,"Highlight U A","MOAT","CLEAR","Study1","U","JOL_H",3135,"70",4278,"safe",22.222222222222,0
"5e6d403dfc5eff000b8329a5",3,"Highlight U A","MOAT","CLEAR","Study1","U","JOL",14468,"55",2100,"CLEAR",100,100
"5e728270b099d308cbe299f7",3,"Highlight U A","MOAT","CLEAR","Study1","U","JOL_H",6622,"30",3179,"clear",100,100
"5e8ea2396c1dea158c64201f",3,"Highlight U A","MOAT","CLEAR","Study1","U","JOL",5175,"20",3997,"Clear",100,100
"5e8f0692facc7d1c12b4c9a1",3,"Highlight U A","MOAT","CLEAR","Study1","U","JOL",887,"38",1568,"",0,0
"5ecc445313612d13075ef35f",3,"Highlight U A","MOAT","CLEAR","Study1","U","JOL",3516,"70",3747,"Clear",100,100
"5ede34f5255765051d450b9f",3,"Highlight U A","MOAT","CLEAR","Study1","U","JOL_H",2913,"60",1969,"Water",40,0
"5ede7a750fcb900e98650b4f",3,"Highlight U A","MOAT","CLEAR","Study1","U","JOL",2804,"50",26417,"",0,0
"5edfc2644280d62da10b4add",3,"Highlight U A","MOAT","CLEAR","Study1","U","JOL_H",5665,"20",3396,"Clear",100,100
"5ee7d5e2b90cb30ab937a8b9",3,"Highlight U A","MOAT","CLEAR","Study1","U","JOL",1052,"1",2651,"clean",80,100
"5eff4daa9f1ee84c8cf687db",3,"Highlight U A","MOAT","CLEAR","Study1","U","JOL",3625,"80",2166,"CLEAR",100,100
"5f05b44498000b0600d6c910",3,"Highlight U A","MOAT","CLEAR","Study1","U","JOL_H",5321,"75",4357,"yam",25,0
"5f0d11458b49e51e2fc65c83",3,"Highlight U A","MOAT","CLEAR","Study1","U","JOL",20462,"10",13366,"empty",20,0
"5f107c6479c9e00788c3df28",3,"Highlight U A","MOAT","CLEAR","Study1","U","JOL_H",4508,"30",6885,"clear",100,100
"5f118646a89ac3000b047862",3,"Highlight U A","MOAT","CLEAR","Study1","U","JOL_H",4438,"40",2932,"clear",100,100
"5f14359cc1b7a74789b1075c",3,"Highlight U A","MOAT","CLEAR","Study1","U","JOL_H",3864,"68",2602,"Boat ",22.222222222222,0
"5f181fe8617dcb1ff653b88b",3,"Highlight U A","MOAT","CLEAR","Study1","U","JOL",2287,"7",1649,"",0,0
"59d4a376d1ab390001da2d36",3,"Highlight U A","NAME","HATE","Study1","U","JOL_H",2408,"4",2416,"ticket",40,0
"5b7b034558f9c1000163630e",3,"Highlight U A","NAME","HATE","Study1","U","JOL_H",4744,"35",3248,"hate",100,100
"5cd05f58395afc00178f3918",3,"Highlight U A","NAME","HATE","Study1","U","JOL_H",3457,"25",4276,"GUESS",22.222222222222,0
"5cf89384abbbdf0015b69296",3,"Highlight U A","NAME","HATE","Study1","U","JOL",4600,"10",4186,"hate",100,100
"5e6d403dfc5eff000b8329a5",3,"Highlight U A","NAME","HATE","Study1","U","JOL",8971,"32",1917,"HATE",100,100
"5e728270b099d308cbe299f7",3,"Highlight U A","NAME","HATE","Study1","U","JOL",4278,"50",8124,"thing",22.222222222222,0
"5e8ea2396c1dea158c64201f",3,"Highlight U A","NAME","HATE","Study1","U","JOL",13653,"25",5871,"Hate",100,100
"5e8f0692facc7d1c12b4c9a1",3,"Highlight U A","NAME","HATE","Study1","U","JOL",745,"28",801,"",0,0
"5ecc445313612d13075ef35f",3,"Highlight U A","NAME","HATE","Study1","U","JOL_H",2066,"90",31863,"YOUR NAME",30.769230769231,0
"5ede34f5255765051d450b9f",3,"Highlight U A","NAME","HATE","Study1","U","JOL",4312,"60",4518,"Tag",28.571428571429,0
"5ede7a750fcb900e98650b4f",3,"Highlight U A","NAME","HATE","Study1","U","JOL_H",4014,"20",17886,"",0,0
"5edfc2644280d62da10b4add",3,"Highlight U A","NAME","HATE","Study1","U","JOL",2880,"0",4366,"home",50,0
"5ee7d5e2b90cb30ab937a8b9",3,"Highlight U A","NAME","HATE","Study1","U","JOL_H",2646,"80",3065,"hate",100,100
"5eff4daa9f1ee84c8cf687db",3,"Highlight U A","NAME","HATE","Study1","U","JOL_H",4482,"80",1407,"",0,0
"5f05b44498000b0600d6c910",3,"Highlight U A","NAME","HATE","Study1","U","JOL",8142,"75",127509,"sincere",18.181818181818,0
"5f0d11458b49e51e2fc65c83",3,"Highlight U A","NAME","HATE","Study1","U","JOL_H",9342,"30",7103,"tag",28.571428571429,0
"5f107c6479c9e00788c3df28",3,"Highlight U A","NAME","HATE","Study1","U","JOL",3273,"35",2940,"",0,0
"5f118646a89ac3000b047862",3,"Highlight U A","NAME","HATE","Study1","U","JOL",7222,"80",2318,"hate",100,100
"5f14359cc1b7a74789b1075c",3,"Highlight U A","NAME","HATE","Study1","U","JOL_H",5314,"60",3512,"Blame ",44.444444444444,0
"5f181fe8617dcb1ff653b88b",3,"Highlight U A","NAME","HATE","Study1","U","JOL",3827,"20",1070,"",0,0
"59d4a376d1ab390001da2d36",3,"Highlight U A","NUMBER","HARD","Study1","U","JOL_H",4488,"9",2919,"token",0,0
"5b7b034558f9c1000163630e",3,"Highlight U A","NUMBER","HARD","Study1","U","JOL",4456,"10",5737,"difficult",15.384615384615,0
"5cd05f58395afc00178f3918",3,"Highlight U A","NUMBER","HARD","Study1","U","JOL",3700,"40",3426,"HARD",100,100
"5cf89384abbbdf0015b69296",3,"Highlight U A","NUMBER","HARD","Study1","U","JOL",3379,"60",4831,"difficult",15.384615384615,0
"5e6d403dfc5eff000b8329a5",3,"Highlight U A","NUMBER","HARD","Study1","U","JOL",5826,"67",6719,"",0,0
"5e728270b099d308cbe299f7",3,"Highlight U A","NUMBER","HARD","Study1","U","JOL",3415,"10",4432,"jacks",22.222222222222,0
"5e8ea2396c1dea158c64201f",3,"Highlight U A","NUMBER","HARD","Study1","U","JOL_H",8608,"15",6095,"",0,0
"5e8f0692facc7d1c12b4c9a1",3,"Highlight U A","NUMBER","HARD","Study1","U","JOL_H",7143,"12",2451,"",0,0
"5ecc445313612d13075ef35f",3,"Highlight U A","NUMBER","HARD","Study1","U","JOL",2196,"40",5690,"Easy",25,0
"5ede34f5255765051d450b9f",3,"Highlight U A","NUMBER","HARD","Study1","U","JOL",1862,"60",19414,"",0,0
"5ede7a750fcb900e98650b4f",3,"Highlight U A","NUMBER","HARD","Study1","U","JOL_H",3495,"30",5332,"HARD",100,100
"5edfc2644280d62da10b4add",3,"Highlight U A","NUMBER","HARD","Study1","U","JOL_H",4096,"70",8364,"hard",100,100
"5ee7d5e2b90cb30ab937a8b9",3,"Highlight U A","NUMBER","HARD","Study1","U","JOL",1767,"30",3608,"hard",100,100
"5eff4daa9f1ee84c8cf687db",3,"Highlight U A","NUMBER","HARD","Study1","U","JOL",3957,"70",8936,"DIFFICULT",15.384615384615,0
"5f05b44498000b0600d6c910",3,"Highlight U A","NUMBER","HARD","Study1","U","JOL",4174,"50",9490,"contest",0,0
"5f0d11458b49e51e2fc65c83",3,"Highlight U A","NUMBER","HARD","Study1","U","JOL",3352,"30",7460,"crash",22.222222222222,0
"5f107c6479c9e00788c3df28",3,"Highlight U A","NUMBER","HARD","Study1","U","JOL",3098,"35",3600,"ne",0,0
"5f118646a89ac3000b047862",3,"Highlight U A","NUMBER","HARD","Study1","U","JOL_H",3848,"30",2169,"",0,0
"5f14359cc1b7a74789b1075c",3,"Highlight U A","NUMBER","HARD","Study1","U","JOL",7942,"67",3488,"Object ",0,0
"5f181fe8617dcb1ff653b88b",3,"Highlight U A","NUMBER","HARD","Study1","U","JOL",4334,"30",5778,"GAIN",25,0
"59d4a376d1ab390001da2d36",3,"Highlight U A","PARCEL","THROAT","Study1","U","JOL_H",2586,"2",3814,"ticket",33.333333333333,0
"5b7b034558f9c1000163630e",3,"Highlight U A","PARCEL","THROAT","Study1","U","JOL",2581,"0",2956,"",0,0
"5cd05f58395afc00178f3918",3,"Highlight U A","PARCEL","THROAT","Study1","U","JOL_H",2170,"30",1724,"",0,0
"5cf89384abbbdf0015b69296",3,"Highlight U A","PARCEL","THROAT","Study1","U","JOL_H",5658,"10",2609,"",0,0
"5e6d403dfc5eff000b8329a5",3,"Highlight U A","PARCEL","THROAT","Study1","U","JOL_H",10311,"20",21317,"NOSE",20,0
"5e728270b099d308cbe299f7",3,"Highlight U A","PARCEL","THROAT","Study1","U","JOL_H",7095,"40",13043,"swallow",15.384615384615,0
"5e8ea2396c1dea158c64201f",3,"Highlight U A","PARCEL","THROAT","Study1","U","JOL_H",3435,"10",4270,"",0,0
"5e8f0692facc7d1c12b4c9a1",3,"Highlight U A","PARCEL","THROAT","Study1","U","JOL_H",5039,"23",4117,"",0,0
"5ecc445313612d13075ef35f",3,"Highlight U A","PARCEL","THROAT","Study1","U","JOL_H",3254,"20",11397,"Pack",20,0
"5ede34f5255765051d450b9f",3,"Highlight U A","PARCEL","THROAT","Study1","U","JOL_H",2289,"25",2668,"",0,0
"5ede7a750fcb900e98650b4f",3,"Highlight U A","PARCEL","THROAT","Study1","U","JOL",2734,"20",13592,"",0,0
"5edfc2644280d62da10b4add",3,"Highlight U A","PARCEL","THROAT","Study1","U","JOL_H",3830,"0",3093,"door",20,0
"5ee7d5e2b90cb30ab937a8b9",3,"Highlight U A","PARCEL","THROAT","Study1","U","JOL_H",2227,"30",2998,"throat",100,100
"5ee7d5e2b90cb30ab937a8b9",3,"Highlight U A","PARCEL","THROAT","Study1","U","JOL",2408,"60",2022,"throat",100,100
"5eff4daa9f1ee84c8cf687db",3,"Highlight U A","PARCEL","THROAT","Study1","U","JOL",4089,"25",2180,"",0,0
"5f05b44498000b0600d6c910",3,"Highlight U A","PARCEL","THROAT","Study1","U","JOL",6391,"50",8574,"charm",36.363636363636,0
"5f0d11458b49e51e2fc65c83",3,"Highlight U A","PARCEL","THROAT","Study1","U","JOL",13333,"10",7900,"time",20,0
"5f107c6479c9e00788c3df28",3,"Highlight U A","PARCEL","THROAT","Study1","U","JOL",3580,"0",2248,"",0,0
"5f118646a89ac3000b047862",3,"Highlight U A","PARCEL","THROAT","Study1","U","JOL_H",3181,"20",1042,"",0,0
"5f14359cc1b7a74789b1075c",3,"Highlight U A","PARCEL","THROAT","Study1","U","JOL",3975,"67",2704,"",0,0
"5f181fe8617dcb1ff653b88b",3,"Highlight U A","PARCEL","THROAT","Study1","U","JOL_H",2571,"12",5530,"",0,0
"59d4a376d1ab390001da2d36",3,"Highlight U A","PET","MOON","Study1","U","JOL_H",3209,"8",5624,"cat",0,0
"5b7b034558f9c1000163630e",3,"Highlight U A","PET","MOON","Study1","U","JOL_H",2324,"5",5344,"moon",100,100
"5b7b034558f9c1000163630e",3,"Highlight U A","PET","MOON","Study1","U","JOL",5200,"20",2582,"moon",100,100
"5cd05f58395afc00178f3918",3,"Highlight U A","PET","MOON","Study1","U","JOL_H",4007,"20",5475,"GROOM",44.444444444444,0
"5cf89384abbbdf0015b69296",3,"Highlight U A","PET","MOON","Study1","U","JOL_H",2199,"0",3998,"",0,0
"5e6d403dfc5eff000b8329a5",3,"Highlight U A","PET","MOON","Study1","U","JOL_H",6427,"23'",1980,"",0,0
"5e728270b099d308cbe299f7",3,"Highlight U A","PET","MOON","Study1","U","JOL_H",6281,"30",6143,"moon",100,100
"5e8ea2396c1dea158c64201f",3,"Highlight U A","PET","MOON","Study1","U","JOL",7655,"10",8285,"",0,0
"5e8f0692facc7d1c12b4c9a1",3,"Highlight U A","PET","MOON","Study1","U","JOL_H",10551,"42",2223,"peeve",0,0
"5ecc445313612d13075ef35f",3,"Highlight U A","PET","MOON","Study1","U","JOL",3997,"60",22681,"Shock",22.222222222222,0
"5ede34f5255765051d450b9f",3,"Highlight U A","PET","MOON","Study1","U","JOL",13344,"20",2964,"Dog",28.571428571429,0
"5ede7a750fcb900e98650b4f",3,"Highlight U A","PET","MOON","Study1","U","JOL_H",4379,"40",12392,"MOON",100,100
"5edfc2644280d62da10b4add",3,"Highlight U A","PET","MOON","Study1","U","JOL",2070,"4",2676,"dog",28.571428571429,0
"5ee7d5e2b90cb30ab937a8b9",3,"Highlight U A","PET","MOON","Study1","U","JOL",1800,"40",2644,"moon",100,100
"5eff4daa9f1ee84c8cf687db",3,"Highlight U A","PET","MOON","Study1","U","JOL",6122,"10",2459,"MOON",100,100
"5f05b44498000b0600d6c910",3,"Highlight U A","PET","MOON","Study1","U","JOL_H",4792,"60",6033,"infect",20,0
"5f0d11458b49e51e2fc65c83",3,"Highlight U A","PET","MOON","Study1","U","JOL_H",11361,"10",71692,"bowl",25,0
"5f107c6479c9e00788c3df28",3,"Highlight U A","PET","MOON","Study1","U","JOL",5686,"25",4542,"moon",100,100
"5f118646a89ac3000b047862",3,"Highlight U A","PET","MOON","Study1","U","JOL",3409,"10",3720,"moon",100,100
"5f14359cc1b7a74789b1075c",3,"Highlight U A","PET","MOON","Study1","U","JOL",2854,"4",1799,"",0,0
"5f181fe8617dcb1ff653b88b",3,"Highlight U A","PET","MOON","Study1","U","JOL_H",2930,"42",7119,"MOON",100,100
"59d4a376d1ab390001da2d36",3,"Highlight U A","RESIST","GLUE","Study1","U","JOL",2653,"4",4328,"hard",0,0
"5b7b034558f9c1000163630e",3,"Highlight U A","RESIST","GLUE","Study1","U","JOL_H",4579,"40",2987,"band",0,0
"5cd05f58395afc00178f3918",3,"Highlight U A","RESIST","GLUE","Study1","U","JOL",4033,"50",5337,"GLUE",100,100
"5cf89384abbbdf0015b69296",3,"Highlight U A","RESIST","GLUE","Study1","U","JOL",2823,"20",2464,"",0,0
"5e6d403dfc5eff000b8329a5",3,"Highlight U A","RESIST","GLUE","Study1","U","JOL_H",11871,"44",2220,"",0,0
"5e6d403dfc5eff000b8329a5",3,"Highlight U A","RESIST","GLUE","Study1","U","JOL",6704,"18",3783,"GLUE",100,100
"5e728270b099d308cbe299f7",3,"Highlight U A","RESIST","GLUE","Study1","U","JOL",2691,"0",5623,"arrest",20,0
"5e8ea2396c1dea158c64201f",3,"Highlight U A","RESIST","GLUE","Study1","U","JOL_H",8376,"25",6147,"",0,0
"5e8f0692facc7d1c12b4c9a1",3,"Highlight U A","RESIST","GLUE","Study1","U","JOL",7859,"30",4488,"",0,0
"5ecc445313612d13075ef35f",3,"Highlight U A","RESIST","GLUE","Study1","U","JOL",2760,"50",5628,"",0,0
"5ede34f5255765051d450b9f",3,"Highlight U A","RESIST","GLUE","Study1","U","JOL_H",2666,"0",2014,"Arrest",20,0
"5ede7a750fcb900e98650b4f",3,"Highlight U A","RESIST","GLUE","Study1","U","JOL",4474,"35",11247,"GLUE",100,100
"5edfc2644280d62da10b4add",3,"Highlight U A","RESIST","GLUE","Study1","U","JOL_H",5609,"50",3263,"hard",0,0
"5edfc2644280d62da10b4add",3,"Highlight U A","RESIST","GLUE","Study1","U","JOL",3242,"70",3279,"hold",25,0
"5ee7d5e2b90cb30ab937a8b9",3,"Highlight U A","RESIST","GLUE","Study1","U","JOL_H",3849,"100",4111,"clothes",36.363636363636,0
"5eff4daa9f1ee84c8cf687db",3,"Highlight U A","RESIST","GLUE","Study1","U","JOL",4613,"90",2541,"",0,0
"5f05b44498000b0600d6c910",3,"Highlight U A","RESIST","GLUE","Study1","U","JOL_H",4931,"50",5799,"obtain",0,0
"5f0d11458b49e51e2fc65c83",3,"Highlight U A","RESIST","GLUE","Study1","U","JOL",24986,"10",36888,"wave",25,0
"5f107c6479c9e00788c3df28",3,"Highlight U A","RESIST","GLUE","Study1","U","JOL_H",4413,"15",2688,"",0,0
"5f118646a89ac3000b047862",3,"Highlight U A","RESIST","GLUE","Study1","U","JOL",4645,"30",1596,"",0,0
"5f14359cc1b7a74789b1075c",3,"Highlight U A","RESIST","GLUE","Study1","U","JOL",2973,"3",2899,"Urge ",50,0
"5f181fe8617dcb1ff653b88b",3,"Highlight U A","RESIST","GLUE","Study1","U","JOL",4149,"40",6990,"EXAM",25,0
"59d4a376d1ab390001da2d36",3,"Highlight U A","RIPE","VERIFY","Study1","U","JOL",4311,"0",2383,"old",0,0
"5b7b034558f9c1000163630e",3,"Highlight U A","RIPE","VERIFY","Study1","U","JOL_H",2277,"0",3546,"",0,0
"5cd05f58395afc00178f3918",3,"Highlight U A","RIPE","VERIFY","Study1","U","JOL",4609,"10",3779,"FRUIT",18.181818181818,0
"5cf89384abbbdf0015b69296",3,"Highlight U A","RIPE","VERIFY","Study1","U","JOL_H",3721,"0",2927,"",0,0
"5e6d403dfc5eff000b8329a5",3,"Highlight U A","RIPE","VERIFY","Study1","U","JOL",5076,"50",2346,"",0,0
"5e728270b099d308cbe299f7",3,"Highlight U A","RIPE","VERIFY","Study1","U","JOL",5369,"20",10177,"evidence",28.571428571429,0
"5e8ea2396c1dea158c64201f",3,"Highlight U A","RIPE","VERIFY","Study1","U","JOL",5542,"25",6519,"Validate",28.571428571429,0
"5e8f0692facc7d1c12b4c9a1",3,"Highlight U A","RIPE","VERIFY","Study1","U","JOL_H",15481,"12",3156,"",0,0
"5e8f0692facc7d1c12b4c9a1",3,"Highlight U A","RIPE","VERIFY","Study1","U","JOL",852,"23",619,"",0,0
"5ecc445313612d13075ef35f",3,"Highlight U A","RIPE","VERIFY","Study1","U","JOL_H",2638,"40",3767,"",0,0
"5ede34f5255765051d450b9f",3,"Highlight U A","RIPE","VERIFY","Study1","U","JOL",1909,"10",2971,"Thicken",15.384615384615,0
"5ede7a750fcb900e98650b4f",3,"Highlight U A","RIPE","VERIFY","Study1","U","JOL_H",8589,"20",9876,"VERIFY",100,100
"5edfc2644280d62da10b4add",3,"Highlight U A","RIPE","VERIFY","Study1","U","JOL",2437,"5",5068,"door",20,0
"5ee7d5e2b90cb30ab937a8b9",3,"Highlight U A","RIPE","VERIFY","Study1","U","JOL_H",2961,"10",1089,"",0,0
"5eff4daa9f1ee84c8cf687db",3,"Highlight U A","RIPE","VERIFY","Study1","U","JOL",6564,"90",1529,"",0,0
"5f05b44498000b0600d6c910",3,"Highlight U A","RIPE","VERIFY","Study1","U","JOL_H",6708,"10",8814,"green",18.181818181818,0
"5f0d11458b49e51e2fc65c83",3,"Highlight U A","RIPE","VERIFY","Study1","U","JOL",5318,"20",7517,"fruit",18.181818181818,0
"5f107c6479c9e00788c3df28",3,"Highlight U A","RIPE","VERIFY","Study1","U","JOL",4435,"25",5783,"",0,0
"5f118646a89ac3000b047862",3,"Highlight U A","RIPE","VERIFY","Study1","U","JOL",2865,"5",1017,"",0,0
"5f14359cc1b7a74789b1075c",3,"Highlight U A","RIPE","VERIFY","Study1","U","JOL_H",3575,"68",5094,"",0,0
"5f181fe8617dcb1ff653b88b",3,"Highlight U A","RIPE","VERIFY","Study1","U","JOL_H",7442,"52",6161,"VERIFY",100,100
"59d4a376d1ab390001da2d36",3,"Highlight U A","ROSE","NEGLECT","Study1","U","JOL",3296,"1",2335,"bush",0,0
"5b7b034558f9c1000163630e",3,"Highlight U A","ROSE","NEGLECT","Study1","U","JOL",6836,"5",4528,"neglect",100,100
"5cd05f58395afc00178f3918",3,"Highlight U A","ROSE","NEGLECT","Study1","U","JOL",2815,"20",5103,"GROWING",14.285714285714,0
"5cf89384abbbdf0015b69296",3,"Highlight U A","ROSE","NEGLECT","Study1","U","JOL",3217,"2",6873,"",0,0
"5e6d403dfc5eff000b8329a5",3,"Highlight U A","ROSE","NEGLECT","Study1","U","JOL",9595,"80",3065,"NEGLECT",100,100
"5e728270b099d308cbe299f7",3,"Highlight U A","ROSE","NEGLECT","Study1","U","JOL",5736,"20",9667,"neglect",100,100
"5e8ea2396c1dea158c64201f",3,"Highlight U A","ROSE","NEGLECT","Study1","U","JOL_H",4981,"15",5325,"Despair",14.285714285714,0
"5e8f0692facc7d1c12b4c9a1",3,"Highlight U A","ROSE","NEGLECT","Study1","U","JOL",14382,"30",1999,"",0,0
"5ecc445313612d13075ef35f",3,"Highlight U A","ROSE","NEGLECT","Study1","U","JOL_H",2737,"59",6220,"Perfect",57.142857142857,0
"5ede34f5255765051d450b9f",3,"Highlight U A","ROSE","NEGLECT","Study1","U","JOL_H",2211,"15",3094,"",0,0
"5ede7a750fcb900e98650b4f",3,"Highlight U A","ROSE","NEGLECT","Study1","U","JOL_H",3158,"40",11739,"NEGLECT ",100,100
"5edfc2644280d62da10b4add",3,"Highlight U A","ROSE","NEGLECT","Study1","U","JOL",2883,"10",11514,"difficult",25,0
"5ee7d5e2b90cb30ab937a8b9",3,"Highlight U A","ROSE","NEGLECT","Study1","U","JOL",1957,"0",4061,"neglect",100,100
"5eff4daa9f1ee84c8cf687db",3,"Highlight U A","ROSE","NEGLECT","Study1","U","JOL_H",4824,"30",10345,"HURT",18.181818181818,0
"5eff4daa9f1ee84c8cf687db",3,"Highlight U A","ROSE","NEGLECT","Study1","U","JOL",5037,"80",7649,"",0,0
"5f05b44498000b0600d6c910",3,"Highlight U A","ROSE","NEGLECT","Study1","U","JOL",5860,"40",7553,"fiction",28.571428571429,0
"5f0d11458b49e51e2fc65c83",3,"Highlight U A","ROSE","NEGLECT","Study1","U","JOL_H",7327,"20",10693,"temperature",11.111111111111,0
"5f107c6479c9e00788c3df28",3,"Highlight U A","ROSE","NEGLECT","Study1","U","JOL",2394,"0",4466,"neglect",100,100
"5f118646a89ac3000b047862",3,"Highlight U A","ROSE","NEGLECT","Study1","U","JOL_H",3234,"10",6592,"abuse",16.666666666667,0
"5f14359cc1b7a74789b1075c",3,"Highlight U A","ROSE","NEGLECT","Study1","U","JOL_H",3346,"60",1092,"",0,0
"5f181fe8617dcb1ff653b88b",3,"Highlight U A","ROSE","NEGLECT","Study1","U","JOL_H",4438,"21",9706,"",0,0
"59d4a376d1ab390001da2d36",3,"Highlight U A","SHELL","SHAKE","Study1","U","JOL",3793,"8",4323,"fish",44.444444444444,0
"5b7b034558f9c1000163630e",3,"Highlight U A","SHELL","SHAKE","Study1","U","JOL",6343,"40",5978,"sheep",60,0
"5cd05f58395afc00178f3918",3,"Highlight U A","SHELL","SHAKE","Study1","U","JOL_H",6747,"40",3859,"SHAKE",100,100
"5cf89384abbbdf0015b69296",3,"Highlight U A","SHELL","SHAKE","Study1","U","JOL_H",5367,"20",6049,"shake",100,100
"5e6d403dfc5eff000b8329a5",3,"Highlight U A","SHELL","SHAKE","Study1","U","JOL_H",13557,"48",2047,"SHAKE",100,100
"5e728270b099d308cbe299f7",3,"Highlight U A","SHELL","SHAKE","Study1","U","JOL_H",3247,"20",7826,"tell",22.222222222222,0
"5e8ea2396c1dea158c64201f",3,"Highlight U A","SHELL","SHAKE","Study1","U","JOL",8615,"20",4330,"Shake",100,100
"5e8f0692facc7d1c12b4c9a1",3,"Highlight U A","SHELL","SHAKE","Study1","U","JOL_H",685,"27",4845,"",0,0
"5ecc445313612d13075ef35f",3,"Highlight U A","SHELL","SHAKE","Study1","U","JOL",3028,"90",4895,"Shake",100,100
"5ede34f5255765051d450b9f",3,"Highlight U A","SHELL","SHAKE","Study1","U","JOL",8968,"30",2185,"Shock",60,0
"5ede7a750fcb900e98650b4f",3,"Highlight U A","SHELL","SHAKE","Study1","U","JOL_H",2912,"20",4850,"shake",100,100
"5edfc2644280d62da10b4add",3,"Highlight U A","SHELL","SHAKE","Study1","U","JOL_H",4375,"10",2874,"shave",80,100
"5ee7d5e2b90cb30ab937a8b9",3,"Highlight U A","SHELL","SHAKE","Study1","U","JOL_H",1902,"40",5679,"seat",44.444444444444,0
"5eff4daa9f1ee84c8cf687db",3,"Highlight U A","SHELL","SHAKE","Study1","U","JOL_H",3562,"50",4443,"SHAKE",100,100
"5f05b44498000b0600d6c910",3,"Highlight U A","SHELL","SHAKE","Study1","U","JOL_H",4890,"40",4313,"sea",50,0
"5f05b44498000b0600d6c910",3,"Highlight U A","SHELL","SHAKE","Study1","U","JOL",3414,NA,5969,"shake",100,100
"5f0d11458b49e51e2fc65c83",3,"Highlight U A","SHELL","SHAKE","Study1","U","JOL",42848,"20",5985,"shake",100,100
"5f107c6479c9e00788c3df28",3,"Highlight U A","SHELL","SHAKE","Study1","U","JOL_H",6135,"30",5551,"shake",100,100
"5f118646a89ac3000b047862",3,"Highlight U A","SHELL","SHAKE","Study1","U","JOL_H",3258,"30",7862,"shake",100,100
"5f14359cc1b7a74789b1075c",3,"Highlight U A","SHELL","SHAKE","Study1","U","JOL_H",3197,"89",3722,"",0,0
"5f181fe8617dcb1ff653b88b",3,"Highlight U A","SHELL","SHAKE","Study1","U","JOL",3788,"36",2849,"SHAKE",100,100
"59d4a376d1ab390001da2d36",3,"Highlight U A","STRESS","YAM","Study1","U","JOL_H",2345,"2",4103,"call",28.571428571429,0
"5b7b034558f9c1000163630e",3,"Highlight U A","STRESS","YAM","Study1","U","JOL_H",2448,"0",3293,"",0,0
"5cd05f58395afc00178f3918",3,"Highlight U A","STRESS","YAM","Study1","U","JOL",3535,"20",5453,"",0,0
"5cf89384abbbdf0015b69296",3,"Highlight U A","STRESS","YAM","Study1","U","JOL",2478,"0",1688,"",0,0
"5e6d403dfc5eff000b8329a5",3,"Highlight U A","STRESS","YAM","Study1","U","JOL",3804,"13",3399,"",0,0
"5e728270b099d308cbe299f7",3,"Highlight U A","STRESS","YAM","Study1","U","JOL_H",2576,"10",2887,"",0,0
"5e8ea2396c1dea158c64201f",3,"Highlight U A","STRESS","YAM","Study1","U","JOL",5848,"35",1520,"",0,0
"5e8f0692facc7d1c12b4c9a1",3,"Highlight U A","STRESS","YAM","Study1","U","JOL_H",978,"23",480,"",0,0
"5ecc445313612d13075ef35f",3,"Highlight U A","STRESS","YAM","Study1","U","JOL_H",2144,"20",2676,"",0,0
"5ecc445313612d13075ef35f",3,"Highlight U A","STRESS","YAM","Study1","U","JOL",3623,"34",7991,"Shake",25,0
"5ede34f5255765051d450b9f",3,"Highlight U A","STRESS","YAM","Study1","U","JOL",4268,"20",2408,"Level",0,0
"5ede7a750fcb900e98650b4f",3,"Highlight U A","STRESS","YAM","Study1","U","JOL_H",3234,"30",7168,"YAM",100,100
"5edfc2644280d62da10b4add",3,"Highlight U A","STRESS","YAM","Study1","U","JOL",2981,"0",5651,"job",0,0
"5ee7d5e2b90cb30ab937a8b9",3,"Highlight U A","STRESS","YAM","Study1","U","JOL",1738,"20",1044,"",0,0
"5eff4daa9f1ee84c8cf687db",3,"Highlight U A","STRESS","YAM","Study1","U","JOL_H",2093,"30",2158,"",0,0
"5f05b44498000b0600d6c910",3,"Highlight U A","STRESS","YAM","Study1","U","JOL",6384,"75",2509,"calm",57.142857142857,0
"5f0d11458b49e51e2fc65c83",3,"Highlight U A","STRESS","YAM","Study1","U","JOL",7944,"20",14520,"stretch",0,0
"5f107c6479c9e00788c3df28",3,"Highlight U A","STRESS","YAM","Study1","U","JOL",2903,"0",5724,"level",0,0
"5f118646a89ac3000b047862",3,"Highlight U A","STRESS","YAM","Study1","U","JOL_H",4878,"0",5718,"",0,0
"5f14359cc1b7a74789b1075c",3,"Highlight U A","STRESS","YAM","Study1","U","JOL_H",3525,"1",2939,"",0,0
"5f181fe8617dcb1ff653b88b",3,"Highlight U A","STRESS","YAM","Study1","U","JOL_H",2484,"0",3982,"SLAM",57.142857142857,0
"59d4a376d1ab390001da2d36",3,"Highlight U A","STRETCH","CLOTH","Study1","U","JOL_H",3913,"11",2408,"imagine",0,0
"5b7b034558f9c1000163630e",3,"Highlight U A","STRETCH","CLOTH","Study1","U","JOL_H",4677,"70",4457,"cloth",100,100
"5cd05f58395afc00178f3918",3,"Highlight U A","STRETCH","CLOTH","Study1","U","JOL",2604,"40",3268,"",0,0
"5cf89384abbbdf0015b69296",3,"Highlight U A","STRETCH","CLOTH","Study1","U","JOL_H",3949,"20",3276,"",0,0
"5e6d403dfc5eff000b8329a5",3,"Highlight U A","STRETCH","CLOTH","Study1","U","JOL",4703,"60",10090,"CLOTHES",83.333333333333,0
"5e728270b099d308cbe299f7",3,"Highlight U A","STRETCH","CLOTH","Study1","U","JOL_H",3133,"70",3386,"bend",0,0
"5e8ea2396c1dea158c64201f",3,"Highlight U A","STRETCH","CLOTH","Study1","U","JOL_H",12568,"40",7834,"Cloth",100,100
"5e8f0692facc7d1c12b4c9a1",3,"Highlight U A","STRETCH","CLOTH","Study1","U","JOL_H",1631,"35",353,"",0,0
"5ecc445313612d13075ef35f",3,"Highlight U A","STRETCH","CLOTH","Study1","U","JOL_H",3079,"40",5400,"Fabric",18.181818181818,0
"5ede34f5255765051d450b9f",3,"Highlight U A","STRETCH","CLOTH","Study1","U","JOL_H",2143,"50",3479,"Muscles",33.333333333333,0
"5ede7a750fcb900e98650b4f",3,"Highlight U A","STRETCH","CLOTH","Study1","U","JOL_H",3626,"50",13655,"CLOTH",100,100
"5edfc2644280d62da10b4add",3,"Highlight U A","STRETCH","CLOTH","Study1","U","JOL",2175,"8",7676,"jumper",0,0
"5ee7d5e2b90cb30ab937a8b9",3,"Highlight U A","STRETCH","CLOTH","Study1","U","JOL_H",2064,"90",3226,"clothes",83.333333333333,0
"5eff4daa9f1ee84c8cf687db",3,"Highlight U A","STRETCH","CLOTH","Study1","U","JOL",6293,"100",3630,"",0,0
"5f05b44498000b0600d6c910",3,"Highlight U A","STRETCH","CLOTH","Study1","U","JOL",8250,"80",2385,"scar",22.222222222222,0
"5f0d11458b49e51e2fc65c83",3,"Highlight U A","STRETCH","CLOTH","Study1","U","JOL",13009,"60",8113,"fabric",18.181818181818,0
"5f107c6479c9e00788c3df28",3,"Highlight U A","STRETCH","CLOTH","Study1","U","JOL_H",3291,"40",3712,"belief",18.181818181818,0
"5f107c6479c9e00788c3df28",3,"Highlight U A","STRETCH","CLOTH","Study1","U","JOL",8727,"30",4134,"cloth",100,100
"5f118646a89ac3000b047862",3,"Highlight U A","STRETCH","CLOTH","Study1","U","JOL",3482,"60",961,"",0,0
"5f14359cc1b7a74789b1075c",3,"Highlight U A","STRETCH","CLOTH","Study1","U","JOL_H",3157,"60",2463,"",0,0
"5f181fe8617dcb1ff653b88b",3,"Highlight U A","STRETCH","CLOTH","Study1","U","JOL_H",2845,"78",3758,"CLOTHES",83.333333333333,0
"59d4a376d1ab390001da2d36",3,"Highlight U A","TAX","OWL","Study1","U","JOL_H",2470,"9",3860,"bill",28.571428571429,0
"5b7b034558f9c1000163630e",3,"Highlight U A","TAX","OWL","Study1","U","JOL",6039,"3",3302,"pay",0,0
"5cd05f58395afc00178f3918",3,"Highlight U A","TAX","OWL","Study1","U","JOL_H",7272,"30",3168,"",0,0
"5cf89384abbbdf0015b69296",3,"Highlight U A","TAX","OWL","Study1","U","JOL_H",3754,"20",1478,"",0,0
"5e6d403dfc5eff000b8329a5",3,"Highlight U A","TAX","OWL","Study1","U","JOL",5334,"10",7347,"",0,0
"5e728270b099d308cbe299f7",3,"Highlight U A","TAX","OWL","Study1","U","JOL_H",2705,"0",5439,"",0,0
"5e8ea2396c1dea158c64201f",3,"Highlight U A","TAX","OWL","Study1","U","JOL",6696,"10",2059,"",0,0
"5e8f0692facc7d1c12b4c9a1",3,"Highlight U A","TAX","OWL","Study1","U","JOL",2897,"7",4562,"",0,0
"5ecc445313612d13075ef35f",3,"Highlight U A","TAX","OWL","Study1","U","JOL_H",2548,"60",18959,"",0,0
"5ede34f5255765051d450b9f",3,"Highlight U A","TAX","OWL","Study1","U","JOL",1887,"35",5213,"Pay",0,0
"5ede7a750fcb900e98650b4f",3,"Highlight U A","TAX","OWL","Study1","U","JOL_H",5263,"30",25656,"OWL",100,100
"5edfc2644280d62da10b4add",3,"Highlight U A","TAX","OWL","Study1","U","JOL_H",4071,"5",5338,"war",33.333333333333,0
"5ee7d5e2b90cb30ab937a8b9",3,"Highlight U A","TAX","OWL","Study1","U","JOL",3094,"60",3839,"bat",0,0
"5eff4daa9f1ee84c8cf687db",3,"Highlight U A","TAX","OWL","Study1","U","JOL_H",3047,"0",3143,"",0,0
"5f05b44498000b0600d6c910",3,"Highlight U A","TAX","OWL","Study1","U","JOL_H",3615,"50",9552,"inflate",20,0
"5f0d11458b49e51e2fc65c83",3,"Highlight U A","TAX","OWL","Study1","U","JOL",5219,"20",6657,"break",0,0
"5f107c6479c9e00788c3df28",3,"Highlight U A","TAX","OWL","Study1","U","JOL",3867,"0",4546,"",0,0
"5f118646a89ac3000b047862",3,"Highlight U A","TAX","OWL","Study1","U","JOL",4458,"10",1644,"",0,0
"5f14359cc1b7a74789b1075c",3,"Highlight U A","TAX","OWL","Study1","U","JOL",2904,"4",3338,"",0,0
"5f181fe8617dcb1ff653b88b",3,"Highlight U A","TAX","OWL","Study1","U","JOL",5114,"50",7634,"OWL",100,100
"59d4a376d1ab390001da2d36",3,"Highlight U A","TEMPERATURE","MORNING","Study1","U","JOL_H",3213,"11",3772,"gauge",16.666666666667,0
"5b7b034558f9c1000163630e",3,"Highlight U A","TEMPERATURE","MORNING","Study1","U","JOL_H",3810,"2",3587,"morning",100,100
"5cd05f58395afc00178f3918",3,"Highlight U A","TEMPERATURE","MORNING","Study1","U","JOL_H",3152,"20",4177,"MORNING",100,100
"5cf89384abbbdf0015b69296",3,"Highlight U A","TEMPERATURE","MORNING","Study1","U","JOL_H",6316,"12",3072,"morning",100,100
"5e6d403dfc5eff000b8329a5",3,"Highlight U A","TEMPERATURE","MORNING","Study1","U","JOL",6615,"37",2785,"MORNING",100,100
"5e728270b099d308cbe299f7",3,"Highlight U A","TEMPERATURE","MORNING","Study1","U","JOL",4570,"40",12709,"degrees",14.285714285714,0
"5e8ea2396c1dea158c64201f",3,"Highlight U A","TEMPERATURE","MORNING","Study1","U","JOL",7394,"35",4350,"Morning",100,100
"5e8f0692facc7d1c12b4c9a1",3,"Highlight U A","TEMPERATURE","MORNING","Study1","U","JOL",3678,"2",1836,"hot",20,0
"5ecc445313612d13075ef35f",3,"Highlight U A","TEMPERATURE","MORNING","Study1","U","JOL",2331,"70",9099,"Hot",20,0
"5ede34f5255765051d450b9f",3,"Highlight U A","TEMPERATURE","MORNING","Study1","U","JOL_H",7973,"70",3606,"Hot",20,0
"5ede7a750fcb900e98650b4f",3,"Highlight U A","TEMPERATURE","MORNING","Study1","U","JOL",4914,"30",15744,"MORNING",100,100
"5edfc2644280d62da10b4add",3,"Highlight U A","TEMPERATURE","MORNING","Study1","U","JOL",3258,"10",2974,"morning",100,100
"5ee7d5e2b90cb30ab937a8b9",3,"Highlight U A","TEMPERATURE","MORNING","Study1","U","JOL_H",1770,"90",2524,"mornijng",93.333333333333,100
"5eff4daa9f1ee84c8cf687db",3,"Highlight U A","TEMPERATURE","MORNING","Study1","U","JOL_H",6219,"20",1966,"MORNING",100,100
"5f05b44498000b0600d6c910",3,"Highlight U A","TEMPERATURE","MORNING","Study1","U","JOL_H",5719,"55",43263,"toil",36.363636363636,0
"5f0d11458b49e51e2fc65c83",3,"Highlight U A","TEMPERATURE","MORNING","Study1","U","JOL",30330,"30",25566,"party",16.666666666667,0
"5f107c6479c9e00788c3df28",3,"Highlight U A","TEMPERATURE","MORNING","Study1","U","JOL_H",5245,"60",4704,"morning",100,100
"5f118646a89ac3000b047862",3,"Highlight U A","TEMPERATURE","MORNING","Study1","U","JOL_H",4254,"40",2949,"morning",100,100
"5f14359cc1b7a74789b1075c",3,"Highlight U A","TEMPERATURE","MORNING","Study1","U","JOL",3558,"50",2860,"Degree ",15.384615384615,0
"5f181fe8617dcb1ff653b88b",3,"Highlight U A","TEMPERATURE","MORNING","Study1","U","JOL_H",2552,"80",2754,"MORNING",100,100
"59d4a376d1ab390001da2d36",3,"Highlight U A","THICK","CONTEST","Study1","U","JOL",3111,"0",4305,"skinned",14.285714285714,0
"5b7b034558f9c1000163630e",3,"Highlight U A","THICK","CONTEST","Study1","U","JOL",4644,"5",4486,"jumper",15.384615384615,0
"5cd05f58395afc00178f3918",3,"Highlight U A","THICK","CONTEST","Study1","U","JOL",2288,"30",3666,"",0,0
"5cf89384abbbdf0015b69296",3,"Highlight U A","THICK","CONTEST","Study1","U","JOL_H",4119,"50",4000,"contest",100,100
"5e6d403dfc5eff000b8329a5",3,"Highlight U A","THICK","CONTEST","Study1","U","JOL_H",9399,"19",4616,"CONTEST",100,100
"5e728270b099d308cbe299f7",3,"Highlight U A","THICK","CONTEST","Study1","U","JOL_H",4932,"40",13518,"competition",44.444444444444,0
"5e728270b099d308cbe299f7",3,"Highlight U A","THICK","CONTEST","Study1","U","JOL",4995,"60",4096,"competition",44.444444444444,0
"5e8ea2396c1dea158c64201f",3,"Highlight U A","THICK","CONTEST","Study1","U","JOL",3730,"10",6072,"Occurence",25,0
"5e8f0692facc7d1c12b4c9a1",3,"Highlight U A","THICK","CONTEST","Study1","U","JOL",1311,"21",2125,"",0,0
"5ecc445313612d13075ef35f",3,"Highlight U A","THICK","CONTEST","Study1","U","JOL",4438,"70",7159,"Trees",50,0
"5ede34f5255765051d450b9f",3,"Highlight U A","THICK","CONTEST","Study1","U","JOL",2839,"30",6229,"",0,0
"5ede7a750fcb900e98650b4f",3,"Highlight U A","THICK","CONTEST","Study1","U","JOL_H",2734,"25",8883,"CONTEST",100,100
"5edfc2644280d62da10b4add",3,"Highlight U A","THICK","CONTEST","Study1","U","JOL_H",2499,"3",4822,"food",18.181818181818,0
"5ee7d5e2b90cb30ab937a8b9",3,"Highlight U A","THICK","CONTEST","Study1","U","JOL",2494,"20",1438,"",0,0
"5eff4daa9f1ee84c8cf687db",3,"Highlight U A","THICK","CONTEST","Study1","U","JOL_H",4131,"0",2229,"",0,0
"5f05b44498000b0600d6c910",3,"Highlight U A","THICK","CONTEST","Study1","U","JOL",5866,"60",5756,"scar",18.181818181818,0
"5f0d11458b49e51e2fc65c83",3,"Highlight U A","THICK","CONTEST","Study1","U","JOL_H",10971,"20",8800,"shake",16.666666666667,0
"5f107c6479c9e00788c3df28",3,"Highlight U A","THICK","CONTEST","Study1","U","JOL_H",3388,"10",4244,"hard",0,0
"5f118646a89ac3000b047862",3,"Highlight U A","THICK","CONTEST","Study1","U","JOL_H",3995,"15",2064,"",0,0
"5f14359cc1b7a74789b1075c",3,"Highlight U A","THICK","CONTEST","Study1","U","JOL",4025,"23",3527,"",0,0
"5f181fe8617dcb1ff653b88b",3,"Highlight U A","THICK","CONTEST","Study1","U","JOL_H",4887,"42",5012,"PILE",18.181818181818,0
"59d4a376d1ab390001da2d36",3,"Highlight U A","VEHICLE","CHARM","Study1","U","JOL_H",2976,"2",1784,"car",75,0
"5b7b034558f9c1000163630e",3,"Highlight U A","VEHICLE","CHARM","Study1","U","JOL",2907,"0",4930,"",0,0
"5cd05f58395afc00178f3918",3,"Highlight U A","VEHICLE","CHARM","Study1","U","JOL",3976,"30",3511,"DRIVE",20,0
"5cf89384abbbdf0015b69296",3,"Highlight U A","VEHICLE","CHARM","Study1","U","JOL_H",3363,"10",2109,"",0,0
"5e6d403dfc5eff000b8329a5",3,"Highlight U A","VEHICLE","CHARM","Study1","U","JOL",11680,"60",3773,"CHARM",100,100
"5e728270b099d308cbe299f7",3,"Highlight U A","VEHICLE","CHARM","Study1","U","JOL_H",2914,"10",1752,"",0,0
"5e8ea2396c1dea158c64201f",3,"Highlight U A","VEHICLE","CHARM","Study1","U","JOL_H",6589,"15",1923,"",0,0
"5e8f0692facc7d1c12b4c9a1",3,"Highlight U A","VEHICLE","CHARM","Study1","U","JOL_H",892,"37",4256,"",0,0
"5ecc445313612d13075ef35f",3,"Highlight U A","VEHICLE","CHARM","Study1","U","JOL",3118,"70",2283,"",0,0
"5ede34f5255765051d450b9f",3,"Highlight U A","VEHICLE","CHARM","Study1","U","JOL",1855,"60",3320,"Drive",20,0
"5ede7a750fcb900e98650b4f",3,"Highlight U A","VEHICLE","CHARM","Study1","U","JOL_H",2983,"25",22029,"",0,0
"5edfc2644280d62da10b4add",3,"Highlight U A","VEHICLE","CHARM","Study1","U","JOL",5617,"5",2641,"car",75,0
"5ee7d5e2b90cb30ab937a8b9",3,"Highlight U A","VEHICLE","CHARM","Study1","U","JOL",2045,"20",1035,"",0,0
"5eff4daa9f1ee84c8cf687db",3,"Highlight U A","VEHICLE","CHARM","Study1","U","JOL_H",4606,"90",19335,"",0,0
"5f05b44498000b0600d6c910",3,"Highlight U A","VEHICLE","CHARM","Study1","U","JOL_H",5810,"85",4399,"lush",22.222222222222,0
"5f0d11458b49e51e2fc65c83",3,"Highlight U A","VEHICLE","CHARM","Study1","U","JOL_H",5716,"20",34385,"license",16.666666666667,0
"5f107c6479c9e00788c3df28",3,"Highlight U A","VEHICLE","CHARM","Study1","U","JOL",2212,"0",3026,"",0,0
"5f118646a89ac3000b047862",3,"Highlight U A","VEHICLE","CHARM","Study1","U","JOL_H",2491,"0",1390,"",0,0
"5f14359cc1b7a74789b1075c",3,"Highlight U A","VEHICLE","CHARM","Study1","U","JOL",2846,"4",2399,"Car ",75,0
"5f181fe8617dcb1ff653b88b",3,"Highlight U A","VEHICLE","CHARM","Study1","U","JOL",3995,"10",10156,"",0,0
"59d4a376d1ab390001da2d36",3,"Highlight U A","WARN","SEA","Study1","U","JOL",2734,"6",2006,"sign",28.571428571429,0
"5b7b034558f9c1000163630e",3,"Highlight U A","WARN","SEA","Study1","U","JOL",4033,"25",4577,"sea",100,100
"5cd05f58395afc00178f3918",3,"Highlight U A","WARN","SEA","Study1","U","JOL",5742,"30",4379,"SEA",100,100
"5cf89384abbbdf0015b69296",3,"Highlight U A","WARN","SEA","Study1","U","JOL",3198,"10",1749,"",0,0
"5e6d403dfc5eff000b8329a5",3,"Highlight U A","WARN","SEA","Study1","U","JOL_H",12476,"57",4959,"SEA",100,100
"5e728270b099d308cbe299f7",3,"Highlight U A","WARN","SEA","Study1","U","JOL",3006,"10",6349,"temperature",28.571428571429,0
"5e8ea2396c1dea158c64201f",3,"Highlight U A","WARN","SEA","Study1","U","JOL_H",12244,"15",1589,"",0,0
"5e8f0692facc7d1c12b4c9a1",3,"Highlight U A","WARN","SEA","Study1","U","JOL_H",23666,"32",761,"",0,0
"5ecc445313612d13075ef35f",3,"Highlight U A","WARN","SEA","Study1","U","JOL_H",3352,"70",5720,"Election",18.181818181818,0
"5ede34f5255765051d450b9f",3,"Highlight U A","WARN","SEA","Study1","U","JOL_H",1905,"35",17462,"",0,0
"5ede7a750fcb900e98650b4f",3,"Highlight U A","WARN","SEA","Study1","U","JOL",3274,"80",5489,"SEA",100,100
"5edfc2644280d62da10b4add",3,"Highlight U A","WARN","SEA","Study1","U","JOL_H",2705,"8",5358,"Danger",22.222222222222,0
"5ee7d5e2b90cb30ab937a8b9",3,"Highlight U A","WARN","SEA","Study1","U","JOL_H",1735,"60",1949,"",0,0
"5eff4daa9f1ee84c8cf687db",3,"Highlight U A","WARN","SEA","Study1","U","JOL",3421,"50",1729,"",0,0
"5f05b44498000b0600d6c910",3,"Highlight U A","WARN","SEA","Study1","U","JOL",4416,"45",495786,"hide",28.571428571429,0
"5f0d11458b49e51e2fc65c83",3,"Highlight U A","WARN","SEA","Study1","U","JOL",5790,"40",11390,"storm",25,0
"5f107c6479c9e00788c3df28",3,"Highlight U A","WARN","SEA","Study1","U","JOL",4516,"40",5328,"sea",100,100
"5f118646a89ac3000b047862",3,"Highlight U A","WARN","SEA","Study1","U","JOL_H",6576,"10",2901,"sea",100,100
"5f14359cc1b7a74789b1075c",3,"Highlight U A","WARN","SEA","Study1","U","JOL_H",2937,"4",1488,"",0,0
"5f181fe8617dcb1ff653b88b",3,"Highlight U A","WARN","SEA","Study1","U","JOL_H",7556,"32",1321,"",0,0
"5a08ea4ab921bc0001e1c10a",4,"Highlight U B","BAT","SHAKY","Study1","U","JOL",4258,"10",5113,"shaky",100,100
"5bbca1aff1f9ba000141ed51",4,"Highlight U B","BAT","SHAKY","Study1","U","JOL_H",974,"0",1361,"",0,0
"5c57c0dad3cc6b0001d9f27a",4,"Highlight U B","BAT","SHAKY","Study1","U","JOL_H",4570,"65",3980,"Shaky",100,100
"5d1b9a5c720de60001e3d092",4,"Highlight U B","BAT","SHAKY","Study1","U","JOL_H",6340,"4",2280,"",0,0
"5ded5708789cb34034edeca0",4,"Highlight U B","BAT","SHAKY","Study1","U","JOL_H",2553,"13",6362,"COVID",0,0
"5e9f840678eeb111db8791a7",4,"Highlight U B","BAT","SHAKY","Study1","U","JOL_H",4116,"27",1422,"",0,0
"5ec3eb6fba4d1c07580361d7",4,"Highlight U B","BAT","SHAKY","Study1","U","JOL_H",2815,"3",2284,"",0,0
"5ed193f07a20010f3b111f8f",4,"Highlight U B","BAT","SHAKY","Study1","U","JOL",4013,"80",5102,"shake",80,100
"5ee7a70c55e80504fa3bc6ab",4,"Highlight U B","BAT","SHAKY","Study1","U","JOL",978,"0",1031,"",0,0
"5eeb8a086580b8325095e4c2",4,"Highlight U B","BAT","SHAKY","Study1","U","JOL_H",11147,"50",5854,"shaky",100,100
"5eebefc4011d131823cc946d",4,"Highlight U B","BAT","SHAKY","Study1","U","JOL",3861,"6",5710,"APPLE",20,0
"5eed652a24c83c1975669e88",4,"Highlight U B","BAT","SHAKY","Study1","U","JOL_H",15635,"15",2250,"shaky",100,100
"5eefd5023c8aa10d725232c0",4,"Highlight U B","BAT","SHAKY","Study1","U","JOL",2484,"26",4028,"BALL",22.222222222222,0
"5ef3be64ab97a515fee48860",4,"Highlight U B","BAT","SHAKY","Study1","U","JOL_H",3806,"50",2131,"fly",25,0
"5ef516fac843781447f13719",4,"Highlight U B","BAT","SHAKY","Study1","U","JOL_H",13807,"66",3614,"man",25,0
"5efd41a487c4ec1945330e9a",4,"Highlight U B","BAT","SHAKY","Study1","U","JOL",2335,"10",4445,"Skinny",54.545454545455,0
"5f02af6b48794713aeb4fa60",4,"Highlight U B","BAT","SHAKY","Study1","U","JOL_H",13816,"20",5019,"shaky",100,100
"5f03144271d0604adc1a5e8b",4,"Highlight U B","BAT","SHAKY","Study1","U","JOL",1757,"45",5495,"Baseball",15.384615384615,0
"5f03925ce916352e06a548e5",4,"Highlight U B","BAT","SHAKY","Study1","U","JOL",1393,"84",1808,"cave",22.222222222222,0
"5f0e14710d314a0b7748f665",4,"Highlight U B","BAT","SHAKY","Study1","U","JOL_H",1873,"1",2805,"",0,0
"5a08ea4ab921bc0001e1c10a",4,"Highlight U B","BOTH","OUNCE","Study1","U","JOL",7448,"20",5276,"",0,0
"5bbca1aff1f9ba000141ed51",4,"Highlight U B","BOTH","OUNCE","Study1","U","JOL",4871,"0",3527,"",0,0
"5c57c0dad3cc6b0001d9f27a",4,"Highlight U B","BOTH","OUNCE","Study1","U","JOL",3803,"0",6645,"",0,0
"5d1b9a5c720de60001e3d092",4,"Highlight U B","BOTH","OUNCE","Study1","U","JOL_H",3885,"1",4675,"",0,0
"5ded5708789cb34034edeca0",4,"Highlight U B","BOTH","OUNCE","Study1","U","JOL_H",609,"9",4298,"NIETHER",33.333333333333,0
"5e9f840678eeb111db8791a7",4,"Highlight U B","BOTH","OUNCE","Study1","U","JOL",3483,"22",4232,"EASY",22.222222222222,0
"5ec3eb6fba4d1c07580361d7",4,"Highlight U B","BOTH","OUNCE","Study1","U","JOL_H",2282,"10",1534,"",0,0
"5ed193f07a20010f3b111f8f",4,"Highlight U B","BOTH","OUNCE","Study1","U","JOL_H",3547,"50",3128,"",0,0
"5ee7a70c55e80504fa3bc6ab",4,"Highlight U B","BOTH","OUNCE","Study1","U","JOL_H",655,"0",658,"",0,0
"5eeb8a086580b8325095e4c2",4,"Highlight U B","BOTH","OUNCE","Study1","U","JOL",5891,"40",11179,"ounce",100,100
"5eebefc4011d131823cc946d",4,"Highlight U B","BOTH","OUNCE","Study1","U","JOL",4449,"8",3074,"NOPE",44.444444444444,0
"5eed652a24c83c1975669e88",4,"Highlight U B","BOTH","OUNCE","Study1","U","JOL",6090,"30",3495,"ounce",100,100
"5eefd5023c8aa10d725232c0",4,"Highlight U B","BOTH","OUNCE","Study1","U","JOL",3008,"23",11290,"GONE",66.666666666667,0
"5ef3be64ab97a515fee48860",4,"Highlight U B","BOTH","OUNCE","Study1","U","JOL_H",2161,"40",795,"",0,0
"5ef516fac843781447f13719",4,"Highlight U B","BOTH","OUNCE","Study1","U","JOL",1481,"86",3121,"neither",33.333333333333,0
"5efd41a487c4ec1945330e9a",4,"Highlight U B","BOTH","OUNCE","Study1","U","JOL_H",2696,"20",3393,"Need",44.444444444444,0
"5f02af6b48794713aeb4fa60",4,"Highlight U B","BOTH","OUNCE","Study1","U","JOL",2341,"10",18406,"main",22.222222222222,0
"5f03144271d0604adc1a5e8b",4,"Highlight U B","BOTH","OUNCE","Study1","U","JOL",1689,"65",5398,"Twins",20,0
"5f03925ce916352e06a548e5",4,"Highlight U B","BOTH","OUNCE","Study1","U","JOL_H",1306,"64",3416,"none",44.444444444444,0
"5f0e14710d314a0b7748f665",4,"Highlight U B","BOTH","OUNCE","Study1","U","JOL_H",828,"2",1013,"",0,0
"5a08ea4ab921bc0001e1c10a",4,"Highlight U B","BROAD","INFECT","Study1","U","JOL_H",4719,"50",2899,"",0,0
"5bbca1aff1f9ba000141ed51",4,"Highlight U B","BROAD","INFECT","Study1","U","JOL",3102,"0",4747,"WIDE",40,0
"5c57c0dad3cc6b0001d9f27a",4,"Highlight U B","BROAD","INFECT","Study1","U","JOL_H",4007,"10",4970,"Sign",40,0
"5d1b9a5c720de60001e3d092",4,"Highlight U B","BROAD","INFECT","Study1","U","JOL_H",5830,"3",2990,"",0,0
"5ded5708789cb34034edeca0",4,"Highlight U B","BROAD","INFECT","Study1","U","JOL",1155,"2",5495,"SHOULDERS",13.333333333333,0
"5e9f840678eeb111db8791a7",4,"Highlight U B","BROAD","INFECT","Study1","U","JOL",11763,"80",754,"",0,0
"5ec3eb6fba4d1c07580361d7",4,"Highlight U B","BROAD","INFECT","Study1","U","JOL",3323,"10",5631,"CLOSET",33.333333333333,0
"5ed193f07a20010f3b111f8f",4,"Highlight U B","BROAD","INFECT","Study1","U","JOL_H",4369,"10",3263,"",0,0
"5ee7a70c55e80504fa3bc6ab",4,"Highlight U B","BROAD","INFECT","Study1","U","JOL_H",856,"0",2822,"Weather",30.769230769231,0
"5eeb8a086580b8325095e4c2",4,"Highlight U B","BROAD","INFECT","Study1","U","JOL_H",12242,"65",21434,"degree",16.666666666667,0
"5eebefc4011d131823cc946d",4,"Highlight U B","BROAD","INFECT","Study1","U","JOL_H",2509,"0",11791,"ARRANGE",30.769230769231,0
"5eed652a24c83c1975669e88",4,"Highlight U B","BROAD","INFECT","Study1","U","JOL",2962,"60",7673,"highway",15.384615384615,0
"5eefd5023c8aa10d725232c0",4,"Highlight U B","BROAD","INFECT","Study1","U","JOL",15220,"20",5673,"THIN",40,0
"5ef3be64ab97a515fee48860",4,"Highlight U B","BROAD","INFECT","Study1","U","JOL_H",1200,"50",1559,"",0,0
"5ef516fac843781447f13719",4,"Highlight U B","BROAD","INFECT","Study1","U","JOL_H",1157,"75",4130,"bean",20,0
"5efd41a487c4ec1945330e9a",4,"Highlight U B","BROAD","INFECT","Study1","U","JOL",3423,"30",2301,"",0,0
"5f02af6b48794713aeb4fa60",4,"Highlight U B","BROAD","INFECT","Study1","U","JOL",4215,"80",9856,"throat",16.666666666667,0
"5f03144271d0604adc1a5e8b",4,"Highlight U B","BROAD","INFECT","Study1","U","JOL",1936,"45",3762,"City",40,0
"5f03925ce916352e06a548e5",4,"Highlight U B","BROAD","INFECT","Study1","U","JOL",2195,"73",1521,"side",40,0
"5f0e14710d314a0b7748f665",4,"Highlight U B","BROAD","INFECT","Study1","U","JOL",1818,"6",1835,"",0,0
"5a08ea4ab921bc0001e1c10a",4,"Highlight U B","CAKE","CLOTHES","Study1","U","JOL_H",7817,"40",17883,"",0,0
"5bbca1aff1f9ba000141ed51",4,"Highlight U B","CAKE","CLOTHES","Study1","U","JOL",1447,"0",2651,"",0,0
"5c57c0dad3cc6b0001d9f27a",4,"Highlight U B","CAKE","CLOTHES","Study1","U","JOL",4356,"50",3718,"Clothes",100,100
"5d1b9a5c720de60001e3d092",4,"Highlight U B","CAKE","CLOTHES","Study1","U","JOL_H",10719,"10",11011,"",0,0
"5ded5708789cb34034edeca0",4,"Highlight U B","CAKE","CLOTHES","Study1","U","JOL",3367,"56",4014,"COOKIE",46.153846153846,0
"5ded5708789cb34034edeca0",4,"Highlight U B","CAKE","CLOTHES","Study1","U","JOL_H",907,"2",3308,"CLOTHES",100,100
"5e9f840678eeb111db8791a7",4,"Highlight U B","CAKE","CLOTHES","Study1","U","JOL",4528,"24",987,"",0,0
"5ec3eb6fba4d1c07580361d7",4,"Highlight U B","CAKE","CLOTHES","Study1","U","JOL",7274,"25",2228,"",0,0
"5ec3eb6fba4d1c07580361d7",4,"Highlight U B","CAKE","CLOTHES","Study1","U","JOL_H",3830,"10",2619,"CLOTHES",100,100
"5ed193f07a20010f3b111f8f",4,"Highlight U B","CAKE","CLOTHES","Study1","U","JOL",6570,"20",11191,"children",40,0
"5ee7a70c55e80504fa3bc6ab",4,"Highlight U B","CAKE","CLOTHES","Study1","U","JOL_H",1403,"0",908,"",0,0
"5eeb8a086580b8325095e4c2",4,"Highlight U B","CAKE","CLOTHES","Study1","U","JOL",7450,"33",2742,"cloth",83.333333333333,0
"5eebefc4011d131823cc946d",4,"Highlight U B","CAKE","CLOTHES","Study1","U","JOL_H",3368,"30",3165,"ICE",40,0
"5eed652a24c83c1975669e88",4,"Highlight U B","CAKE","CLOTHES","Study1","U","JOL",2630,"25",14406,"",0,0
"5eefd5023c8aa10d725232c0",4,"Highlight U B","CAKE","CLOTHES","Study1","U","JOL_H",2397,"23",7567,"COIN",36.363636363636,0
"5ef3be64ab97a515fee48860",4,"Highlight U B","CAKE","CLOTHES","Study1","U","JOL_H",1786,"50",3377,"",0,0
"5ef516fac843781447f13719",4,"Highlight U B","CAKE","CLOTHES","Study1","U","JOL_H",1163,"45",7878,"collect",42.857142857143,0
"5efd41a487c4ec1945330e9a",4,"Highlight U B","CAKE","CLOTHES","Study1","U","JOL_H",1800,"50",3035,"Clothes",100,100
"5f02af6b48794713aeb4fa60",4,"Highlight U B","CAKE","CLOTHES","Study1","U","JOL",10703,"85",8241,"crayon",30.769230769231,0
