Username,ID,ExperimentName,Session,Trial,Date,TimeDif,"Condition Number","Stimuli File","Order File","Condition Description","Condition Notes",Stimuli*Cue,Stimuli*Answer,Stimuli*Shuffle,"Stimuli*Stimuli Notes",Stimuli*Value,Procedure*Item,"Procedure*Trial Type","Procedure*Max Time","Procedure*Min Time",Procedure*Text,"Procedure*Procedure Notes",Procedure*Shuffle,Response*RT,Response*Response,Response*Accuracy,Response*RTfirst,Response*RTlast,Response*strictAcc,Response*lenientAcc,Response*focus,Response*JOL,Response*Focus
5eed3ee1ddae2c160f750f31,m53k4zzsh7,Trevor_EX2,1,1,2020-07-23T14:24:43-07:00,6.2139670848846,2,Pure_Unrelated.csv,JOL_S_VersionB.csv,"Size U B","Size U B",,,,,,0,Instruct,-,5,"In this section, you will be presented with a series of word pairs.",Initial_Instruct,Instruct1,5984,,,-1,-1,,,,,1
5eed3ee1ddae2c160f750f31,m53k4zzsh7,Trevor_EX2,1,2,2020-07-23T14:24:54-07:00,11.319640874863,2,Pure_Unrelated.csv,JOL_S_VersionB.csv,"Size U B","Size U B",,,,,,0,Instruct,-,5,"As you study, you will be asked to rate your ability to remember the second item in the pair if you were only shown the first at test. You will make these ratings using a 0 to 100 Scale.",,Instruct13,10905,,,-1,-1,,,,,1
5eed3ee1ddae2c160f750f31,m53k4zzsh7,Trevor_EX2,1,3,2020-07-23T14:25:07-07:00,13.375854969025,2,Pure_Unrelated.csv,JOL_S_VersionB.csv,"Size U B","Size U B",,,,,,0,Instruct,-,10,"For example, if you are given the pair CAT - DOG, a rating of 0 indicates that you would not remember DOG at test, while a rating of 100 indicates full certainty that you would remember the word DOG at test.",,Instruct14,13043,,,-1,-1,,,,,0.765
5eed3ee1ddae2c160f750f31,m53k4zzsh7,Trevor_EX2,1,4,2020-07-23T14:25:19-07:00,11.476556062698,2,Pure_Unrelated.csv,JOL_S_VersionB.csv,"Size U B","Size U B",,,,,,0,Instruct,-,10,"When making your ratings, it is criticial that you use the full range of the scale. You will be disqualified for only giving ratings of 0 or 100! After making your rating, press Enter to advance to the next pair.",,Instruct15,11111,,,-1,-1,,,,,0.833
5eed3ee1ddae2c160f750f31,m53k4zzsh7,Trevor_EX2,1,5,2020-07-23T14:25:20-07:00,1.5160591602325,2,Pure_Unrelated.csv,JOL_S_VersionB.csv,"Size U B","Size U B",,,,,,0,Instruct,User,-,"You will now begin the study. Press Enter when you are ready to begin.",,Instruct16,1116,,,-1,-1,,,,,1
5eed3ee1ddae2c160f750f31,m53k4zzsh7,Trevor_EX2,1,6,2020-07-23T14:25:25-07:00,5.1952569484711,2,Pure_Unrelated.csv,JOL_S_VersionB.csv,"Size U B","Size U B",NOODLE,STRING,BUFFER3,Buffer,92,52,JOL_Small,User,-,"How likely are you to correctly recall the second item in the pair?|Type your response on a scale from 0-100 and then press Enter.",Study/JOL,BUFFER,4877,,,3783,4635,,,,100,1
5eed3ee1ddae2c160f750f31,m53k4zzsh7,Trevor_EX2,1,7,2020-07-23T14:25:29-07:00,3.9865009784698,2,Pure_Unrelated.csv,JOL_S_VersionB.csv,"Size U B","Size U B",CAMP,ADVENTURE,BUFFER3,Buffer,95,53,JOL_Small,User,-,"How likely are you to correctly recall the second item in the pair?|Type your response on a scale from 0-100 and then press Enter.",Study/JOL,BUFFER,3653,,,3134,3219,,,,80,1
5eed3ee1ddae2c160f750f31,m53k4zzsh7,Trevor_EX2,1,8,2020-07-23T14:25:32-07:00,2.8113460540771,2,Pure_Unrelated.csv,JOL_S_VersionB.csv,"Size U B","Size U B",ICE,FROZEN,BUFFER3,Buffer,94,55,JOL_Large,User,-,"How likely are you to correctly recall the second item in the pair?|Type your response on a scale from 0-100 and then press Enter.",Study/JOL,BUFFER,2473,,,1552,2202,,,,100,1
5eed3ee1ddae2c160f750f31,m53k4zzsh7,Trevor_EX2,1,9,2020-07-23T14:25:37-07:00,4.3319020271301,2,Pure_Unrelated.csv,JOL_S_VersionB.csv,"Size U B","Size U B",CARROT,POTATO,BUFFER3,Buffer,91,54,JOL_Small,User,-,"How likely are you to correctly recall the second item in the pair?|Type your response on a scale from 0-100 and then press Enter.",Study/JOL,BUFFER,4033,,,2276,2393,,,,70,1
5eed3ee1ddae2c160f750f31,m53k4zzsh7,Trevor_EX2,1,10,2020-07-23T14:25:39-07:00,2.8477499485016,2,Pure_Unrelated.csv,JOL_S_VersionB.csv,"Size U B","Size U B",SHRIMP,FISH,BUFFER3,Buffer,93,56,JOL_Large,User,-,"How likely are you to correctly recall the second item in the pair?|Type your response on a scale from 0-100 and then press Enter.",Study/JOL,BUFFER,2533,,,2230,2310,,,,80,1
5eed3ee1ddae2c160f750f31,m53k4zzsh7,Trevor_EX2,1,11,2020-07-23T14:25:42-07:00,2.6484799385071,2,Pure_Unrelated.csv,JOL_S_VersionB.csv,"Size U B","Size U B",HAND,FIX,Study2,U,105,79,JOL_Small,User,-,"How likely are you to correctly recall the second item in the pair?|Type your response on a scale from 0-100 and then press Enter.",Study/JOL,"Study Phase",2332,,,2006,2134,,,,60,1
5eed3ee1ddae2c160f750f31,m53k4zzsh7,Trevor_EX2,1,12,2020-07-23T14:25:46-07:00,4.1816160678864,2,Pure_Unrelated.csv,JOL_S_VersionB.csv,"Size U B","Size U B",SYSTEM,LICK,Study2,U,167,87,JOL_Small,User,-,"How likely are you to correctly recall the second item in the pair?|Type your response on a scale from 0-100 and then press Enter.",Study/JOL,"Study Phase",3795,,,3463,3590,,,,30,1
5eed3ee1ddae2c160f750f31,m53k4zzsh7,Trevor_EX2,1,13,2020-07-23T14:25:49-07:00,2.5093278884888,2,Pure_Unrelated.csv,JOL_S_VersionB.csv,"Size U B","Size U B",FLOAT,HARMONY,Study2,U,161,64,JOL_Large,User,-,"How likely are you to correctly recall the second item in the pair?|Type your response on a scale from 0-100 and then press Enter.",Study/JOL,"Study Phase",2174,,,1595,1734,,,,30,1
5eed3ee1ddae2c160f750f31,m53k4zzsh7,Trevor_EX2,1,14,2020-07-23T14:25:51-07:00,2.0610539913177,2,Pure_Unrelated.csv,JOL_S_VersionB.csv,"Size U B","Size U B",ZOO,THUMB,Study2,U,168,76,JOL_Large,User,-,"How likely are you to correctly recall the second item in the pair?|Type your response on a scale from 0-100 and then press Enter.",Study/JOL,"Study Phase",1739,,,1214,1377,,,,30,1
5eed3ee1ddae2c160f750f31,m53k4zzsh7,Trevor_EX2,1,15,2020-07-23T14:25:54-07:00,3.407478094101,2,Pure_Unrelated.csv,JOL_S_VersionB.csv,"Size U B","Size U B",WASTE,SEDATE,Study2,U,165,82,JOL_Small,User,-,"How likely are you to correctly recall the second item in the pair?|Type your response on a scale from 0-100 and then press Enter.",Study/JOL,"Study Phase",2987,,,2531,2706,,,,40,1
5eed3ee1ddae2c160f750f31,m53k4zzsh7,Trevor_EX2,1,16,2020-07-23T14:25:59-07:00,4.5957078933716,2,Pure_Unrelated.csv,JOL_S_VersionB.csv,"Size U B","Size U B",Business,Death,Study2,U,102,59,JOL_Large,User,-,"How likely are you to correctly recall the second item in the pair?|Type your response on a scale from 0-100 and then press Enter.",Study/JOL,"Study Phase",4282,,,3179,3781,,,,10,1
5eed3ee1ddae2c160f750f31,m53k4zzsh7,Trevor_EX2,1,17,2020-07-23T14:26:01-07:00,2.0197451114655,2,Pure_Unrelated.csv,JOL_S_VersionB.csv,"Size U B","Size U B",STOMACH,TOWN,Study2,U,159,96,JOL_Small,User,-,"How likely are you to correctly recall the second item in the pair?|Type your response on a scale from 0-100 and then press Enter.",Study/JOL,"Study Phase",1688,,,1306,1307,,,,0,1
5eed3ee1ddae2c160f750f31,m53k4zzsh7,Trevor_EX2,1,18,2020-07-23T14:26:04-07:00,3.6693170070648,2,Pure_Unrelated.csv,JOL_S_VersionB.csv,"Size U B","Size U B",BRONZE,ARTERY,Study2,U,104,73,JOL_Large,User,-,"How likely are you to correctly recall the second item in the pair?|Type your response on a scale from 0-100 and then press Enter.",Study/JOL,"Study Phase",3343,,,3006,3102,,,,20,1
5eed3ee1ddae2c160f750f31,m53k4zzsh7,Trevor_EX2,1,19,2020-07-23T14:26:07-07:00,2.5422639846802,2,Pure_Unrelated.csv,JOL_S_VersionB.csv,"Size U B","Size U B",NULL,COUGH,Study2,U,156,89,JOL_Small,User,-,"How likely are you to correctly recall the second item in the pair?|Type your response on a scale from 0-100 and then press Enter.",Study/JOL,"Study Phase",2216,,,1617,1793,,,,20,1
5eed3ee1ddae2c160f750f31,m53k4zzsh7,Trevor_EX2,1,20,2020-07-23T14:26:10-07:00,2.9479868412018,2,Pure_Unrelated.csv,JOL_S_VersionB.csv,"Size U B","Size U B",DEGREE,CHAIR,Study1,U,71,23,JOL_Small,User,-,"How likely are you to correctly recall the second item in the pair?|Type your response on a scale from 0-100 and then press Enter.",Study/JOL,"Study Phase",2565,,,1992,2109,,,,10,1
5eed3ee1ddae2c160f750f31,m53k4zzsh7,Trevor_EX2,1,21,2020-07-23T14:26:12-07:00,2.1891460418701,2,Pure_Unrelated.csv,JOL_S_VersionB.csv,"Size U B","Size U B",LAKE,OPINION,Study2,U,160,94,JOL_Small,User,-,"How likely are you to correctly recall the second item in the pair?|Type your response on a scale from 0-100 and then press Enter.",Study/JOL,"Study Phase",1807,,,1464,1597,,,,10,1
5eed3ee1ddae2c160f750f31,m53k4zzsh7,Trevor_EX2,1,22,2020-07-23T14:26:14-07:00,2.1954221725464,2,Pure_Unrelated.csv,JOL_S_VersionB.csv,"Size U B","Size U B",SLIM,KNOW,Study2,U,164,81,JOL_Small,User,-,"How likely are you to correctly recall the second item in the pair?|Type your response on a scale from 0-100 and then press Enter.",Study/JOL,"Study Phase",1779,,,1432,1571,,,,10,1
5eed3ee1ddae2c160f750f31,m53k4zzsh7,Trevor_EX2,1,23,2020-07-23T14:26:16-07:00,1.932363986969,2,Pure_Unrelated.csv,JOL_S_VersionB.csv,"Size U B","Size U B",ADD,VALLEY,Study2,U,112,84,JOL_Small,User,-,"How likely are you to correctly recall the second item in the pair?|Type your response on a scale from 0-100 and then press Enter.",Study/JOL,"Study Phase",1638,,,995,1139,,,,20,1
5eed3ee1ddae2c160f750f31,m53k4zzsh7,Trevor_EX2,1,24,2020-07-23T14:26:19-07:00,2.9010829925537,2,Pure_Unrelated.csv,JOL_S_VersionB.csv,"Size U B","Size U B",POSITION,MACHINE,Study2,U,106,66,JOL_Large,User,-,"How likely are you to correctly recall the second item in the pair?|Type your response on a scale from 0-100 and then press Enter.",Study/JOL,"Study Phase",2552,,,2138,2258,,,,30,1
5eed3ee1ddae2c160f750f31,m53k4zzsh7,Trevor_EX2,1,25,2020-07-23T14:26:21-07:00,2.2807319164276,2,Pure_Unrelated.csv,JOL_S_VersionB.csv,"Size U B","Size U B",TUCK,ALLOW,Study2,U,108,61,JOL_Large,User,-,"How likely are you to correctly recall the second item in the pair?|Type your response on a scale from 0-100 and then press Enter.",Study/JOL,"Study Phase",1966,,,1207,1362,,,,30,1
5eed3ee1ddae2c160f750f31,m53k4zzsh7,Trevor_EX2,1,26,2020-07-23T14:26:26-07:00,4.5233719348907,2,Pure_Unrelated.csv,JOL_S_VersionB.csv,"Size U B","Size U B",SICK,HIDE,Study2,U,114,91,JOL_Small,User,-,"How likely are you to correctly recall the second item in the pair?|Type your response on a scale from 0-100 and then press Enter.",Study/JOL,"Study Phase",4154,,,3464,3819,,,,40,1
5eed3ee1ddae2c160f750f31,m53k4zzsh7,Trevor_EX2,1,27,2020-07-23T14:26:29-07:00,2.7289471626282,2,Pure_Unrelated.csv,JOL_S_VersionB.csv,"Size U B","Size U B",PUT,ROLL,Study2,U,163,80,JOL_Small,User,-,"How likely are you to correctly recall the second item in the pair?|Type your response on a scale from 0-100 and then press Enter.",Study/JOL,"Study Phase",2353,,,1909,2047,,,,40,1
5eed3ee1ddae2c160f750f31,m53k4zzsh7,Trevor_EX2,1,28,2020-07-23T14:26:31-07:00,2.6079478263855,2,Pure_Unrelated.csv,JOL_S_VersionB.csv,"Size U B","Size U B",FLOOR,DISCOVER,Study2,U,101,67,JOL_Large,User,-,"How likely are you to correctly recall the second item in the pair?|Type your response on a scale from 0-100 and then press Enter.",Study/JOL,"Study Phase",2083,,,1638,1795,,,,60,1
5eed3ee1ddae2c160f750f31,m53k4zzsh7,Trevor_EX2,1,29,2020-07-23T14:26:34-07:00,2.7702021598816,2,Pure_Unrelated.csv,JOL_S_VersionB.csv,"Size U B","Size U B",RIDDLE,SUGAR,Study2,U,111,77,JOL_Small,User,-,"How likely are you to correctly recall the second item in the pair?|Type your response on a scale from 0-100 and then press Enter.",Study/JOL,"Study Phase",2425,,,2096,2208,,,,20,1
5eed3ee1ddae2c160f750f31,m53k4zzsh7,Trevor_EX2,1,30,2020-07-23T14:26:36-07:00,1.8166818618774,2,Pure_Unrelated.csv,JOL_S_VersionB.csv,"Size U B","Size U B",SMOOTH,OMIT,Study2,U,157,63,JOL_Large,User,-,"How likely are you to correctly recall the second item in the pair?|Type your response on a scale from 0-100 and then press Enter.",Study/JOL,"Study Phase",1525,,,1056,1205,,,,20,1
5eed3ee1ddae2c160f750f31,m53k4zzsh7,Trevor_EX2,1,31,2020-07-23T14:26:39-07:00,2.7939260005951,2,Pure_Unrelated.csv,JOL_S_VersionB.csv,"Size U B","Size U B",WOULD,CASH,Study2,U,113,62,JOL_Large,User,-,"How likely are you to correctly recall the second item in the pair?|Type your response on a scale from 0-100 and then press Enter.",Study/JOL,"Study Phase",2303,,,1672,1843,,,,20,1
5eed3ee1ddae2c160f750f31,m53k4zzsh7,Trevor_EX2,1,32,2020-07-23T14:26:41-07:00,2.4588260650635,2,Pure_Unrelated.csv,JOL_S_VersionB.csv,"Size U B","Size U B",SWING,FOG,Study2,U,175,68,JOL_Large,User,-,"How likely are you to correctly recall the second item in the pair?|Type your response on a scale from 0-100 and then press Enter.",Study/JOL,"Study Phase",2120,,,1480,1624,,,,40,1
5eed3ee1ddae2c160f750f31,m53k4zzsh7,Trevor_EX2,1,33,2020-07-23T14:26:44-07:00,2.4111330509186,2,Pure_Unrelated.csv,JOL_S_VersionB.csv,"Size U B","Size U B",LION,ART,Study2,U,109,92,JOL_Small,User,-,"How likely are you to correctly recall the second item in the pair?|Type your response on a scale from 0-100 and then press Enter.",Study/JOL,"Study Phase",2097,,,1670,1787,,,,60,1
5eed3ee1ddae2c160f750f31,m53k4zzsh7,Trevor_EX2,1,34,2020-07-23T14:26:46-07:00,1.9406578540802,2,Pure_Unrelated.csv,JOL_S_VersionB.csv,"Size U B","Size U B",DETECT,FREE,Study2,U,162,78,JOL_Small,User,-,"How likely are you to correctly recall the second item in the pair?|Type your response on a scale from 0-100 and then press Enter.",Study/JOL,"Study Phase",1635,,,1256,1352,,,,20,1
5eed3ee1ddae2c160f750f31,m53k4zzsh7,Trevor_EX2,1,35,2020-07-23T14:26:48-07:00,2.2170531749725,2,Pure_Unrelated.csv,JOL_S_VersionB.csv,"Size U B","Size U B",ACCIDENT,STRONG,Study2,U,110,69,JOL_Large,User,-,"How likely are you to correctly recall the second item in the pair?|Type your response on a scale from 0-100 and then press Enter.",Study/JOL,"Study Phase",1871,,,1463,1607,,,,20,1
5eed3ee1ddae2c160f750f31,m53k4zzsh7,Trevor_EX2,1,36,2020-07-23T14:26:54-07:00,6.4906229972839,2,Pure_Unrelated.csv,JOL_S_VersionB.csv,"Size U B","Size U B",MUTE,WAVE,Study2,U,173,72,JOL_Large,User,-,"How likely are you to correctly recall the second item in the pair?|Type your response on a scale from 0-100 and then press Enter.",Study/JOL,"Study Phase",6134,,,4872,5922,,,,20,1
5eed3ee1ddae2c160f750f31,m53k4zzsh7,Trevor_EX2,1,37,2020-07-23T14:26:57-07:00,2.2935359477997,2,Pure_Unrelated.csv,JOL_S_VersionB.csv,"Size U B","Size U B",ROAD,SCENT,Study2,U,166,74,JOL_Large,User,-,"How likely are you to correctly recall the second item in the pair?|Type your response on a scale from 0-100 and then press Enter.",Study/JOL,"Study Phase",1934,,,1498,1630,,,,50,1
5eed3ee1ddae2c160f750f31,m53k4zzsh7,Trevor_EX2,1,38,2020-07-23T14:26:59-07:00,2.8310370445251,2,Pure_Unrelated.csv,JOL_S_VersionB.csv,"Size U B","Size U B",SACKING,DIETARY,Study2,U,97,95,JOL_Small,User,-,"How likely are you to correctly recall the second item in the pair?|Type your response on a scale from 0-100 and then press Enter.",Study/JOL,"Study Phase",2517,,,2099,2227,,,,10,1
5eed3ee1ddae2c160f750f31,m53k4zzsh7,Trevor_EX2,1,39,2020-07-23T14:27:01-07:00,1.9752938747406,2,Pure_Unrelated.csv,JOL_S_VersionB.csv,"Size U B","Size U B",GUARD,WHEEL,Study2,U,170,75,JOL_Large,User,-,"How likely are you to correctly recall the second item in the pair?|Type your response on a scale from 0-100 and then press Enter.",Study/JOL,"Study Phase",1665,,,1323,1409,,,,60,1
5eed3ee1ddae2c160f750f31,m53k4zzsh7,Trevor_EX2,1,40,2020-07-23T14:27:04-07:00,3.1477589607239,2,Pure_Unrelated.csv,JOL_S_VersionB.csv,"Size U B","Size U B",CLUTTER,PUSHER,Study2,U,96,93,JOL_Small,User,-,"How likely are you to correctly recall the second item in the pair?|Type your response on a scale from 0-100 and then press Enter.",Study/JOL,"Study Phase",2854,,,2385,2604,,,,10,1
5eed3ee1ddae2c160f750f31,m53k4zzsh7,Trevor_EX2,1,41,2020-07-23T14:27:09-07:00,4.1487431526184,2,Pure_Unrelated.csv,JOL_S_VersionB.csv,"Size U B","Size U B",VASE,KING,Study2,U,115,60,JOL_Large,User,-,"How likely are you to correctly recall the second item in the pair?|Type your response on a scale from 0-100 and then press Enter.",Study/JOL,"Study Phase",2772,,,2421,2511,,,,50,1
5eed3ee1ddae2c160f750f31,m53k4zzsh7,Trevor_EX2,1,42,2020-07-23T14:27:11-07:00,2.5457148551941,2,Pure_Unrelated.csv,JOL_S_VersionB.csv,"Size U B","Size U B",WOMAN,LIFT,Study2,U,99,70,JOL_Large,User,-,"How likely are you to correctly recall the second item in the pair?|Type your response on a scale from 0-100 and then press Enter.",Study/JOL,"Study Phase",2241,,,1891,2008,,,,30,1
5eed3ee1ddae2c160f750f31,m53k4zzsh7,Trevor_EX2,1,43,2020-07-23T14:27:15-07:00,3.9204330444336,2,Pure_Unrelated.csv,JOL_S_VersionB.csv,"Size U B","Size U B",JELLY,NAUGHTY,Study2,U,172,65,JOL_Large,User,-,"How likely are you to correctly recall the second item in the pair?|Type your response on a scale from 0-100 and then press Enter.",Study/JOL,"Study Phase",2608,,,2226,2391,,,,30,1
5eed3ee1ddae2c160f750f31,m53k4zzsh7,Trevor_EX2,1,44,2020-07-23T14:27:18-07:00,3.4021501541138,2,Pure_Unrelated.csv,JOL_S_VersionB.csv,"Size U B","Size U B",DESIRE,NOISE,Study2,U,169,90,JOL_Small,User,-,"How likely are you to correctly recall the second item in the pair?|Type your response on a scale from 0-100 and then press Enter.",Study/JOL,"Study Phase",2117,,,1698,1820,,,,40,1
5eed3ee1ddae2c160f750f31,m53k4zzsh7,Trevor_EX2,1,45,2020-07-23T14:27:24-07:00,5.5006017684937,2,Pure_Unrelated.csv,JOL_S_VersionB.csv,"Size U B","Size U B",Business,Death,Study2,U,102,59,JOL_Large,User,-,"How likely are you to correctly recall the second item in the pair?|Type your response on a scale from 0-100 and then press Enter.",Study/JOL,"Study Phase",5184,,,4737,4919,,,,20,1
5eed3ee1ddae2c160f750f31,m53k4zzsh7,Trevor_EX2,1,46,2020-07-23T14:27:29-07:00,4.586118221283,2,Pure_Unrelated.csv,JOL_S_VersionB.csv,"Size U B","Size U B",READY,CORN,Study2,U,158,71,JOL_Large,User,-,"How likely are you to correctly recall the second item in the pair?|Type your response on a scale from 0-100 and then press Enter.",Study/JOL,"Study Phase",4235,,,1902,3811,,,,30,1
5eed3ee1ddae2c160f750f31,m53k4zzsh7,Trevor_EX2,1,47,2020-07-23T14:27:32-07:00,3.1689438819885,2,Pure_Unrelated.csv,JOL_S_VersionB.csv,"Size U B","Size U B",CAR,HAPPY,Study2,U,107,85,JOL_Small,User,-,"How likely are you to correctly recall the second item in the pair?|Type your response on a scale from 0-100 and then press Enter.",Study/JOL,"Study Phase",2857,,,2535,2631,,,,50,1
5eed3ee1ddae2c160f750f31,m53k4zzsh7,Trevor_EX2,1,48,2020-07-23T14:27:35-07:00,2.984316110611,2,Pure_Unrelated.csv,JOL_S_VersionB.csv,"Size U B","Size U B",BELT,SOON,Study2,U,100,57,JOL_Large,User,-,"How likely are you to correctly recall the second item in the pair?|Type your response on a scale from 0-100 and then press Enter.",Study/JOL,"Study Phase",2671,,,1713,1852,,,,20,1
5eed3ee1ddae2c160f750f31,m53k4zzsh7,Trevor_EX2,1,49,2020-07-23T14:27:38-07:00,2.7834069728851,2,Pure_Unrelated.csv,JOL_S_VersionB.csv,"Size U B","Size U B",SPELL,BONE,Study2,U,174,86,JOL_Small,User,-,"How likely are you to correctly recall the second item in the pair?|Type your response on a scale from 0-100 and then press Enter.",Study/JOL,"Study Phase",2439,,,1749,1952,,,,20,1
5eed3ee1ddae2c160f750f31,m53k4zzsh7,Trevor_EX2,1,50,2020-07-23T14:27:40-07:00,2.1989040374756,2,Pure_Unrelated.csv,JOL_S_VersionB.csv,"Size U B","Size U B",PUFF,NUMBER,Study2,U,171,88,JOL_Small,User,-,"How likely are you to correctly recall the second item in the pair?|Type your response on a scale from 0-100 and then press Enter.",Study/JOL,"Study Phase",1869,,,1087,1252,,,,20,1
5eed3ee1ddae2c160f750f31,m53k4zzsh7,Trevor_EX2,1,51,2020-07-23T14:27:42-07:00,2.7133538722992,2,Pure_Unrelated.csv,JOL_S_VersionB.csv,"Size U B","Size U B",DAYS,WEEKS,BUFFER4,Buffer,176,101,JOL_Large,User,-,"How likely are you to correctly recall the second item in the pair?|Type your response on a scale from 0-100 and then press Enter.",Study/JOL,BUFFER2,2397,,,1776,1903,,,,80,1
5eed3ee1ddae2c160f750f31,m53k4zzsh7,Trevor_EX2,1,52,2020-07-23T14:27:45-07:00,3.0626580715179,2,Pure_Unrelated.csv,JOL_S_VersionB.csv,"Size U B","Size U B",TOOL,SHED,BUFFER4,Buffer,178,99,JOL_Small,User,-,"How likely are you to correctly recall the second item in the pair?|Type your response on a scale from 0-100 and then press Enter.",Study/JOL,BUFFER2,2773,,,2419,2537,,,,80,1
5eed3ee1ddae2c160f750f31,m53k4zzsh7,Trevor_EX2,1,53,2020-07-23T14:27:48-07:00,2.5211398601532,2,Pure_Unrelated.csv,JOL_S_VersionB.csv,"Size U B","Size U B",SPRING,MARCH,BUFFER4,Buffer,179,100,JOL_Small,User,-,"How likely are you to correctly recall the second item in the pair?|Type your response on a scale from 0-100 and then press Enter.",Study/JOL,BUFFER2,2119,,,1649,1773,,,,60,1
5eed3ee1ddae2c160f750f31,m53k4zzsh7,Trevor_EX2,1,54,2020-07-23T14:27:50-07:00,2.1846690177917,2,Pure_Unrelated.csv,JOL_S_VersionB.csv,"Size U B","Size U B",MONTH,YEAR,BUFFER4,Buffer,177,97,JOL_Large,User,-,"How likely are you to correctly recall the second item in the pair?|Type your response on a scale from 0-100 and then press Enter.",Study/JOL,BUFFER2,1878,,,1492,1577,,,,80,1
5eed3ee1ddae2c160f750f31,m53k4zzsh7,Trevor_EX2,1,55,2020-07-23T14:27:52-07:00,2.1778090000153,2,Pure_Unrelated.csv,JOL_S_VersionB.csv,"Size U B","Size U B",OCTOBER,SPOOKY,BUFFER4,Buffer,180,98,JOL_Large,User,-,"How likely are you to correctly recall the second item in the pair?|Type your response on a scale from 0-100 and then press Enter.",Study/JOL,BUFFER2,1832,,,914,994,,,,90,1
5eed3ee1ddae2c160f750f31,m53k4zzsh7,Trevor_EX2,1,56,2020-07-23T14:27:54-07:00,1.1432890892029,2,Pure_Unrelated.csv,JOL_S_VersionB.csv,"Size U B","Size U B",,,,,,0,Instruct,User,-,"You have completed this section. Please press Enter.",Filler_Instruction,Instruct2,881,,,-1,-1,,,,,1
5eed3ee1ddae2c160f750f31,m53k4zzsh7,Trevor_EX2,1,57,2020-07-23T14:29:54-07:00,120.55630302429,2,Pure_Unrelated.csv,JOL_S_VersionB.csv,"Size U B","Size U B",,,,,,0,FreeRecall,120,120,"Please list the 50 US states in alphabetical order. The task will automatically advance to the next screen after two minutes.",,Filler1,120188,"Alabama California Florida Idaho Massachusetts New York Rhode Island Texas Washington Wyoming",0,8375,103760,0,0,,,0.951
5eed3ee1ddae2c160f750f31,m53k4zzsh7,Trevor_EX2,1,58,2020-07-23T14:30:07-07:00,13.236793041229,2,Pure_Unrelated.csv,JOL_S_VersionB.csv,"Size U B","Size U B",,,,,,0,Instruct,-,10,"You will now be presented with the first word from each of the previously studied item pairs. Please type the missing word. If you do not know the word, you may guess or press Enter to skip forward to the next pair.",,Instruct3,12173,,,-1,-1,,,,,0.789
5eed3ee1ddae2c160f750f31,m53k4zzsh7,Trevor_EX2,1,59,2020-07-23T14:30:12-07:00,4.5756168365479,2,Pure_Unrelated.csv,JOL_S_VersionB.csv,"Size U B","Size U B",SLIM,KNOW,Study2,U,164,81,Test,User,-,,Recall,Recall1,4192,know,100,3448,3678,1,1,,,1
5eed3ee1ddae2c160f750f31,m53k4zzsh7,Trevor_EX2,1,60,2020-07-23T14:30:15-07:00,2.8307530879974,2,Pure_Unrelated.csv,JOL_S_VersionB.csv,"Size U B","Size U B",FLOOR,DISCOVER,Study2,U,101,67,Test,User,-,,Recall,Recall1,2538,discover,100,1689,2382,1,1,,,1
5eed3ee1ddae2c160f750f31,m53k4zzsh7,Trevor_EX2,1,61,2020-07-23T14:30:17-07:00,1.8000500202179,2,Pure_Unrelated.csv,JOL_S_VersionB.csv,"Size U B","Size U B",SYSTEM,LICK,Study2,U,167,87,Test,User,-,,Recall,Recall1,1558,lick,100,1044,1423,1,1,,,1
5eed3ee1ddae2c160f750f31,m53k4zzsh7,Trevor_EX2,1,62,2020-07-23T14:30:19-07:00,2.307028055191,2,Pure_Unrelated.csv,JOL_S_VersionB.csv,"Size U B","Size U B",LAKE,OPINION,Study2,U,160,94,Test,User,-,,Recall,Recall1,2004,opinion,100,794,1832,1,1,,,1
5eed3ee1ddae2c160f750f31,m53k4zzsh7,Trevor_EX2,1,63,2020-07-23T14:30:21-07:00,2.2275049686432,2,Pure_Unrelated.csv,JOL_S_VersionB.csv,"Size U B","Size U B",SMOOTH,OMIT,Study2,U,157,63,Test,User,-,,Recall,Recall1,1852,omit,100,1383,1682,1,1,,,1
5eed3ee1ddae2c160f750f31,m53k4zzsh7,Trevor_EX2,1,64,2020-07-23T14:30:23-07:00,2.4095089435577,2,Pure_Unrelated.csv,JOL_S_VersionB.csv,"Size U B","Size U B",BRONZE,ARTERY,Study2,U,104,73,Test,User,-,,Recall,Recall1,2049,artery,100,1363,1906,1,1,,,1
5eed3ee1ddae2c160f750f31,m53k4zzsh7,Trevor_EX2,1,65,2020-07-23T14:30:25-07:00,1.590087890625,2,Pure_Unrelated.csv,JOL_S_VersionB.csv,"Size U B","Size U B",WOMAN,LIFT,Study2,U,99,70,Test,User,-,,Recall,Recall1,1260,lift,100,822,1111,1,1,,,1
5eed3ee1ddae2c160f750f31,m53k4zzsh7,Trevor_EX2,1,66,2020-07-23T14:30:28-07:00,2.4736311435699,2,Pure_Unrelated.csv,JOL_S_VersionB.csv,"Size U B","Size U B",MUTE,WAVE,Study2,U,173,72,Test,User,-,,Recall,Recall1,2076,,0,-1,-1,0,0,,,1
5eed3ee1ddae2c160f750f31,m53k4zzsh7,Trevor_EX2,1,67,2020-07-23T14:30:29-07:00,1.9324359893799,2,Pure_Unrelated.csv,JOL_S_VersionB.csv,"Size U B","Size U B",CAR,HAPPY,Study2,U,107,85,Test,User,-,,Recall,Recall1,1648,happy,100,1041,1465,1,1,,,1
5eed3ee1ddae2c160f750f31,m53k4zzsh7,Trevor_EX2,1,68,2020-07-23T14:30:35-07:00,5.2281908988953,2,Pure_Unrelated.csv,JOL_S_VersionB.csv,"Size U B","Size U B",WASTE,SEDATE,Study2,U,165,82,Test,User,-,,Recall,Recall1,4876,,0,-1,-1,0,0,,,1
5eed3ee1ddae2c160f750f31,m53k4zzsh7,Trevor_EX2,1,69,2020-07-23T14:30:44-07:00,9.1621091365814,2,Pure_Unrelated.csv,JOL_S_VersionB.csv,"Size U B","Size U B",SICK,HIDE,Study2,U,114,91,Test,User,-,,Recall,Recall1,8854,,0,-1,-1,0,0,,,1
5eed3ee1ddae2c160f750f31,m53k4zzsh7,Trevor_EX2,1,70,2020-07-23T14:30:46-07:00,2.5989239215851,2,Pure_Unrelated.csv,JOL_S_VersionB.csv,"Size U B","Size U B",SWING,FOG,Study2,U,175,68,Test,User,-,,Recall,Recall1,2246,,0,-1,-1,0,0,,,1
5eed3ee1ddae2c160f750f31,m53k4zzsh7,Trevor_EX2,1,71,2020-07-23T14:30:50-07:00,3.8496890068054,2,Pure_Unrelated.csv,JOL_S_VersionB.csv,"Size U B","Size U B",READY,CORN,Study2,U,158,71,Test,User,-,,Recall,Recall1,3518,cat,28.571428571429,3068,3300,0,0,,,1
5eed3ee1ddae2c160f750f31,m53k4zzsh7,Trevor_EX2,1,72,2020-07-23T14:30:52-07:00,2.1670711040497,2,Pure_Unrelated.csv,JOL_S_VersionB.csv,"Size U B","Size U B",PUT,ROLL,Study2,U,163,80,Test,User,-,,Recall,Recall1,1792,roll,100,1193,1621,1,1,,,1
5eed3ee1ddae2c160f750f31,m53k4zzsh7,Trevor_EX2,1,73,2020-07-23T14:30:57-07:00,4.8333468437195,2,Pure_Unrelated.csv,JOL_S_VersionB.csv,"Size U B","Size U B",SPELL,BONE,Study2,U,174,86,Test,User,-,,Recall,Recall1,4498,stone,66.666666666667,2052,2301,0,0,,,1
5eed3ee1ddae2c160f750f31,m53k4zzsh7,Trevor_EX2,1,74,2020-07-23T14:31:01-07:00,3.4024600982666,2,Pure_Unrelated.csv,JOL_S_VersionB.csv,"Size U B","Size U B",CLUTTER,PUSHER,Study2,U,96,93,Test,User,-,,Recall,Recall1,2081,,0,-1,-1,0,0,,,1
5eed3ee1ddae2c160f750f31,m53k4zzsh7,Trevor_EX2,1,75,2020-07-23T14:31:03-07:00,2.5270659923553,2,Pure_Unrelated.csv,JOL_S_VersionB.csv,"Size U B","Size U B",ADD,VALLEY,Study2,U,112,84,Test,User,-,,Recall,Recall1,2229,,0,-1,-1,0,0,,,1
5eed3ee1ddae2c160f750f31,m53k4zzsh7,Trevor_EX2,1,76,2020-07-23T14:31:06-07:00,2.5328779220581,2,Pure_Unrelated.csv,JOL_S_VersionB.csv,"Size U B","Size U B",SACKING,DIETARY,Study2,U,97,95,Test,User,-,,Recall,Recall1,2222,,0,-1,-1,0,0,,,1
5eed3ee1ddae2c160f750f31,m53k4zzsh7,Trevor_EX2,1,77,2020-07-23T14:31:09-07:00,3.0939450263977,2,Pure_Unrelated.csv,JOL_S_VersionB.csv,"Size U B","Size U B",BELT,SOON,Study2,U,100,57,Test,User,-,,Recall,Recall1,2761,loop,50,2018,2519,0,0,,,1
5eed3ee1ddae2c160f750f31,m53k4zzsh7,Trevor_EX2,1,78,2020-07-23T14:31:11-07:00,1.7982399463654,2,Pure_Unrelated.csv,JOL_S_VersionB.csv,"Size U B","Size U B",Business,Death,Study2,U,102,59,Test,User,-,,Recall,Recall1,1527,death,100,964,1345,1,1,,,1
5eed3ee1ddae2c160f750f31,m53k4zzsh7,Trevor_EX2,1,79,2020-07-23T14:31:15-07:00,4.8362431526184,2,Pure_Unrelated.csv,JOL_S_VersionB.csv,"Size U B","Size U B",DETECT,FREE,Study2,U,162,78,Test,User,-,,Recall,Recall1,4484,free,100,3876,4306,1,1,,,1
5eed3ee1ddae2c160f750f31,m53k4zzsh7,Trevor_EX2,1,80,2020-07-23T14:31:17-07:00,1.4718248844147,2,Pure_Unrelated.csv,JOL_S_VersionB.csv,"Size U B","Size U B",LION,ART,Study2,U,109,92,Test,User,-,,Recall,Recall1,1189,art,100,838,1066,1,1,,,1
5eed3ee1ddae2c160f750f31,m53k4zzsh7,Trevor_EX2,1,81,2020-07-23T14:31:19-07:00,2.1768190860748,2,Pure_Unrelated.csv,JOL_S_VersionB.csv,"Size U B","Size U B",FLOAT,HARMONY,Study2,U,161,64,Test,User,-,,Recall,Recall1,1830,harmony,100,1007,1637,1,1,,,1
5eed3ee1ddae2c160f750f31,m53k4zzsh7,Trevor_EX2,1,82,2020-07-23T14:31:22-07:00,3.2940459251404,2,Pure_Unrelated.csv,JOL_S_VersionB.csv,"Size U B","Size U B",DEGREE,CHAIR,Study1,U,71,23,Test,User,-,,Recall,Recall1,2967,,0,-1,-1,0,0,,,1
5eed3ee1ddae2c160f750f31,m53k4zzsh7,Trevor_EX2,1,83,2020-07-23T14:31:25-07:00,2.3959400653839,2,Pure_Unrelated.csv,JOL_S_VersionB.csv,"Size U B","Size U B",GUARD,WHEEL,Study2,U,170,75,Test,User,-,,Recall,Recall1,2064,wheel,100,1523,1905,1,1,,,1
5eed3ee1ddae2c160f750f31,m53k4zzsh7,Trevor_EX2,1,84,2020-07-23T14:31:28-07:00,3.3979880809784,2,Pure_Unrelated.csv,JOL_S_VersionB.csv,"Size U B","Size U B",ROAD,SCENT,Study2,U,166,74,Test,User,-,,Recall,Recall1,3092,,0,-1,-1,0,0,,,1
5eed3ee1ddae2c160f750f31,m53k4zzsh7,Trevor_EX2,1,85,2020-07-23T14:31:31-07:00,2.3088948726654,2,Pure_Unrelated.csv,JOL_S_VersionB.csv,"Size U B","Size U B",ZOO,THUMB,Study2,U,168,76,Test,User,-,,Recall,Recall1,1971,thumb,100,1354,1810,1,1,,,1
5eed3ee1ddae2c160f750f31,m53k4zzsh7,Trevor_EX2,1,86,2020-07-23T14:31:32-07:00,1.6963300704956,2,Pure_Unrelated.csv,JOL_S_VersionB.csv,"Size U B","Size U B",WOULD,CASH,Study2,U,113,62,Test,User,-,,Recall,Recall1,1438,,0,-1,-1,0,0,,,1
5eed3ee1ddae2c160f750f31,m53k4zzsh7,Trevor_EX2,1,87,2020-07-23T14:31:35-07:00,3.045028924942,2,Pure_Unrelated.csv,JOL_S_VersionB.csv,"Size U B","Size U B",TUCK,ALLOW,Study2,U,108,61,Test,User,-,,Recall,Recall1,2691,allow,100,2046,2568,1,1,,,1
5eed3ee1ddae2c160f750f31,m53k4zzsh7,Trevor_EX2,1,88,2020-07-23T14:31:39-07:00,3.887265920639,2,Pure_Unrelated.csv,JOL_S_VersionB.csv,"Size U B","Size U B",STOMACH,TOWN,Study2,U,159,96,Test,User,-,,Recall,Recall1,3536,,0,-1,-1,0,0,,,1
5eed3ee1ddae2c160f750f31,m53k4zzsh7,Trevor_EX2,1,89,2020-07-23T14:31:42-07:00,3.3227250576019,2,Pure_Unrelated.csv,JOL_S_VersionB.csv,"Size U B","Size U B",NULL,COUGH,Study2,U,156,89,Test,User,-,,Recall,Recall1,2990,,0,-1,-1,0,0,,,1
5eed3ee1ddae2c160f750f31,m53k4zzsh7,Trevor_EX2,1,90,2020-07-23T14:31:45-07:00,2.5960021018982,2,Pure_Unrelated.csv,JOL_S_VersionB.csv,"Size U B","Size U B",PUFF,NUMBER,Study2,U,171,88,Test,User,-,,Recall,Recall1,2206,cough,18.181818181818,1709,2072,0,0,,,1
5eed3ee1ddae2c160f750f31,m53k4zzsh7,Trevor_EX2,1,91,2020-07-23T14:31:47-07:00,1.8880660533905,2,Pure_Unrelated.csv,JOL_S_VersionB.csv,"Size U B","Size U B",ACCIDENT,STRONG,Study2,U,110,69,Test,User,-,,Recall,Recall1,1608,strong,100,1089,1496,1,1,,,1
5eed3ee1ddae2c160f750f31,m53k4zzsh7,Trevor_EX2,1,92,2020-07-23T14:31:48-07:00,1.413382768631,2,Pure_Unrelated.csv,JOL_S_VersionB.csv,"Size U B","Size U B",POSITION,MACHINE,Study2,U,106,66,Test,User,-,,Recall,Recall1,1081,,0,-1,-1,0,0,,,1
5eed3ee1ddae2c160f750f31,m53k4zzsh7,Trevor_EX2,1,93,2020-07-23T14:31:51-07:00,3.0564901828766,2,Pure_Unrelated.csv,JOL_S_VersionB.csv,"Size U B","Size U B",RIDDLE,SUGAR,Study2,U,111,77,Test,User,-,,Recall,Recall1,2711,,0,-1,-1,0,0,,,1
5eed3ee1ddae2c160f750f31,m53k4zzsh7,Trevor_EX2,1,94,2020-07-23T14:31:54-07:00,2.7630288600922,2,Pure_Unrelated.csv,JOL_S_VersionB.csv,"Size U B","Size U B",HAND,FIX,Study2,U,105,79,Test,User,-,,Recall,Recall1,2426,fix,100,2159,2340,1,1,,,1
5eed3ee1ddae2c160f750f31,m53k4zzsh7,Trevor_EX2,1,95,2020-07-23T14:31:58-07:00,3.6464340686798,2,Pure_Unrelated.csv,JOL_S_VersionB.csv,"Size U B","Size U B",VASE,KING,Study2,U,115,60,Test,User,-,,Recall,Recall1,3294,waste,0,2853,3197,0,0,,,1
5eed3ee1ddae2c160f750f31,m53k4zzsh7,Trevor_EX2,1,96,2020-07-23T14:32:00-07:00,2.2745559215546,2,Pure_Unrelated.csv,JOL_S_VersionB.csv,"Size U B","Size U B",JELLY,NAUGHTY,Study2,U,172,65,Test,User,-,,Recall,Recall1,1979,fish,18.181818181818,1420,1682,0,0,,,1
5eed3ee1ddae2c160f750f31,m53k4zzsh7,Trevor_EX2,1,97,2020-07-23T14:32:02-07:00,2.258040189743,2,Pure_Unrelated.csv,JOL_S_VersionB.csv,"Size U B","Size U B",DESIRE,NOISE,Study2,U,169,90,Test,User,-,,Recall,Recall1,1942,,0,-1,-1,0,0,,,1
5eed3ee1ddae2c160f750f31,m53k4zzsh7,Trevor_EX2,1,98,2020-07-23T14:32:04-07:00,1.7029538154602,2,Pure_Unrelated.csv,JOL_S_VersionB.csv,"Size U B","Size U B",Business,Death,Study2,U,102,59,Test,User,-,,Recall,Recall1,1396,death,100,817,1187,1,1,,,1
5eed3ee1ddae2c160f750f31,m53k4zzsh7,Trevor_EX2,1,99,2020-07-23T14:32:25-07:00,20.54768705368,2,Pure_Unrelated.csv,JOL_S_VersionB.csv,"Size U B","Size U B",,,,,,0,Instruct,-,10,"You will now be presented with a new set of word pairs. Please study each pair. Remember that your memory will be tested! When finished, press Enter to move to the next pair.",Initial_Instruct,Instruct4,20256,,,-1,-1,,,,,0.694
5eed3ee1ddae2c160f750f31,m53k4zzsh7,Trevor_EX2,1,100,2020-07-23T14:32:51-07:00,26.713891983032,2,Pure_Unrelated.csv,JOL_S_VersionB.csv,"Size U B","Size U B",,,,,,0,Instruct,,10,"You will again be asked to rate your ability to remember these items using a 0 to 100 scale. Remember to use the full range of the scale!",,Instruct10,26286,,,-1,-1,,,,,0.678
5eed3ee1ddae2c160f750f31,m53k4zzsh7,Trevor_EX2,1,101,2020-07-23T14:32:52-07:00,1.1128029823303,2,Pure_Unrelated.csv,JOL_S_VersionB.csv,"Size U B","Size U B",,,,,,0,Instruct,User,-,"Press Enter when you are readty to begin",,Instruct11,784,,,-1,-1,,,,,1
5eed3ee1ddae2c160f750f31,m53k4zzsh7,Trevor_EX2,1,102,2020-07-23T14:32:57-07:00,4.6510541439056,2,Pure_Unrelated.csv,JOL_S_VersionB.csv,"Size U B","Size U B",SCARE,HIDE,BUFFER1,Buffer,4,2,JOL_Small,User,-,"How likely are you to correctly recall the second item in the pair?|Type your response on a scale from 0-100 and then press Enter.",Study/JOL,BUFFER3,4319,,,3991,4113,,,,70,1
5eed3ee1ddae2c160f750f31,m53k4zzsh7,Trevor_EX2,1,103,2020-07-23T14:32:59-07:00,2.2136399745941,2,Pure_Unrelated.csv,JOL_S_VersionB.csv,"Size U B","Size U B",BASEBALL,CATCHER,BUFFER1,Buffer,2,6,JOL_Large,User,-,"How likely are you to correctly recall the second item in the pair?|Type your response on a scale from 0-100 and then press Enter.",Study/JOL,BUFFER3,1881,,,1604,1720,,,,80,1
5eed3ee1ddae2c160f750f31,m53k4zzsh7,Trevor_EX2,1,104,2020-07-23T14:33:02-07:00,2.2705528736115,2,Pure_Unrelated.csv,JOL_S_VersionB.csv,"Size U B","Size U B",TREES,GREEN,BUFFER1,Buffer,1,4,JOL_Small,User,-,"How likely are you to correctly recall the second item in the pair?|Type your response on a scale from 0-100 and then press Enter.",Study/JOL,BUFFER3,1953,,,1655,1697,,,,80,1
5eed3ee1ddae2c160f750f31,m53k4zzsh7,Trevor_EX2,1,105,2020-07-23T14:33:04-07:00,2.3331670761108,2,Pure_Unrelated.csv,JOL_S_VersionB.csv,"Size U B","Size U B",SPACE,JAM,BUFFER1,Buffer,5,3,JOL_Small,User,-,"How likely are you to correctly recall the second item in the pair?|Type your response on a scale from 0-100 and then press Enter.",Study/JOL,BUFFER3,2040,,,1468,1542,,,,90,1
5eed3ee1ddae2c160f750f31,m53k4zzsh7,Trevor_EX2,1,106,2020-07-23T14:33:06-07:00,1.6564829349518,2,Pure_Unrelated.csv,JOL_S_VersionB.csv,"Size U B","Size U B",PEANUT,BUTTER,BUFFER1,Buffer,3,5,JOL_Large,User,-,"How likely are you to correctly recall the second item in the pair?|Type your response on a scale from 0-100 and then press Enter.",Study/JOL,BUFFER3,1392,,,1066,1135,,,,90,1
5eed3ee1ddae2c160f750f31,m53k4zzsh7,Trevor_EX2,1,107,2020-07-23T14:33:08-07:00,1.9309480190277,2,Pure_Unrelated.csv,JOL_S_VersionB.csv,"Size U B","Size U B",LEASE,TOIL,Study1,U,20,34,JOL_Small,User,-,"How likely are you to correctly recall the second item in the pair?|Type your response on a scale from 0-100 and then press Enter.",Study/JOL,"Study Phase2",1668,,,1345,1414,,,,40,1
5eed3ee1ddae2c160f750f31,m53k4zzsh7,Trevor_EX2,1,108,2020-07-23T14:33:11-07:00,3.0739200115204,2,Pure_Unrelated.csv,JOL_S_VersionB.csv,"Size U B","Size U B",CRACKLE,ABLE,Study1,U,12,44,JOL_Small,User,-,"How likely are you to correctly recall the second item in the pair?|Type your response on a scale from 0-100 and then press Enter.",Study/JOL,"Study Phase2",2737,,,2411,2497,,,,40,1
5eed3ee1ddae2c160f750f31,m53k4zzsh7,Trevor_EX2,1,109,2020-07-23T14:33:13-07:00,2.0173029899597,2,Pure_Unrelated.csv,JOL_S_VersionB.csv,"Size U B","Size U B",TEMPERATURE,MORNING,Study1,U,23,38,JOL_Small,User,-,"How likely are you to correctly recall the second item in the pair?|Type your response on a scale from 0-100 and then press Enter.",Study/JOL,"Study Phase2",1703,,,1303,1409,,,,50,1
5eed3ee1ddae2c160f750f31,m53k4zzsh7,Trevor_EX2,1,110,2020-07-23T14:33:14-07:00,1.6793739795685,2,Pure_Unrelated.csv,JOL_S_VersionB.csv,"Size U B","Size U B",STRESS,YAM,Study1,U,68,43,JOL_Small,User,-,"How likely are you to correctly recall the second item in the pair?|Type your response on a scale from 0-100 and then press Enter.",Study/JOL,"Study Phase2",1415,,,1032,1160,,,,30,1
5eed3ee1ddae2c160f750f31,m53k4zzsh7,Trevor_EX2,1,111,2020-07-23T14:33:16-07:00,1.8665521144867,2,Pure_Unrelated.csv,JOL_S_VersionB.csv,"Size U B","Size U B",MEAT,OBTAIN,Study1,U,11,37,JOL_Small,User,-,"How likely are you to correctly recall the second item in the pair?|Type your response on a scale from 0-100 and then press Enter.",Study/JOL,"Study Phase2",1611,,,1008,1223,,,,30,1
5eed3ee1ddae2c160f750f31,m53k4zzsh7,Trevor_EX2,1,112,2020-07-23T14:33:18-07:00,2.1991200447083,2,Pure_Unrelated.csv,JOL_S_VersionB.csv,"Size U B","Size U B",VEHICLE,CHARM,Study1,U,10,46,JOL_Small,User,-,"How likely are you to correctly recall the second item in the pair?|Type your response on a scale from 0-100 and then press Enter.",Study/JOL,"Study Phase2",1909,,,1566,1683,,,,10,1
5eed3ee1ddae2c160f750f31,m53k4zzsh7,Trevor_EX2,1,113,2020-07-23T14:33:21-07:00,2.5365679264069,2,Pure_Unrelated.csv,JOL_S_VersionB.csv,"Size U B","Size U B",MOAT,CLEAR,Study1,U,19,31,JOL_Small,User,-,"How likely are you to correctly recall the second item in the pair?|Type your response on a scale from 0-100 and then press Enter.",Study/JOL,"Study Phase2",2229,,,1627,1771,,,,30,1
5eed3ee1ddae2c160f750f31,m53k4zzsh7,Trevor_EX2,1,114,2020-07-23T14:33:24-07:00,2.7484490871429,2,Pure_Unrelated.csv,JOL_S_VersionB.csv,"Size U B","Size U B",DIZZY,SWEATER,Study1,U,77,35,JOL_Small,User,-,"How likely are you to correctly recall the second item in the pair?|Type your response on a scale from 0-100 and then press Enter.",Study/JOL,"Study Phase2",2415,,,2007,2145,,,,10,1
5eed3ee1ddae2c160f750f31,m53k4zzsh7,Trevor_EX2,1,115,2020-07-23T14:33:26-07:00,2.841038942337,2,Pure_Unrelated.csv,JOL_S_VersionB.csv,"Size U B","Size U B",DIFFICULT,POOR,Study1,U,81,16,JOL_Large,User,-,"How likely are you to correctly recall the second item in the pair?|Type your response on a scale from 0-100 and then press Enter.",Study/JOL,"Study Phase2",2507,,,2092,2199,,,,50,1
5eed3ee1ddae2c160f750f31,m53k4zzsh7,Trevor_EX2,1,116,2020-07-23T14:33:29-07:00,2.370344877243,2,Pure_Unrelated.csv,JOL_S_VersionB.csv,"Size U B","Size U B",MAZE,ELECTION,Study1,U,9,19,JOL_Large,User,-,"How likely are you to correctly recall the second item in the pair?|Type your response on a scale from 0-100 and then press Enter.",Study/JOL,"Study Phase2",2072,,,1483,1664,,,,40,1
5eed3ee1ddae2c160f750f31,m53k4zzsh7,Trevor_EX2,1,117,2020-07-23T14:33:31-07:00,2.0501511096954,2,Pure_Unrelated.csv,JOL_S_VersionB.csv,"Size U B","Size U B",TAX,OWL,Study1,U,72,39,JOL_Small,User,-,"How likely are you to correctly recall the second item in the pair?|Type your response on a scale from 0-100 and then press Enter.",Study/JOL,"Study Phase2",1786,,,1402,1519,,,,30,1
5eed3ee1ddae2c160f750f31,m53k4zzsh7,Trevor_EX2,1,118,2020-07-23T14:33:34-07:00,3.2031688690186,2,Pure_Unrelated.csv,JOL_S_VersionB.csv,"Size U B","Size U B",MAIN,SCAR,Study1,U,25,24,JOL_Large,User,-,"How likely are you to correctly recall the second item in the pair?|Type your response on a scale from 0-100 and then press Enter.",Study/JOL,"Study Phase2",2915,,,2553,2692,,,,40,1
5eed3ee1ddae2c160f750f31,m53k4zzsh7,Trevor_EX2,1,119,2020-07-23T14:33:36-07:00,2.0630350112915,2,Pure_Unrelated.csv,JOL_S_VersionB.csv,"Size U B","Size U B",FUTURE,SINCERE,Study1,U,70,29,JOL_Small,User,-,"How likely are you to correctly recall the second item in the pair?|Type your response on a scale from 0-100 and then press Enter.",Study/JOL,"Study Phase2",1753,,,1439,1543,,,,20,1
5eed3ee1ddae2c160f750f31,m53k4zzsh7,Trevor_EX2,1,120,2020-07-23T14:33:40-07:00,3.3670241832733,2,Pure_Unrelated.csv,JOL_S_VersionB.csv,"Size U B","Size U B",KEYS,JOKE,Study1,U,15,7,JOL_Large,User,-,"How likely are you to correctly recall the second item in the pair?|Type your response on a scale from 0-100 and then press Enter.",Study/JOL,"Study Phase2",3047,,,2712,2845,,,,10,1
5eed3ee1ddae2c160f750f31,m53k4zzsh7,Trevor_EX2,1,121,2020-07-23T14:33:41-07:00,1.8416998386383,2,Pure_Unrelated.csv,JOL_S_VersionB.csv,"Size U B","Size U B",RESIST,GLUE,Study1,U,69,40,JOL_Small,User,-,"How likely are you to correctly recall the second item in the pair?|Type your response on a scale from 0-100 and then press Enter.",Study/JOL,"Study Phase2",1548,,,1159,1276,,,,10,1
5eed3ee1ddae2c160f750f31,m53k4zzsh7,Trevor_EX2,1,122,2020-07-23T14:33:44-07:00,2.999253988266,2,Pure_Unrelated.csv,JOL_S_VersionB.csv,"Size U B","Size U B",DEGREE,CHAIR,Study1,U,71,23,JOL_Large,User,-,"How likely are you to correctly recall the second item in the pair?|Type your response on a scale from 0-100 and then press Enter.",Study/JOL,"Study Phase2",2651,,,2162,2231,,,,40,1
5eed3ee1ddae2c160f750f31,m53k4zzsh7,Trevor_EX2,1,123,2020-07-23T14:33:47-07:00,2.9918360710144,2,Pure_Unrelated.csv,JOL_S_VersionB.csv,"Size U B","Size U B",GRIND,STAND,Study1,U,85,14,JOL_Large,User,-,"How likely are you to correctly recall the second item in the pair?|Type your response on a scale from 0-100 and then press Enter.",Study/JOL,"Study Phase2",2700,,,2342,2428,,,,30,1
5eed3ee1ddae2c160f750f31,m53k4zzsh7,Trevor_EX2,1,124,2020-07-23T14:33:49-07:00,1.9557409286499,2,Pure_Unrelated.csv,JOL_S_VersionB.csv,"Size U B","Size U B",MIRROR,CHILDREN,Study1,U,24,18,JOL_Large,User,-,"How likely are you to correctly recall the second item in the pair?|Type your response on a scale from 0-100 and then press Enter.",Study/JOL,"Study Phase2",1679,,,1314,1452,,,,20,1
5eed3ee1ddae2c160f750f31,m53k4zzsh7,Trevor_EX2,1,125,2020-07-23T14:33:52-07:00,2.2935910224915,2,Pure_Unrelated.csv,JOL_S_VersionB.csv,"Size U B","Size U B",GIVE,STEAK,Study1,U,8,27,JOL_Small,User,-,"How likely are you to correctly recall the second item in the pair?|Type your response on a scale from 0-100 and then press Enter.",Study/JOL,"Study Phase2",1923,,,1367,1704,,,,50,1
5eed3ee1ddae2c160f750f31,m53k4zzsh7,Trevor_EX2,1,126,2020-07-23T14:33:53-07:00,1.7045331001282,2,Pure_Unrelated.csv,JOL_S_VersionB.csv,"Size U B","Size U B",FUZZY,BANG,Study1,U,18,42,JOL_Small,User,-,"How likely are you to correctly recall the second item in the pair?|Type your response on a scale from 0-100 and then press Enter.",Study/JOL,"Study Phase2",1406,,,1027,1226,,,,50,1
5eed3ee1ddae2c160f750f31,m53k4zzsh7,Trevor_EX2,1,127,2020-07-23T14:33:55-07:00,1.9201059341431,2,Pure_Unrelated.csv,JOL_S_VersionB.csv,"Size U B","Size U B",PARCEL,THROAT,Study1,U,67,26,JOL_Large,User,-,"How likely are you to correctly recall the second item in the pair?|Type your response on a scale from 0-100 and then press Enter.",Study/JOL,"Study Phase2",1514,,,1187,1336,,,,10,1
5eed3ee1ddae2c160f750f31,m53k4zzsh7,Trevor_EX2,1,128,2020-07-23T14:33:57-07:00,1.841784954071,2,Pure_Unrelated.csv,JOL_S_VersionB.csv,"Size U B","Size U B",CAKE,CLOTHES,Study1,U,16,28,JOL_Small,User,-,"How likely are you to correctly recall the second item in the pair?|Type your response on a scale from 0-100 and then press Enter.",Study/JOL,"Study Phase2",1502,,,1136,1297,,,,10,1
5eed3ee1ddae2c160f750f31,m53k4zzsh7,Trevor_EX2,1,129,2020-07-23T14:34:00-07:00,2.4799721240997,2,Pure_Unrelated.csv,JOL_S_VersionB.csv,"Size U B","Size U B",JUSTICE,MAROON,Study1,U,6,25,JOL_Large,User,-,"How likely are you to correctly recall the second item in the pair?|Type your response on a scale from 0-100 and then press Enter.",Study/JOL,"Study Phase2",2024,,,1501,1640,,,,20,1
5eed3ee1ddae2c160f750f31,m53k4zzsh7,Trevor_EX2,1,130,2020-07-23T14:34:03-07:00,3.3423399925232,2,Pure_Unrelated.csv,JOL_S_VersionB.csv,"Size U B","Size U B",INFLATE,DISGUST,Study1,U,76,32,JOL_Small,User,-,"How likely are you to correctly recall the second item in the pair?|Type your response on a scale from 0-100 and then press Enter.",Study/JOL,"Study Phase2",1787,,,1412,1556,,,,30,1
5eed3ee1ddae2c160f750f31,m53k4zzsh7,Trevor_EX2,1,131,2020-07-23T14:34:05-07:00,1.8656709194183,2,Pure_Unrelated.csv,JOL_S_VersionB.csv,"Size U B","Size U B",NAME,HATE,Study1,U,17,8,JOL_Large,User,-,"How likely are you to correctly recall the second item in the pair?|Type your response on a scale from 0-100 and then press Enter.",Study/JOL,"Study Phase2",1550,,,1115,1275,,,,20,1
5eed3ee1ddae2c160f750f31,m53k4zzsh7,Trevor_EX2,1,132,2020-07-23T14:34:07-07:00,1.9335219860077,2,Pure_Unrelated.csv,JOL_S_VersionB.csv,"Size U B","Size U B",DONKEY,LUSH,Study1,U,84,30,JOL_Small,User,-,"How likely are you to correctly recall the second item in the pair?|Type your response on a scale from 0-100 and then press Enter.",Study/JOL,"Study Phase2",1607,,,1268,1401,,,,10,1
5eed3ee1ddae2c160f750f31,m53k4zzsh7,Trevor_EX2,1,133,2020-07-23T14:34:09-07:00,1.9614570140839,2,Pure_Unrelated.csv,JOL_S_VersionB.csv,"Size U B","Size U B",RIPE,VERIFY,Study1,U,83,45,JOL_Small,User,-,"How likely are you to correctly recall the second item in the pair?|Type your response on a scale from 0-100 and then press Enter.",Study/JOL,"Study Phase2",1613,,,1335,1452,,,,10,1
5eed3ee1ddae2c160f750f31,m53k4zzsh7,Trevor_EX2,1,134,2020-07-23T14:34:10-07:00,1.5962710380554,2,Pure_Unrelated.csv,JOL_S_VersionB.csv,"Size U B","Size U B",CRAYON,RATE,Study1,U,79,36,JOL_Small,User,-,"How likely are you to correctly recall the second item in the pair?|Type your response on a scale from 0-100 and then press Enter.",Study/JOL,"Study Phase2",1245,,,971,1046,,,,10,1
5eed3ee1ddae2c160f750f31,m53k4zzsh7,Trevor_EX2,1,135,2020-07-23T14:34:13-07:00,2.9428019523621,2,Pure_Unrelated.csv,JOL_S_VersionB.csv,"Size U B","Size U B",STRETCH,CLOTH,Study1,U,7,20,JOL_Large,User,-,"How likely are you to correctly recall the second item in the pair?|Type your response on a scale from 0-100 and then press Enter.",Study/JOL,"Study Phase2",2569,,,2068,2254,,,,40,1
5eed3ee1ddae2c160f750f31,m53k4zzsh7,Trevor_EX2,1,136,2020-07-23T14:34:15-07:00,1.9064910411835,2,Pure_Unrelated.csv,JOL_S_VersionB.csv,"Size U B","Size U B",PET,MOON,Study1,U,74,11,JOL_Large,User,-,"How likely are you to correctly recall the second item in the pair?|Type your response on a scale from 0-100 and then press Enter.",Study/JOL,"Study Phase2",1647,,,1281,1461,,,,10,1
5eed3ee1ddae2c160f750f31,m53k4zzsh7,Trevor_EX2,1,137,2020-07-23T14:34:17-07:00,1.9081499576569,2,Pure_Unrelated.csv,JOL_S_VersionB.csv,"Size U B","Size U B",BAT,SHAKY,Study1,U,66,41,JOL_Small,User,-,"How likely are you to correctly recall the second item in the pair?|Type your response on a scale from 0-100 and then press Enter.",Study/JOL,"Study Phase2",1640,,,1282,1433,,,,10,1
5eed3ee1ddae2c160f750f31,m53k4zzsh7,Trevor_EX2,1,138,2020-07-23T14:34:19-07:00,1.9066820144653,2,Pure_Unrelated.csv,JOL_S_VersionB.csv,"Size U B","Size U B",NUMBER,HARD,Study1,U,78,12,JOL_Large,User,-,"How likely are you to correctly recall the second item in the pair?|Type your response on a scale from 0-100 and then press Enter.",Study/JOL,"Study Phase2",1527,,,1175,1330,,,,50,1
5eed3ee1ddae2c160f750f31,m53k4zzsh7,Trevor_EX2,1,139,2020-07-23T14:34:22-07:00,3.4678320884705,2,Pure_Unrelated.csv,JOL_S_VersionB.csv,"Size U B","Size U B",BROAD,INFECT,Study1,U,75,15,JOL_Large,User,-,"How likely are you to correctly recall the second item in the pair?|Type your response on a scale from 0-100 and then press Enter.",Study/JOL,"Study Phase2",3157,,,2767,2944,,,,30,1
5eed3ee1ddae2c160f750f31,m53k4zzsh7,Trevor_EX2,1,140,2020-07-23T14:34:24-07:00,1.699236869812,2,Pure_Unrelated.csv,JOL_S_VersionB.csv,"Size U B","Size U B",ROSE,NEGLECT,Study1,U,82,9,JOL_Large,User,-,"How likely are you to correctly recall the second item in the pair?|Type your response on a scale from 0-100 and then press Enter.",Study/JOL,"Study Phase2",1400,,,1136,1248,,,,20,1
5eed3ee1ddae2c160f750f31,m53k4zzsh7,Trevor_EX2,1,141,2020-07-23T14:34:26-07:00,1.6512989997864,2,Pure_Unrelated.csv,JOL_S_VersionB.csv,"Size U B","Size U B",THICK,CONTEST,Study1,U,73,13,JOL_Large,User,-,"How likely are you to correctly recall the second item in the pair?|Type your response on a scale from 0-100 and then press Enter.",Study/JOL,"Study Phase2",1361,,,1025,1136,,,,20,1
5eed3ee1ddae2c160f750f31,m53k4zzsh7,Trevor_EX2,1,142,2020-07-23T14:34:28-07:00,2.2788441181183,2,Pure_Unrelated.csv,JOL_S_VersionB.csv,"Size U B","Size U B",LISTEN,FICTION,Study1,U,14,33,JOL_Small,User,-,"How likely are you to correctly recall the second item in the pair?|Type your response on a scale from 0-100 and then press Enter.",Study/JOL,"Study Phase2",1912,,,1693,1762,,,,50,1
5eed3ee1ddae2c160f750f31,m53k4zzsh7,Trevor_EX2,1,143,2020-07-23T14:34:30-07:00,1.8637018203735,2,Pure_Unrelated.csv,JOL_S_VersionB.csv,"Size U B","Size U B",LOAN,SIGN,Study1,U,21,21,JOL_Large,User,-,"How likely are you to correctly recall the second item in the pair?|Type your response on a scale from 0-100 and then press Enter.",Study/JOL,"Study Phase2",1551,,,1159,1233,,,,10,1
5eed3ee1ddae2c160f750f31,m53k4zzsh7,Trevor_EX2,1,144,2020-07-23T14:34:32-07:00,2.574490070343,2,Pure_Unrelated.csv,JOL_S_VersionB.csv,"Size U B","Size U B",BOTH,OUNCE,Study1,U,22,17,JOL_Large,User,-,"How likely are you to correctly recall the second item in the pair?|Type your response on a scale from 0-100 and then press Enter.",Study/JOL,"Study Phase2",2139,,,1615,1746,,,,20,1
5eed3ee1ddae2c160f750f31,m53k4zzsh7,Trevor_EX2,1,145,2020-07-23T14:34:35-07:00,2.2117259502411,2,Pure_Unrelated.csv,JOL_S_VersionB.csv,"Size U B","Size U B",SHELL,SHAKE,Study1,U,13,10,JOL_Large,User,-,"How likely are you to correctly recall the second item in the pair?|Type your response on a scale from 0-100 and then press Enter.",Study/JOL,"Study Phase2",1874,,,1538,1655,,,,50,1
5eed3ee1ddae2c160f750f31,m53k4zzsh7,Trevor_EX2,1,146,2020-07-23T14:34:37-07:00,2.0508069992065,2,Pure_Unrelated.csv,JOL_S_VersionB.csv,"Size U B","Size U B",WARN,SEA,Study1,U,80,22,JOL_Large,User,-,"How likely are you to correctly recall the second item in the pair?|Type your response on a scale from 0-100 and then press Enter.",Study/JOL,"Study Phase2",1759,,,1396,1535,,,,20,1
5eed3ee1ddae2c160f750f31,m53k4zzsh7,Trevor_EX2,1,147,2020-07-23T14:34:39-07:00,2.4248900413513,2,Pure_Unrelated.csv,JOL_S_VersionB.csv,"Size U B","Size U B",GEESE,GOOSE,BUFFER2,Buffer,86,51,JOL_Large,User,-,"How likely are you to correctly recall the second item in the pair?|Type your response on a scale from 0-100 and then press Enter.",Study/JOL,BUFFER4,2121,,,1815,1908,,,,90,1
5eed3ee1ddae2c160f750f31,m53k4zzsh7,Trevor_EX2,1,148,2020-07-23T14:34:41-07:00,1.7212851047516,2,Pure_Unrelated.csv,JOL_S_VersionB.csv,"Size U B","Size U B",MOON,SPACE,BUFFER2,Buffer,89,48,JOL_Large,User,-,"How likely are you to correctly recall the second item in the pair?|Type your response on a scale from 0-100 and then press Enter.",Study/JOL,BUFFER4,1450,,,1117,1224,,,,90,1
5eed3ee1ddae2c160f750f31,m53k4zzsh7,Trevor_EX2,1,149,2020-07-23T14:34:43-07:00,1.8668949604034,2,Pure_Unrelated.csv,JOL_S_VersionB.csv,"Size U B","Size U B",SHERRIF,POLICE,BUFFER2,Buffer,87,50,JOL_Small,User,-,"How likely are you to correctly recall the second item in the pair?|Type your response on a scale from 0-100 and then press Enter.",Study/JOL,BUFFER4,1574,,,1246,1342,,,,90,1
5eed3ee1ddae2c160f750f31,m53k4zzsh7,Trevor_EX2,1,150,2020-07-23T14:34:46-07:00,2.8689329624176,2,Pure_Unrelated.csv,JOL_S_VersionB.csv,"Size U B","Size U B",THING,STUFF,BUFFER2,Buffer,90,47,JOL_Large,User,-,"How likely are you to correctly recall the second item in the pair?|Type your response on a scale from 0-100 and then press Enter.",Study/JOL,BUFFER4,2543,,,2050,2146,,,,80,1
5eed3ee1ddae2c160f750f31,m53k4zzsh7,Trevor_EX2,1,151,2020-07-23T14:34:48-07:00,2.4069080352783,2,Pure_Unrelated.csv,JOL_S_VersionB.csv,"Size U B","Size U B",MALT,CHOCOLATE,BUFFER2,Buffer,88,49,JOL_Small,User,-,"How likely are you to correctly recall the second item in the pair?|Type your response on a scale from 0-100 and then press Enter.",Study/JOL,BUFFER4,2052,,,1773,1869,,,,50,1
5eed3ee1ddae2c160f750f31,m53k4zzsh7,Trevor_EX2,1,152,2020-07-23T14:34:49-07:00,1.0791640281677,2,Pure_Unrelated.csv,JOL_S_VersionB.csv,"Size U B","Size U B",,,,,,0,Instruct,User,-,"You have completed this section. Please press Enter.",Filler_Instruction,Instruct5,816,,,-1,-1,,,,,1
5eed3ee1ddae2c160f750f31,m53k4zzsh7,Trevor_EX2,1,153,2020-07-23T14:36:50-07:00,120.96850705147,2,Pure_Unrelated.csv,JOL_S_VersionB.csv,"Size U B","Size U B",,,,,,0,FreeRecall,120,120,"Please list the 50 US states in reverse alphabetical order (z - a). The task will automatically advance to the next screen after two minutes.",,Filler2,120623,"Wyoming Washington Virginia Texas New York Massachusetts Georgia Florida Buffalo Alabama",0,2423,76048,0,0,,,0.805
5eed3ee1ddae2c160f750f31,m53k4zzsh7,Trevor_EX2,1,154,2020-07-23T14:37:05-07:00,15.430409908295,2,Pure_Unrelated.csv,JOL_S_VersionB.csv,"Size U B","Size U B",,,,,,0,Instruct,-,10,"You will now be presented with the first word from each of the previously studied item pairs. Please type the missing word. If you do not know the word, you may guess or press Enter to skip forward to the next pair.",,Instruct6,14410,,,-1,-1,,,,,0.972
5eed3ee1ddae2c160f750f31,m53k4zzsh7,Trevor_EX2,1,155,2020-07-23T14:37:09-07:00,3.7159059047699,2,Pure_Unrelated.csv,JOL_S_VersionB.csv,"Size U B","Size U B",TAX,OWL,Study1,U,72,39,Test,User,-,,Recall,Recall2,3273,free,0,1443,1840,0,0,,,1
5eed3ee1ddae2c160f750f31,m53k4zzsh7,Trevor_EX2,1,156,2020-07-23T14:37:15-07:00,5.35551404953,2,Pure_Unrelated.csv,JOL_S_VersionB.csv,"Size U B","Size U B",BROAD,INFECT,Study1,U,75,15,Test,User,-,,Recall,Recall2,5032,infect,100,4293,4882,1,1,,,1
5eed3ee1ddae2c160f750f31,m53k4zzsh7,Trevor_EX2,1,157,2020-07-23T14:37:17-07:00,2.5855860710144,2,Pure_Unrelated.csv,JOL_S_VersionB.csv,"Size U B","Size U B",CAKE,CLOTHES,Study1,U,16,28,Test,User,-,,Recall,Recall2,2208,clothes,100,1552,2111,1,1,,,1
5eed3ee1ddae2c160f750f31,m53k4zzsh7,Trevor_EX2,1,158,2020-07-23T14:37:19-07:00,1.6909010410309,2,Pure_Unrelated.csv,JOL_S_VersionB.csv,"Size U B","Size U B",BAT,SHAKY,Study1,U,66,41,Test,User,-,,Recall,Recall2,1363,shaky,100,824,1196,1,1,,,1
5eed3ee1ddae2c160f750f31,m53k4zzsh7,Trevor_EX2,1,159,2020-07-23T14:37:20-07:00,1.5616409778595,2,Pure_Unrelated.csv,JOL_S_VersionB.csv,"Size U B","Size U B",LISTEN,FICTION,Study1,U,14,33,Test,User,-,,Recall,Recall2,1254,,0,-1,-1,0,0,,,1
5eed3ee1ddae2c160f750f31,m53k4zzsh7,Trevor_EX2,1,160,2020-07-23T14:37:23-07:00,2.2640759944916,2,Pure_Unrelated.csv,JOL_S_VersionB.csv,"Size U B","Size U B",RIPE,VERIFY,Study1,U,83,45,Test,User,-,,Recall,Recall2,1890,verify,100,1018,1733,1,1,,,1
5eed3ee1ddae2c160f750f31,m53k4zzsh7,Trevor_EX2,1,161,2020-07-23T14:37:25-07:00,1.8637449741364,2,Pure_Unrelated.csv,JOL_S_VersionB.csv,"Size U B","Size U B",NUMBER,HARD,Study1,U,78,12,Test,User,-,,Recall,Recall2,1572,hard,100,1026,1410,1,1,,,1
5eed3ee1ddae2c160f750f31,m53k4zzsh7,Trevor_EX2,1,162,2020-07-23T14:37:27-07:00,2.7313420772552,2,Pure_Unrelated.csv,JOL_S_VersionB.csv,"Size U B","Size U B",STRETCH,CLOTH,Study1,U,7,20,Test,User,-,,Recall,Recall2,2393,cloth,100,1819,2228,1,1,,,1
5eed3ee1ddae2c160f750f31,m53k4zzsh7,Trevor_EX2,1,163,2020-07-23T14:37:28-07:00,1.2159779071808,2,Pure_Unrelated.csv,JOL_S_VersionB.csv,"Size U B","Size U B",LOAN,SIGN,Study1,U,21,21,Test,User,-,,Recall,Recall2,936,,0,-1,-1,0,0,,,1
5eed3ee1ddae2c160f750f31,m53k4zzsh7,Trevor_EX2,1,164,2020-07-23T14:37:31-07:00,2.7435920238495,2,Pure_Unrelated.csv,JOL_S_VersionB.csv,"Size U B","Size U B",STRESS,YAM,Study1,U,68,43,Test,User,-,,Recall,Recall2,2401,,0,-1,-1,0,0,,,1
5eed3ee1ddae2c160f750f31,m53k4zzsh7,Trevor_EX2,1,165,2020-07-23T14:37:34-07:00,2.6319060325623,2,Pure_Unrelated.csv,JOL_S_VersionB.csv,"Size U B","Size U B",DIFFICULT,POOR,Study1,U,81,16,Test,User,-,,Recall,Recall2,2298,number,20,1489,2185,0,0,,,1
5eed3ee1ddae2c160f750f31,m53k4zzsh7,Trevor_EX2,1,166,2020-07-23T14:37:35-07:00,1.5070159435272,2,Pure_Unrelated.csv,JOL_S_VersionB.csv,"Size U B","Size U B",WARN,SEA,Study1,U,80,22,Test,User,-,,Recall,Recall2,1260,sea,100,982,1153,1,1,,,1
5eed3ee1ddae2c160f750f31,m53k4zzsh7,Trevor_EX2,1,167,2020-07-23T14:37:38-07:00,2.8163878917694,2,Pure_Unrelated.csv,JOL_S_VersionB.csv,"Size U B","Size U B",GIVE,STEAK,Study1,U,8,27,Test,User,-,,Recall,Recall2,2490,take,66.666666666667,2093,2361,0,0,,,1
5eed3ee1ddae2c160f750f31,m53k4zzsh7,Trevor_EX2,1,168,2020-07-23T14:37:42-07:00,4.2451071739197,2,Pure_Unrelated.csv,JOL_S_VersionB.csv,"Size U B","Size U B",FUZZY,BANG,Study1,U,18,42,Test,User,-,,Recall,Recall2,3902,bat,57.142857142857,3295,3591,0,0,,,1
5eed3ee1ddae2c160f750f31,m53k4zzsh7,Trevor_EX2,1,169,2020-07-23T14:37:45-07:00,2.3294959068298,2,Pure_Unrelated.csv,JOL_S_VersionB.csv,"Size U B","Size U B",KEYS,JOKE,Study1,U,15,7,Test,User,-,,Recall,Recall2,1949,,0,-1,-1,0,0,,,1
5eed3ee1ddae2c160f750f31,m53k4zzsh7,Trevor_EX2,1,170,2020-07-23T14:37:47-07:00,2.1768131256104,2,Pure_Unrelated.csv,JOL_S_VersionB.csv,"Size U B","Size U B",RESIST,GLUE,Study1,U,69,40,Test,User,-,,Recall,Recall2,1858,glue,100,1522,1730,1,1,,,1
5eed3ee1ddae2c160f750f31,m53k4zzsh7,Trevor_EX2,1,171,2020-07-23T14:37:51-07:00,4.4312419891357,2,Pure_Unrelated.csv,JOL_S_VersionB.csv,"Size U B","Size U B",DIZZY,SWEATER,Study1,U,77,35,Test,User,-,,Recall,Recall2,4103,,0,-1,-1,0,0,,,1
5eed3ee1ddae2c160f750f31,m53k4zzsh7,Trevor_EX2,1,172,2020-07-23T14:37:54-07:00,3.1470708847046,2,Pure_Unrelated.csv,JOL_S_VersionB.csv,"Size U B","Size U B",GRIND,STAND,Study1,U,85,14,Test,User,-,,Recall,Recall2,2827,,0,-1,-1,0,0,,,1
5eed3ee1ddae2c160f750f31,m53k4zzsh7,Trevor_EX2,1,173,2020-07-23T14:37:56-07:00,1.7743189334869,2,Pure_Unrelated.csv,JOL_S_VersionB.csv,"Size U B","Size U B",CRAYON,RATE,Study1,U,79,36,Test,User,-,,Recall,Recall2,1445,rate,100,944,1237,1,1,,,1
5eed3ee1ddae2c160f750f31,m53k4zzsh7,Trevor_EX2,1,174,2020-07-23T14:37:59-07:00,2.5143060684204,2,Pure_Unrelated.csv,JOL_S_VersionB.csv,"Size U B","Size U B",LEASE,TOIL,Study1,U,20,34,Test,User,-,,Recall,Recall2,2080,foil,75,1628,1895,0,1,,,1
5eed3ee1ddae2c160f750f31,m53k4zzsh7,Trevor_EX2,1,175,2020-07-23T14:38:01-07:00,2.175635099411,2,Pure_Unrelated.csv,JOL_S_VersionB.csv,"Size U B","Size U B",MIRROR,CHILDREN,Study1,U,24,18,Test,User,-,,Recall,Recall2,1742,children,100,1062,1645,1,1,,,1
5eed3ee1ddae2c160f750f31,m53k4zzsh7,Trevor_EX2,1,176,2020-07-23T14:38:06-07:00,5.1135849952698,2,Pure_Unrelated.csv,JOL_S_VersionB.csv,"Size U B","Size U B",MAZE,ELECTION,Study1,U,9,19,Test,User,-,,Recall,Recall2,4749,business,25,1652,4637,0,0,,,1
5eed3ee1ddae2c160f750f31,m53k4zzsh7,Trevor_EX2,1,177,2020-07-23T14:38:09-07:00,3.3702189922333,2,Pure_Unrelated.csv,JOL_S_VersionB.csv,"Size U B","Size U B",TEMPERATURE,MORNING,Study1,U,23,38,Test,User,-,,Recall,Recall2,3024,morning,100,1264,1830,1,1,,,1
5eed3ee1ddae2c160f750f31,m53k4zzsh7,Trevor_EX2,1,178,2020-07-23T14:38:12-07:00,2.5319540500641,2,Pure_Unrelated.csv,JOL_S_VersionB.csv,"Size U B","Size U B",MAIN,SCAR,Study1,U,25,24,Test,User,-,,Recall,Recall2,2196,,0,-1,-1,0,0,,,1
5eed3ee1ddae2c160f750f31,m53k4zzsh7,Trevor_EX2,1,179,2020-07-23T14:38:15-07:00,3.1691977977753,2,Pure_Unrelated.csv,JOL_S_VersionB.csv,"Size U B","Size U B",SHELL,SHAKE,Study1,U,13,10,Test,User,-,,Recall,Recall2,2850,shake,100,1495,1815,1,1,,,1
5eed3ee1ddae2c160f750f31,m53k4zzsh7,Trevor_EX2,1,180,2020-07-23T14:38:20-07:00,4.4119691848755,2,Pure_Unrelated.csv,JOL_S_VersionB.csv,"Size U B","Size U B",ROSE,NEGLECT,Study1,U,82,9,Test,User,-,,Recall,Recall2,4091,,0,-1,-1,0,0,,,1
5eed3ee1ddae2c160f750f31,m53k4zzsh7,Trevor_EX2,1,181,2020-07-23T14:38:22-07:00,2.2870829105377,2,Pure_Unrelated.csv,JOL_S_VersionB.csv,"Size U B","Size U B",BOTH,OUNCE,Study1,U,22,17,Test,User,-,,Recall,Recall2,1969,ounce,100,1339,1819,1,1,,,1
5eed3ee1ddae2c160f750f31,m53k4zzsh7,Trevor_EX2,1,182,2020-07-23T14:38:25-07:00,2.9345560073853,2,Pure_Unrelated.csv,JOL_S_VersionB.csv,"Size U B","Size U B",DONKEY,LUSH,Study1,U,84,30,Test,User,-,,Recall,Recall2,2518,null,25,1337,1959,0,0,,,1
5eed3ee1ddae2c160f750f31,m53k4zzsh7,Trevor_EX2,1,183,2020-07-23T14:38:27-07:00,2.1976931095123,2,Pure_Unrelated.csv,JOL_S_VersionB.csv,"Size U B","Size U B",FUTURE,SINCERE,Study1,U,70,29,Test,User,-,,Recall,Recall2,1835,sincer,92.307692307692,1110,1510,0,1,,,1
5eed3ee1ddae2c160f750f31,m53k4zzsh7,Trevor_EX2,1,184,2020-07-23T14:38:29-07:00,1.8482689857483,2,Pure_Unrelated.csv,JOL_S_VersionB.csv,"Size U B","Size U B",MEAT,OBTAIN,Study1,U,11,37,Test,User,-,,Recall,Recall2,1565,obtain,100,965,1441,1,1,,,1
5eed3ee1ddae2c160f750f31,m53k4zzsh7,Trevor_EX2,1,185,2020-07-23T14:38:35-07:00,5.7643229961395,2,Pure_Unrelated.csv,JOL_S_VersionB.csv,"Size U B","Size U B",CRACKLE,ABLE,Study1,U,12,44,Test,User,-,,Recall,Recall2,5371,able,100,1816,5231,1,1,,,1
5eed3ee1ddae2c160f750f31,m53k4zzsh7,Trevor_EX2,1,186,2020-07-23T14:38:38-07:00,3.1377530097961,2,Pure_Unrelated.csv,JOL_S_VersionB.csv,"Size U B","Size U B",THICK,CONTEST,Study1,U,73,13,Test,User,-,,Recall,Recall2,2752,contest,100,1984,2553,1,1,,,1
5eed3ee1ddae2c160f750f31,m53k4zzsh7,Trevor_EX2,1,187,2020-07-23T14:38:40-07:00,1.7999107837677,2,Pure_Unrelated.csv,JOL_S_VersionB.csv,"Size U B","Size U B",PET,MOON,Study1,U,74,11,Test,User,-,,Recall,Recall2,1522,moon,100,1098,1371,1,1,,,1
5eed3ee1ddae2c160f750f31,m53k4zzsh7,Trevor_EX2,1,188,2020-07-23T14:38:41-07:00,1.241797208786,2,Pure_Unrelated.csv,JOL_S_VersionB.csv,"Size U B","Size U B",VEHICLE,CHARM,Study1,U,10,46,Test,User,-,,Recall,Recall2,958,,0,-1,-1,0,0,,,1
5eed3ee1ddae2c160f750f31,m53k4zzsh7,Trevor_EX2,1,189,2020-07-23T14:38:45-07:00,4.0565187931061,2,Pure_Unrelated.csv,JOL_S_VersionB.csv,"Size U B","Size U B",INFLATE,DISGUST,Study1,U,76,32,Test,User,-,,Recall,Recall2,3727,,0,-1,-1,0,0,,,1
5eed3ee1ddae2c160f750f31,m53k4zzsh7,Trevor_EX2,1,190,2020-07-23T14:38:47-07:00,2.5528252124786,2,Pure_Unrelated.csv,JOL_S_VersionB.csv,"Size U B","Size U B",DEGREE,CHAIR,Study1,U,71,23,Test,User,-,,Recall,Recall2,2237,chair,100,1766,2097,1,1,,,1
5eed3ee1ddae2c160f750f31,m53k4zzsh7,Trevor_EX2,1,191,2020-07-23T14:38:50-07:00,2.329482793808,2,Pure_Unrelated.csv,JOL_S_VersionB.csv,"Size U B","Size U B",JUSTICE,MAROON,Study1,U,6,25,Test,User,-,,Recall,Recall2,1986,,0,-1,-1,0,0,,,1
5eed3ee1ddae2c160f750f31,m53k4zzsh7,Trevor_EX2,1,192,2020-07-23T14:38:52-07:00,2.3356289863586,2,Pure_Unrelated.csv,JOL_S_VersionB.csv,"Size U B","Size U B",PARCEL,THROAT,Study1,U,67,26,Test,User,-,,Recall,Recall2,2005,,0,-1,-1,0,0,,,1
5eed3ee1ddae2c160f750f31,m53k4zzsh7,Trevor_EX2,1,193,2020-07-23T14:38:54-07:00,1.6990520954132,2,Pure_Unrelated.csv,JOL_S_VersionB.csv,"Size U B","Size U B",NAME,HATE,Study1,U,17,8,Test,User,-,,Recall,Recall2,1392,hate,100,1023,1264,1,1,,,1
5eed3ee1ddae2c160f750f31,m53k4zzsh7,Trevor_EX2,1,194,2020-07-23T14:38:57-07:00,3.2503490447998,2,Pure_Unrelated.csv,JOL_S_VersionB.csv,"Size U B","Size U B",MOAT,CLEAR,Study1,U,19,31,Test,User,-,,Recall,Recall2,2843,clear,100,1975,2405,1,1,,,1
5eed3ee1ddae2c160f750f31,m53k4zzsh7,Trevor_EX2,1,195,2020-07-23T14:38:58-07:00,1.1517839431763,2,Pure_Unrelated.csv,JOL_S_VersionB.csv,"Size U B","Size U B",,,,,,0,Instruct,User,-,"You have completed this section. Please press Enter.",,Instruct7,718,,,-1,-1,,,,,1
5eed3ee1ddae2c160f750f31,m53k4zzsh7,Trevor_EX2,1,196,2020-07-23T14:39:00-07:00,1.7612869739532,2,Pure_Unrelated.csv,JOL_S_VersionB.csv,"Size U B","Size U B",,,,,,0,Instruct,User,-,"The following screen will ask you a few questions abour your experience today. You must complete these questions to receive credit.",,Instruct8,1439,,,-1,-1,,,,,1
